time,s1_X,s1_Y,s1_Z,s1_gyro_x,s1_gyro_y,s1_gyro_z,s1_mag_x,s1_mag_y,s1_mag_z,s2_X,s2_Y,s2_Z,s2_gyro_x,s2_gyro_y,s2_gyro_z,s3_X,s3_Y,s3_Z,s3_gyro_x,s3_gyro_y,s3_gyro_z,s4_X,s4_Y,s4_Z,s4_gyro_x,s4_gyro_y,s4_gyro_z,s5_X,s5_Y,s5_Z,s5_gyro_x,s5_gyro_y,s5_gyro_z,s6_X,s6_Y,s6_Z,s6_gyro_x,s6_gyro_y,s6_gyro_z,label
0.045176,0.02,0.975,0.222,0.0,-0.707,0.707,-0.186,-0.964,0.19,0.746,-0.499,0.441,0.0,0.083,-0.997,0.754,-0.218,0.62,-0.147,0.442,-0.885,0.821,-0.26,0.509,-0.0,0.1,-0.995,0.897,-0.02,0.441,-0.549,0.329,-0.768,0.759,0.47,0.45,-0.983,-0.164,0.082,rock
0.057871,0.033,0.974,0.225,-0.248,-0.62,0.744,-0.214,-0.956,0.199,0.745,-0.5,0.442,-0.0,0.091,-0.996,0.754,-0.213,0.621,-0.371,0.557,-0.743,0.823,-0.258,0.506,-0.123,0.123,-0.985,0.898,-0.015,0.439,-0.598,0.359,-0.717,0.76,0.464,0.454,-0.996,-0.0,-0.091,rock
0.097488,0.041,0.974,0.223,-0.248,-0.62,0.744,-0.21,-0.961,0.178,0.748,-0.493,0.445,-0.228,0.342,-0.912,0.754,-0.205,0.624,-0.811,0.487,-0.324,0.826,-0.249,0.506,-0.408,0.408,-0.816,0.9,-0.004,0.436,-0.781,0.488,-0.39,0.761,0.456,0.461,-0.921,-0.276,-0.276,rock
0.13897,0.048,0.975,0.217,0.174,-0.696,-0.696,-0.21,-0.961,0.178,0.747,-0.49,0.45,-0.625,0.625,-0.469,0.75,-0.207,0.628,-0.912,0.342,0.228,0.823,-0.247,0.512,-0.617,0.772,-0.154,0.896,-0.003,0.443,-0.786,0.612,0.087,0.769,0.453,0.451,-0.57,-0.456,-0.684,rock
0.181095,0.04,0.974,0.225,0.316,-0.0,-0.949,-0.21,-0.961,0.178,0.749,-0.49,0.446,-0.588,0.784,-0.196,0.753,-0.207,0.625,-0.848,0.318,0.424,0.823,-0.25,0.509,-0.555,0.832,0.0,0.897,-0.009,0.441,-0.724,0.634,0.272,0.762,0.461,0.454,-0.512,-0.384,-0.768,rock
0.225302,0.039,0.973,0.228,0.487,-0.324,-0.811,-0.21,-0.961,0.178,0.75,-0.492,0.442,-0.487,0.811,-0.324,0.756,-0.207,0.622,-0.816,0.408,0.408,0.824,-0.253,0.507,-0.496,0.868,-0.0,0.898,-0.013,0.44,-0.705,0.705,0.078,0.759,0.464,0.458,-0.456,-0.684,-0.57,rock
0.264458,0.035,0.974,0.223,0.617,-0.154,-0.772,-0.21,-0.961,0.178,0.746,-0.497,0.443,-0.183,0.913,-0.365,0.753,-0.214,0.623,-0.778,0.444,0.444,0.82,-0.258,0.511,-0.275,0.962,-0.0,0.894,-0.018,0.448,-0.647,0.74,0.185,0.765,0.467,0.444,-0.577,-0.577,-0.577,rock
0.310012,0.027,0.973,0.23,0.707,0.0,-0.707,-0.187,-0.963,0.194,0.75,-0.496,0.437,-0.192,0.192,-0.962,0.757,-0.21,0.618,-0.873,0.436,0.218,0.824,-0.258,0.505,-0.267,0.535,-0.802,0.898,-0.019,0.439,-0.772,0.617,-0.154,0.758,0.471,0.452,-0.953,0.136,-0.272,rock
0.347679,0.036,0.974,0.222,-0.426,-0.64,0.64,-0.187,-0.963,0.194,0.75,-0.49,0.445,-0.241,0.12,-0.963,0.755,-0.202,0.624,-0.873,0.218,-0.436,0.825,-0.249,0.507,-0.302,0.302,-0.905,0.9,-0.007,0.436,-0.816,0.408,-0.408,0.761,0.461,0.455,-0.976,0.098,-0.195,rock
0.39421,0.037,0.978,0.203,0.371,-0.743,-0.557,-0.194,-0.956,0.22,0.743,-0.493,0.453,-0.384,0.512,-0.768,0.747,-0.21,0.631,-0.911,0.391,-0.13,0.819,-0.249,0.517,-0.577,0.577,-0.577,0.895,-0.005,0.447,-0.83,0.518,-0.207,0.771,0.454,0.447,-0.87,-0.097,-0.483,rock
0.43189,0.032,0.977,0.211,0.11,0.0,-0.994,-0.194,-0.956,0.22,0.738,-0.499,0.454,-0.696,0.696,-0.174,0.745,-0.22,0.63,-0.896,0.199,0.398,0.816,-0.256,0.518,-0.64,0.768,0.0,0.892,-0.014,0.452,-0.763,0.594,0.254,0.77,0.46,0.442,-0.566,-0.226,-0.793,rock
0.474376,0.023,0.974,0.223,0.314,0.105,-0.943,-0.17,-0.966,0.195,0.742,-0.499,0.447,-0.617,0.772,0.154,0.751,-0.218,0.624,-0.818,0.182,0.545,0.819,-0.261,0.511,-0.566,0.793,0.226,0.894,-0.021,0.448,-0.709,0.63,0.315,0.762,0.47,0.446,-0.349,-0.465,-0.814,rock
0.516115,0.035,0.974,0.223,0.394,0.0,-0.919,-0.188,-0.955,0.231,0.744,-0.497,0.446,-0.535,0.802,-0.267,0.75,-0.215,0.626,-0.843,0.241,0.482,0.818,-0.259,0.513,-0.514,0.857,0.0,0.893,-0.019,0.45,-0.742,0.636,0.212,0.763,0.469,0.445,-0.7,-0.14,-0.7,rock
0.561281,0.031,0.974,0.226,-0.707,-0.707,0.0,-0.193,-0.963,0.188,0.747,-0.497,0.443,-0.183,0.365,-0.913,0.754,-0.212,0.622,-0.97,0.243,0.0,0.822,-0.258,0.508,-0.371,0.557,-0.743,0.896,-0.018,0.443,-0.824,0.549,-0.137,0.758,0.471,0.452,-0.93,0.116,-0.349,rock
0.600602,0.027,0.974,0.225,-0.0,-0.894,0.447,-0.169,-0.967,0.192,0.742,-0.5,0.446,-0.136,0.272,-0.953,0.751,-0.215,0.624,-0.802,0.535,-0.267,0.818,-0.261,0.513,-0.183,0.365,-0.913,0.894,-0.02,0.447,-0.762,0.457,-0.457,0.762,0.469,0.446,-0.97,0.108,-0.216,rock
0.642428,0.024,0.976,0.216,0.577,-0.577,0.577,-0.171,-0.961,0.216,0.739,-0.502,0.449,-0.14,0.14,-0.98,0.748,-0.221,0.626,-0.802,0.535,-0.267,0.817,-0.261,0.515,-0.183,0.365,-0.913,0.893,-0.022,0.45,-0.762,0.457,-0.457,0.763,0.471,0.442,-0.988,0.11,-0.11,rock
0.686679,0.028,0.978,0.207,0.0,-0.894,0.447,-0.171,-0.961,0.216,0.736,-0.502,0.454,-0.0,0.141,-0.99,0.745,-0.223,0.629,-0.802,0.535,-0.267,0.813,-0.261,0.521,-0.183,0.365,-0.913,0.889,-0.02,0.457,-0.707,0.566,-0.424,0.768,0.468,0.437,-0.992,0.0,-0.124,rock
0.729278,0.031,0.976,0.214,-0.408,0.408,0.816,-0.171,-0.961,0.216,0.739,-0.5,0.451,0.14,-0.14,-0.98,0.746,-0.219,0.629,-0.707,0.707,-0.0,0.815,-0.259,0.518,0.243,0.0,-0.97,0.891,-0.019,0.454,-0.728,0.485,-0.485,0.767,0.468,0.439,-0.93,0.349,-0.116,rock
0.770516,0.032,0.975,0.221,-0.408,0.408,0.816,-0.203,-0.955,0.215,0.744,-0.5,0.444,0.162,-0.162,-0.973,0.752,-0.215,0.623,-1.0,0.0,0.0,0.82,-0.26,0.511,0.243,0.0,-0.97,0.895,-0.017,0.445,-0.802,0.535,-0.267,0.761,0.467,0.45,-0.911,0.391,-0.13,rock
0.813139,0.028,0.975,0.221,-0.0,0.707,0.707,-0.203,-0.955,0.215,0.744,-0.499,0.445,0.0,0.0,-1.0,0.753,-0.215,0.622,-0.816,0.408,0.408,0.82,-0.259,0.51,-0.0,0.316,-0.949,0.896,-0.018,0.443,-0.784,0.588,-0.196,0.76,0.469,0.45,-0.953,0.272,-0.136,rock
0.856379,0.032,0.976,0.217,-0.0,-0.0,1.0,-0.206,-0.953,0.223,0.742,-0.498,0.449,-0.0,0.164,-0.986,0.75,-0.218,0.624,-0.894,0.447,0.0,0.818,-0.259,0.513,-0.0,0.555,-0.832,0.895,-0.018,0.446,-0.784,0.588,-0.196,0.763,0.467,0.448,-0.927,0.265,-0.265,rock
0.899876,0.028,0.976,0.215,0.0,1.0,-0.0,-0.206,-0.953,0.223,0.742,-0.497,0.449,0.0,0.196,-0.981,0.75,-0.215,0.626,-0.905,0.302,0.302,0.818,-0.258,0.515,-0.0,0.555,-0.832,0.894,-0.017,0.448,-0.696,0.696,-0.174,0.762,0.468,0.448,-0.953,0.136,-0.272,rock
0.939252,0.031,0.976,0.217,0.707,-0.0,0.707,-0.179,-0.96,0.214,0.743,-0.498,0.447,0.0,0.164,-0.986,0.75,-0.215,0.625,-0.802,0.535,0.267,0.819,-0.256,0.513,-0.0,0.555,-0.832,0.894,-0.016,0.447,-0.696,0.696,-0.174,0.763,0.467,0.446,-0.99,0.0,-0.141,rock
0.982927,0.032,0.975,0.222,0.0,0.0,1.0,-0.212,-0.954,0.21,0.744,-0.497,0.447,0.0,0.0,-1.0,0.751,-0.216,0.624,-0.894,0.447,-0.0,0.819,-0.257,0.513,0.0,0.243,-0.97,0.894,-0.016,0.448,-0.743,0.557,-0.371,0.763,0.467,0.446,-0.93,0.349,-0.116,rock
1.026535,0.032,0.975,0.22,-0.447,0.0,0.894,-0.212,-0.954,0.21,0.743,-0.498,0.447,0.0,0.0,-1.0,0.75,-0.215,0.626,-0.894,0.447,-0.0,0.82,-0.256,0.512,-0.0,0.243,-0.97,0.895,-0.015,0.445,-0.784,0.588,-0.196,0.762,0.465,0.45,-0.953,0.272,-0.136,rock
1.066347,0.032,0.975,0.219,1.0,0.0,0.0,-0.189,-0.954,0.234,0.743,-0.498,0.448,0.0,0.164,-0.986,0.75,-0.218,0.625,-0.667,0.667,0.333,0.819,-0.258,0.512,-0.0,0.555,-0.832,0.895,-0.017,0.445,-0.696,0.696,-0.174,0.762,0.467,0.448,-0.98,0.14,-0.14,rock
1.111535,0.032,0.975,0.219,0.0,0.0,1.0,-0.189,-0.954,0.234,0.744,-0.496,0.447,0.0,0.164,-0.986,0.751,-0.215,0.624,-0.667,0.667,0.333,0.82,-0.256,0.511,-0.0,0.555,-0.832,0.896,-0.015,0.444,-0.696,0.696,-0.174,0.763,0.464,0.45,-0.953,0.136,-0.272,rock
1.153992,0.036,0.974,0.222,1.0,0.0,0.0,-0.178,-0.964,0.199,0.747,-0.495,0.445,0.0,0.196,-0.981,0.754,-0.215,0.621,-0.802,0.535,0.267,0.822,-0.255,0.51,-0.0,0.555,-0.832,0.896,-0.014,0.443,-0.696,0.696,-0.174,0.761,0.466,0.452,-0.949,0.0,-0.316,rock
1.195374,0.036,0.973,0.227,0.707,-0.0,0.707,-0.194,-0.96,0.201,0.747,-0.494,0.445,0.0,0.164,-0.986,0.752,-0.213,0.624,-0.667,0.667,0.333,0.822,-0.254,0.509,-0.0,0.447,-0.894,0.897,-0.013,0.442,-0.696,0.696,-0.174,0.762,0.464,0.452,-0.98,0.14,-0.14,rock
1.240015,0.04,0.975,0.217,0.0,-0.0,0.0,-0.194,-0.96,0.201,0.745,-0.495,0.448,0.0,0.196,-0.981,0.75,-0.212,0.626,-0.728,0.485,0.485,0.821,-0.253,0.512,-0.0,0.707,-0.707,0.895,-0.012,0.445,-0.707,0.707,-0.0,0.764,0.462,0.451,-0.949,0.0,-0.316,rock
1.278808,0.036,0.974,0.222,0.707,0.0,-0.707,-0.177,-0.963,0.202,0.747,-0.493,0.446,0.0,0.196,-0.981,0.751,-0.212,0.626,-0.905,0.302,0.302,0.822,-0.252,0.51,-0.0,0.707,-0.707,0.896,-0.012,0.444,-0.707,0.707,-0.0,0.764,0.463,0.449,-0.949,0.0,-0.316,rock
1.322772,0.044,0.975,0.219,0.0,0.707,0.707,-0.179,-0.963,0.202,0.747,-0.491,0.449,0.243,-0.0,-0.97,0.75,-0.209,0.628,-0.667,0.333,0.667,0.82,-0.251,0.515,0.333,0.667,-0.667,0.893,-0.009,0.449,-0.6,0.8,0.0,0.769,0.459,0.445,-0.962,0.192,-0.192,rock
1.360984,0.04,0.976,0.216,0.0,0.949,0.316,-0.188,-0.954,0.232,0.747,-0.49,0.449,0.436,-0.218,-0.873,0.75,-0.205,0.628,-0.408,0.408,0.816,0.822,-0.25,0.512,0.667,0.333,-0.667,0.895,-0.007,0.446,-0.436,0.873,0.218,0.765,0.461,0.45,-0.913,0.365,-0.183,rock
1.401758,0.04,0.975,0.219,0.485,0.728,0.485,-0.23,-0.951,0.207,0.746,-0.491,0.449,0.6,-0.0,-0.8,0.75,-0.206,0.629,-0.0,0.316,0.949,0.821,-0.25,0.514,0.667,0.667,-0.333,0.895,-0.008,0.446,-0.365,0.913,0.183,0.766,0.459,0.45,-0.97,0.243,-0.0,rock
1.445316,0.036,0.977,0.212,0.588,0.784,0.196,-0.211,-0.958,0.193,0.744,-0.491,0.453,0.6,-0.0,-0.8,0.747,-0.21,0.631,0.0,0.555,0.832,0.818,-0.25,0.518,0.802,0.535,-0.267,0.892,-0.008,0.452,-0.236,0.943,0.236,0.771,0.459,0.442,-0.8,0.6,0.0,rock
1.491126,0.036,0.978,0.205,0.365,0.913,0.183,-0.195,-0.955,0.223,0.739,-0.495,0.457,0.8,0.0,-0.6,0.745,-0.213,0.632,0.0,0.371,0.928,0.815,-0.254,0.521,0.8,0.6,0.0,0.89,-0.011,0.456,-0.0,0.949,0.316,0.77,0.462,0.44,-0.707,0.707,0.0,rock
1.528954,0.024,0.978,0.207,0.549,0.824,0.137,-0.195,-0.955,0.223,0.738,-0.498,0.455,0.928,-0.0,-0.371,0.744,-0.217,0.632,0.183,0.365,0.913,0.814,-0.258,0.52,0.784,0.588,0.196,0.89,-0.016,0.456,0.0,0.949,0.316,0.769,0.466,0.437,-0.408,0.816,0.408,rock
1.575388,0.032,0.977,0.211,0.442,0.885,0.147,-0.186,-0.961,0.206,0.741,-0.495,0.453,0.928,0.0,-0.371,0.746,-0.215,0.631,0.169,0.507,0.845,0.818,-0.255,0.516,0.857,0.514,0.0,0.892,-0.012,0.451,0.0,0.949,0.316,0.765,0.464,0.446,-0.667,0.667,0.333,rock
1.615081,0.036,0.979,0.2,0.442,0.885,0.147,-0.195,-0.958,0.211,0.741,-0.492,0.456,0.87,0.348,-0.348,0.742,-0.212,0.636,-0.0,0.707,0.707,0.817,-0.25,0.52,0.625,0.781,-0.0,0.891,-0.009,0.455,-0.123,0.985,0.123,0.769,0.46,0.443,-0.707,-0.0,0.707,rock
1.660562,0.044,0.978,0.203,0.781,0.625,0.0,-0.195,-0.958,0.211,0.74,-0.489,0.461,0.87,0.348,-0.348,0.74,-0.215,0.637,0.0,0.64,0.768,0.814,-0.248,0.525,0.707,0.707,-0.0,0.888,-0.006,0.46,-0.0,0.992,0.124,0.774,0.458,0.437,-0.667,-0.333,0.667,rock
1.698886,0.039,0.98,0.197,0.862,0.492,0.123,-0.195,-0.958,0.211,0.741,-0.487,0.463,0.816,0.408,-0.408,0.737,-0.211,0.642,0.14,0.7,0.7,0.812,-0.245,0.53,0.7,0.7,-0.14,0.884,-0.002,0.467,0.124,0.992,0.0,0.779,0.455,0.432,-0.555,0.0,0.832,rock
1.743818,0.04,0.98,0.193,0.241,0.843,0.482,-0.187,-0.959,0.215,0.738,-0.487,0.468,0.862,-0.123,-0.492,0.735,-0.211,0.645,0.514,0.514,0.686,0.811,-0.243,0.532,0.937,0.312,-0.156,0.884,-0.003,0.467,0.365,0.913,0.183,0.779,0.454,0.433,-0.426,0.64,0.64,rock
1.783103,0.04,0.98,0.196,0.384,0.768,0.512,-0.187,-0.959,0.215,0.738,-0.487,0.468,0.868,-0.0,-0.496,0.735,-0.212,0.645,0.457,0.457,0.762,0.812,-0.242,0.531,0.911,0.391,-0.13,0.886,-0.0,0.464,0.312,0.937,0.156,0.778,0.452,0.437,-0.408,0.408,0.816,rock
1.829144,0.047,0.984,0.171,0.623,0.778,0.078,-0.197,-0.954,0.225,0.728,-0.485,0.484,0.988,0.11,-0.11,0.722,-0.219,0.657,0.39,0.488,0.781,0.8,-0.242,0.55,0.83,0.518,0.207,0.874,0.002,0.486,0.389,0.874,0.291,0.794,0.446,0.413,0.365,0.183,0.913,rock
1.86939,0.043,0.986,0.159,0.265,0.927,0.265,-0.197,-0.954,0.225,0.723,-0.484,0.493,0.894,-0.447,-0.0,0.712,-0.222,0.666,0.707,-0.0,0.707,0.791,-0.24,0.562,0.946,-0.079,0.315,0.866,0.002,0.499,0.815,0.362,0.453,0.803,0.444,0.397,0.398,0.697,0.597,rock
1.90965,0.051,0.988,0.145,-0.045,0.948,0.316,-0.197,-0.954,0.225,0.717,-0.477,0.509,0.837,-0.523,0.157,0.702,-0.217,0.678,0.677,-0.104,0.729,0.788,-0.23,0.57,0.894,-0.158,0.42,0.863,0.015,0.505,0.793,0.226,0.566,0.811,0.429,0.399,0.552,0.674,0.491,rock
1.949639,0.071,0.989,0.132,0.168,0.976,0.135,-0.197,-0.954,0.225,0.72,-0.463,0.517,0.811,-0.487,0.324,0.696,-0.207,0.687,0.659,-0.155,0.736,0.786,-0.215,0.58,0.851,-0.155,0.503,0.856,0.028,0.515,0.794,0.167,0.585,0.82,0.418,0.391,0.644,0.601,0.472,rock
1.995957,0.086,0.99,0.108,0.146,0.97,0.194,-0.197,-0.954,0.225,0.711,-0.45,0.54,0.805,-0.46,0.374,0.678,-0.203,0.706,0.687,-0.137,0.714,0.777,-0.199,0.597,0.845,-0.136,0.518,0.847,0.045,0.53,0.81,0.203,0.55,0.835,0.399,0.38,0.728,0.485,0.485,rock
2.033466,0.095,0.991,0.095,0.22,0.962,0.16,-0.197,-0.954,0.225,0.709,-0.441,0.551,0.822,-0.443,0.358,0.666,-0.204,0.718,0.722,-0.124,0.681,0.765,-0.195,0.614,0.857,-0.163,0.489,0.831,0.047,0.555,0.85,0.128,0.51,0.85,0.395,0.348,0.694,0.498,0.52,rock
2.07957,0.082,0.992,0.093,-0.026,0.939,0.344,-0.205,-0.944,0.26,0.701,-0.446,0.557,0.772,-0.575,0.272,0.662,-0.211,0.719,0.79,-0.243,0.562,0.763,-0.196,0.616,0.841,-0.3,0.45,0.832,0.048,0.552,0.884,-0.031,0.466,0.848,0.393,0.356,0.631,0.6,0.492,rock
2.119117,0.079,0.993,0.086,-0.026,0.939,0.344,-0.225,-0.93,0.292,0.694,-0.452,0.561,0.791,-0.497,0.357,0.66,-0.219,0.719,0.756,-0.176,0.63,0.759,-0.201,0.62,0.837,-0.225,0.499,0.831,0.043,0.554,0.866,0.051,0.497,0.848,0.396,0.352,0.699,0.518,0.492,rock
2.163612,0.054,0.996,0.073,0.119,0.964,0.238,-0.241,-0.928,0.284,0.682,-0.464,0.564,0.785,-0.488,0.382,0.652,-0.239,0.72,0.753,-0.17,0.636,0.745,-0.216,0.63,0.832,-0.218,0.51,0.82,0.025,0.572,0.864,0.053,0.501,0.851,0.411,0.327,0.716,0.499,0.488,rock
2.201914,0.058,0.997,0.057,0.129,0.962,0.241,-0.241,-0.928,0.284,0.673,-0.465,0.575,0.79,-0.477,0.386,0.642,-0.245,0.727,0.755,-0.155,0.637,0.736,-0.22,0.64,0.836,-0.198,0.512,0.811,0.021,0.584,0.865,0.064,0.497,0.855,0.415,0.312,0.721,0.481,0.499,rock
2.243633,0.089,0.996,0.03,0.111,0.936,0.334,-0.241,-0.928,0.284,0.678,-0.442,0.587,0.806,-0.506,0.308,0.632,-0.225,0.741,0.811,-0.173,0.559,0.732,-0.199,0.652,0.863,-0.257,0.435,0.802,0.04,0.597,0.907,-0.0,0.422,0.865,0.403,0.299,0.65,0.529,0.545,rock
2.2827,0.064,0.998,0.011,0.014,0.908,0.419,-0.241,-0.928,0.284,0.671,-0.439,0.598,0.791,-0.562,0.244,0.626,-0.218,0.748,0.847,-0.214,0.486,0.735,-0.184,0.653,0.864,-0.322,0.388,0.807,0.057,0.588,0.918,-0.075,0.388,0.865,0.388,0.319,0.597,0.589,0.545,rock
2.328717,0.027,0.999,0.027,0.021,0.918,0.396,-0.311,-0.889,0.336,0.659,-0.463,0.593,0.811,-0.487,0.324,0.63,-0.246,0.737,0.807,-0.147,0.572,0.731,-0.21,0.649,0.864,-0.225,0.45,0.808,0.03,0.588,0.901,0.037,0.432,0.855,0.411,0.317,0.675,0.495,0.547,rock
2.366265,0.055,0.995,0.083,0.15,0.942,0.3,-0.311,-0.889,0.336,0.687,-0.468,0.556,0.816,-0.481,0.321,0.662,-0.236,0.711,0.81,-0.145,0.568,0.751,-0.226,0.621,0.869,-0.233,0.438,0.825,0.013,0.565,0.906,0.028,0.422,0.839,0.431,0.331,0.663,0.501,0.557,rock
2.408792,0.079,0.988,0.131,0.11,0.933,0.343,-0.337,-0.87,0.359,0.734,-0.448,0.51,0.812,-0.524,0.256,0.705,-0.188,0.684,0.845,-0.177,0.504,0.794,-0.207,0.571,0.876,-0.285,0.389,0.86,0.031,0.51,0.924,-0.04,0.379,0.816,0.428,0.389,0.606,0.553,0.572,rock
2.454721,0.078,0.988,0.132,0.006,0.891,0.455,-0.376,-0.852,0.365,0.736,-0.454,0.502,0.779,-0.584,0.227,0.713,-0.183,0.677,0.853,-0.241,0.462,0.81,-0.196,0.552,0.855,-0.356,0.376,0.878,0.052,0.475,0.918,-0.113,0.379,0.807,0.403,0.432,0.583,0.616,0.53,rock
2.499403,0.004,0.991,0.134,0.152,0.973,0.172,-0.398,-0.852,0.34,0.698,-0.503,0.509,0.785,-0.467,0.406,0.704,-0.248,0.665,0.753,-0.155,0.639,0.782,-0.263,0.564,0.832,-0.193,0.519,0.866,-0.024,0.5,0.862,0.075,0.502,0.789,0.473,0.392,0.741,0.446,0.501,rock
2.538375,0.001,0.994,0.11,0.161,0.933,0.321,-0.398,-0.852,0.34,0.677,-0.516,0.525,0.818,-0.477,0.322,0.678,-0.295,0.674,0.812,-0.142,0.566,0.73,-0.3,0.615,0.869,-0.231,0.438,0.812,-0.072,0.579,0.91,0.025,0.415,0.823,0.496,0.276,0.659,0.503,0.559,rock
2.582429,0.03,0.989,0.142,0.161,0.933,0.321,-0.465,-0.814,0.347,0.693,-0.524,0.496,0.771,-0.599,0.214,0.71,-0.274,0.648,0.863,-0.255,0.437,0.769,-0.289,0.57,0.851,-0.382,0.361,0.856,-0.049,0.515,0.923,-0.142,0.359,0.803,0.483,0.35,0.564,0.632,0.532,rock
2.620721,0.009,0.966,0.257,-0.005,0.937,0.349,-0.465,-0.814,0.347,0.744,-0.519,0.422,0.768,-0.569,0.295,0.781,-0.21,0.589,0.821,-0.236,0.52,0.85,-0.264,0.456,0.841,-0.319,0.437,0.931,-0.021,0.365,0.897,-0.066,0.437,0.698,0.486,0.526,0.648,0.571,0.505,rock
2.665361,-0.007,0.988,0.154,-0.005,0.937,0.349,-0.514,-0.809,0.287,0.699,-0.528,0.482,0.799,-0.358,0.483,0.729,-0.257,0.635,0.691,-0.059,0.72,0.8,-0.279,0.531,0.817,-0.07,0.572,0.887,-0.034,0.46,0.823,0.195,0.533,0.757,0.487,0.435,0.811,0.321,0.49,rock
2.705427,-0.006,0.999,0.045,0.36,0.932,0.044,-0.514,-0.809,0.287,0.644,-0.536,0.546,0.8,-0.31,0.513,0.649,-0.326,0.688,0.67,-0.028,0.742,0.7,-0.308,0.644,0.814,-0.038,0.579,0.784,-0.074,0.617,0.812,0.222,0.54,0.842,0.487,0.235,0.821,0.3,0.487,rock
2.748036,0.019,0.997,0.077,0.079,0.958,0.274,-0.514,-0.809,0.287,0.661,-0.537,0.524,0.779,-0.493,0.387,0.669,-0.318,0.671,0.773,-0.179,0.609,0.724,-0.315,0.614,0.833,-0.238,0.5,0.811,-0.081,0.579,0.876,0.01,0.482,0.823,0.5,0.27,0.71,0.507,0.488,rock
2.792807,0.004,0.966,0.258,0.03,0.949,0.315,-0.581,-0.762,0.287,0.738,-0.531,0.416,0.775,-0.529,0.346,0.777,-0.24,0.582,0.799,-0.209,0.563,0.827,-0.303,0.474,0.836,-0.279,0.472,0.909,-0.071,0.41,0.888,-0.032,0.458,0.719,0.529,0.45,0.681,0.534,0.501,rock
2.837024,-0.012,0.975,0.222,0.137,0.956,0.26,-0.581,-0.762,0.287,0.73,-0.541,0.418,0.794,-0.471,0.385,0.775,-0.245,0.582,0.775,-0.153,0.613,0.827,-0.302,0.474,0.842,-0.208,0.497,0.913,-0.066,0.403,0.879,0.048,0.474,0.716,0.523,0.462,0.725,0.462,0.511,rock
2.875847,-0.043,0.99,0.133,0.137,0.956,0.26,-0.609,-0.758,0.234,0.668,-0.571,0.477,0.798,-0.416,0.435,0.715,-0.321,0.621,0.738,-0.116,0.665,0.759,-0.34,0.555,0.83,-0.152,0.536,0.854,-0.105,0.51,0.855,0.111,0.507,0.774,0.535,0.338,0.767,0.405,0.498,rock
2.920164,-0.088,0.989,0.123,0.164,0.968,0.189,-0.618,-0.745,0.249,0.631,-0.61,0.479,0.782,-0.432,0.45,0.695,-0.382,0.609,0.731,-0.134,0.669,0.717,-0.393,0.575,0.82,-0.162,0.548,0.821,-0.162,0.547,0.85,0.094,0.519,0.774,0.573,0.271,0.773,0.418,0.477,rock
2.961143,-0.13,0.973,0.19,0.105,0.973,0.206,-0.643,-0.74,0.197,0.643,-0.632,0.432,0.767,-0.46,0.447,0.731,-0.379,0.567,0.73,-0.166,0.663,0.743,-0.414,0.526,0.81,-0.193,0.554,0.853,-0.184,0.488,0.845,0.059,0.531,0.723,0.608,0.327,0.765,0.451,0.46,rock
3.000438,-0.135,0.975,0.178,0.151,0.972,0.18,-0.643,-0.74,0.197,0.642,-0.637,0.426,0.77,-0.44,0.461,0.735,-0.383,0.56,0.722,-0.148,0.676,0.743,-0.422,0.52,0.81,-0.17,0.561,0.852,-0.196,0.485,0.842,0.085,0.533,0.716,0.619,0.322,0.774,0.426,0.469,rock
3.044659,-0.145,0.974,0.174,0.135,0.974,0.18,-0.653,-0.739,0.164,0.636,-0.647,0.42,0.762,-0.434,0.481,0.74,-0.384,0.553,0.706,-0.148,0.693,0.751,-0.423,0.508,0.798,-0.163,0.581,0.863,-0.193,0.467,0.828,0.093,0.552,0.704,0.621,0.345,0.794,0.414,0.445,rock
3.087134,-0.151,0.973,0.172,0.149,0.979,0.141,-0.68,-0.721,0.136,0.639,-0.634,0.436,0.757,-0.374,0.537,0.731,-0.375,0.57,0.658,-0.109,0.745,0.746,-0.409,0.525,0.779,-0.095,0.62,0.856,-0.182,0.484,0.795,0.162,0.585,0.717,0.611,0.336,0.833,0.352,0.428,rock
3.132477,-0.094,0.988,0.122,0.149,0.979,0.141,-0.669,-0.737,0.095,0.644,-0.607,0.466,0.759,-0.384,0.527,0.71,-0.364,0.603,0.666,-0.115,0.737,0.733,-0.387,0.558,0.783,-0.105,0.613,0.837,-0.159,0.524,0.803,0.151,0.577,0.75,0.586,0.305,0.826,0.361,0.433,rock
3.17403,-0.063,0.988,0.138,0.17,0.973,0.153,-0.669,-0.737,0.095,0.68,-0.571,0.46,0.77,-0.403,0.495,0.731,-0.308,0.609,0.693,-0.119,0.711,0.771,-0.342,0.537,0.803,-0.126,0.582,0.864,-0.113,0.491,0.826,0.124,0.55,0.747,0.56,0.358,0.802,0.391,0.452,rock
3.217144,-0.032,0.986,0.165,0.152,0.971,0.186,-0.669,-0.737,0.095,0.711,-0.544,0.446,0.772,-0.421,0.476,0.749,-0.258,0.61,0.706,-0.129,0.696,0.804,-0.299,0.513,0.808,-0.143,0.572,0.89,-0.064,0.451,0.831,0.11,0.546,0.739,0.527,0.42,0.79,0.408,0.459,rock
3.261655,-0.081,0.988,0.128,0.218,0.974,0.056,-0.65,-0.76,0.031,0.679,-0.562,0.474,0.752,-0.356,0.554,0.721,-0.296,0.626,0.631,-0.095,0.77,0.776,-0.315,0.546,0.769,-0.066,0.636,0.869,-0.078,0.489,0.773,0.197,0.603,0.758,0.529,0.383,0.855,0.318,0.41,rock
3.300174,-0.089,0.989,0.122,0.247,0.969,0.006,-0.65,-0.76,0.031,0.661,-0.572,0.486,0.738,-0.337,0.585,0.702,-0.324,0.634,0.601,-0.088,0.794,0.742,-0.341,0.577,0.753,-0.052,0.656,0.836,-0.107,0.538,0.756,0.205,0.621,0.779,0.539,0.32,0.866,0.313,0.391,rock
3.3445,-0.007,0.987,0.162,0.247,0.969,0.006,-0.635,-0.773,-0.006,0.702,-0.537,0.467,0.727,-0.42,0.544,0.728,-0.271,0.629,0.64,-0.159,0.752,0.781,-0.302,0.546,0.758,-0.139,0.637,0.866,-0.063,0.496,0.78,0.118,0.615,0.775,0.508,0.376,0.832,0.398,0.386,rock
3.384406,0.099,0.969,0.227,0.101,0.988,0.113,-0.635,-0.773,-0.006,0.77,-0.466,0.436,0.721,-0.448,0.529,0.767,-0.167,0.619,0.651,-0.184,0.737,0.843,-0.223,0.49,0.76,-0.17,0.627,0.907,0.015,0.421,0.786,0.087,0.612,0.75,0.455,0.48,0.82,0.426,0.382,rock
3.429633,0.118,0.968,0.221,0.174,0.974,0.143,-0.623,-0.78,-0.054,0.807,-0.412,0.422,0.751,-0.426,0.505,0.778,-0.098,0.621,0.67,-0.15,0.727,0.872,-0.167,0.46,0.783,-0.142,0.605,0.924,0.065,0.377,0.802,0.124,0.584,0.728,0.425,0.538,0.809,0.412,0.419,rock
3.468507,0.092,0.97,0.226,0.22,0.958,0.185,-0.612,-0.789,-0.047,0.806,-0.419,0.418,0.816,-0.376,0.44,0.78,-0.107,0.617,0.714,-0.072,0.696,0.869,-0.18,0.461,0.84,-0.099,0.533,0.922,0.051,0.383,0.842,0.176,0.509,0.727,0.436,0.531,0.772,0.372,0.515,rock
3.515015,-0.017,0.965,0.261,0.191,0.872,0.45,-0.612,-0.789,-0.047,0.783,-0.494,0.379,0.873,-0.417,0.253,0.8,-0.178,0.573,0.827,-0.051,0.56,0.856,-0.261,0.446,0.913,-0.167,0.373,0.924,-0.03,0.38,0.923,0.106,0.369,0.702,0.501,0.507,0.623,0.474,0.623,rock
3.552427,-0.112,0.948,0.299,0.191,0.872,0.45,-0.611,-0.787,-0.087,0.745,-0.568,0.35,0.921,-0.365,0.134,0.81,-0.254,0.529,0.86,0.039,0.508,0.84,-0.342,0.42,0.963,-0.096,0.25,0.927,-0.117,0.358,0.951,0.186,0.248,0.644,0.574,0.505,0.522,0.439,0.731,rock
3.598771,-0.114,0.951,0.288,0.281,0.409,0.868,-0.605,-0.79,-0.103,0.728,-0.599,0.333,0.84,-0.384,-0.384,0.806,-0.298,0.512,0.998,0.053,-0.026,0.808,-0.391,0.441,0.928,-0.276,-0.251,0.901,-0.164,0.401,0.956,-0.084,-0.281,0.681,0.599,0.421,-0.074,0.57,0.818,rock
3.638421,-0.065,0.936,0.346,0.281,0.409,0.868,-0.628,-0.773,-0.09,0.761,-0.575,0.3,0.3,-0.664,-0.685,0.841,-0.237,0.486,0.733,-0.416,-0.538,0.862,-0.341,0.374,0.447,-0.729,-0.518,0.948,-0.105,0.302,0.521,-0.73,-0.443,0.634,0.551,0.542,-0.496,0.797,0.345,rock
3.681401,-0.021,0.904,0.428,-0.552,-0.829,0.092,-0.628,-0.773,-0.09,0.809,-0.543,0.226,-0.48,-0.087,-0.873,0.89,-0.165,0.426,-0.484,-0.161,-0.86,0.915,-0.305,0.265,-0.619,-0.19,-0.762,0.983,-0.072,0.172,-0.766,-0.287,-0.575,0.532,0.524,0.665,-0.93,0.116,-0.349,rock
3.726517,-0.03,0.87,0.492,0.0,-0.894,-0.447,-0.63,-0.772,-0.085,0.836,-0.526,0.156,-0.768,0.478,-0.427,0.916,-0.14,0.375,-0.84,0.171,-0.514,0.921,-0.319,0.223,-0.834,0.267,-0.484,0.983,-0.101,0.155,-0.914,0.064,-0.401,0.502,0.556,0.662,-0.746,-0.412,-0.523,rock
3.772387,-0.013,0.911,0.411,-0.102,-0.942,-0.318,-0.625,-0.78,-0.029,0.822,-0.524,0.222,-0.71,0.513,-0.483,0.886,-0.162,0.434,-0.757,0.239,-0.608,0.9,-0.319,0.296,-0.768,0.279,-0.576,0.966,-0.099,0.237,-0.852,0.057,-0.521,0.572,0.559,0.6,-0.78,-0.461,-0.423,rock
3.810046,0.001,0.94,0.342,-0.102,-0.942,-0.318,-0.638,-0.768,-0.063,0.799,-0.532,0.28,-0.685,0.419,-0.596,0.854,-0.196,0.483,-0.661,0.188,-0.726,0.873,-0.323,0.365,-0.728,0.166,-0.665,0.945,-0.096,0.313,-0.791,-0.063,-0.609,0.641,0.552,0.533,-0.863,-0.35,-0.365,rock
3.853852,-0.026,0.948,0.316,-0.186,-0.983,-0.007,-0.65,-0.76,-0.011,0.781,-0.543,0.308,-0.677,0.373,-0.635,0.841,-0.209,0.499,-0.622,0.154,-0.768,0.869,-0.32,0.377,-0.712,0.115,-0.692,0.946,-0.089,0.313,-0.767,-0.115,-0.631,0.639,0.55,0.538,-0.885,-0.302,-0.355,rock
3.890909,-0.047,0.955,0.293,-0.186,-0.983,-0.007,-0.65,-0.76,-0.011,0.759,-0.559,0.335,-0.685,0.407,-0.605,0.821,-0.242,0.516,-0.647,0.18,-0.741,0.848,-0.336,0.411,-0.729,0.152,-0.668,0.93,-0.103,0.354,-0.785,-0.079,-0.615,0.668,0.557,0.493,-0.862,-0.35,-0.368,rock
3.931798,-0.045,0.964,0.261,-0.155,-0.985,-0.081,-0.654,-0.757,-0.01,0.737,-0.569,0.365,-0.703,0.384,-0.599,0.799,-0.267,0.539,-0.651,0.147,-0.745,0.826,-0.345,0.446,-0.743,0.126,-0.657,0.913,-0.112,0.392,-0.792,-0.103,-0.602,0.694,0.559,0.454,-0.864,-0.324,-0.386,rock
3.977587,-0.031,0.967,0.254,-0.169,-0.981,-0.093,-0.654,-0.757,-0.01,0.734,-0.559,0.385,-0.716,0.391,-0.578,0.789,-0.263,0.556,-0.668,0.15,-0.729,0.826,-0.33,0.457,-0.753,0.135,-0.644,0.913,-0.092,0.398,-0.804,-0.092,-0.587,0.706,0.542,0.456,-0.85,-0.341,-0.401,rock
4.02227,-0.003,0.978,0.208,-0.169,-0.981,-0.093,-0.676,-0.736,0.041,0.727,-0.544,0.418,-0.728,0.41,-0.55,0.767,-0.26,0.586,-0.696,0.152,-0.702,0.814,-0.311,0.49,-0.769,0.154,-0.62,0.897,-0.073,0.436,-0.824,-0.075,-0.562,0.74,0.521,0.426,-0.831,-0.36,-0.424,rock
4.061295,0.001,0.98,0.197,-0.165,-0.976,-0.139,-0.681,-0.726,0.096,0.729,-0.522,0.443,-0.737,0.403,-0.543,0.752,-0.243,0.612,-0.7,0.141,-0.7,0.81,-0.286,0.512,-0.776,0.148,-0.613,0.889,-0.048,0.456,-0.829,-0.085,-0.553,0.763,0.496,0.415,-0.829,-0.354,-0.433,rock
4.105263,0.048,0.982,0.181,-0.185,-0.973,-0.136,-0.68,-0.725,0.11,0.736,-0.501,0.455,-0.743,0.393,-0.541,0.747,-0.223,0.626,-0.704,0.132,-0.698,0.814,-0.262,0.517,-0.783,0.139,-0.606,0.891,-0.023,0.454,-0.833,-0.092,-0.546,0.772,0.474,0.424,-0.83,-0.343,-0.439,rock
4.147475,0.052,0.979,0.195,-0.181,-0.974,-0.137,-0.68,-0.721,0.133,0.749,-0.499,0.436,-0.751,0.381,-0.539,0.762,-0.21,0.613,-0.702,0.115,-0.702,0.826,-0.26,0.5,-0.787,0.123,-0.605,0.901,-0.02,0.434,-0.833,-0.107,-0.543,0.759,0.476,0.444,-0.829,-0.332,-0.449,rock
4.193527,-0.007,0.966,0.257,-0.199,-0.968,-0.156,-0.67,-0.73,0.139,0.759,-0.519,0.393,-0.756,0.383,-0.53,0.791,-0.214,0.573,-0.71,0.117,-0.694,0.842,-0.286,0.458,-0.793,0.13,-0.596,0.917,-0.052,0.395,-0.838,-0.104,-0.536,0.714,0.513,0.477,-0.824,-0.335,-0.458,rock
4.238019,-0.037,0.971,0.235,-0.163,-0.971,-0.173,-0.67,-0.73,0.139,0.739,-0.543,0.398,-0.754,0.416,-0.509,0.785,-0.243,0.569,-0.729,0.143,-0.67,0.83,-0.312,0.462,-0.795,0.164,-0.583,0.913,-0.079,0.401,-0.847,-0.063,-0.528,0.699,0.538,0.47,-0.806,-0.384,-0.451,rock
4.276995,-0.028,0.99,0.136,-0.074,-0.982,-0.175,-0.67,-0.73,0.139,0.7,-0.546,0.461,-0.724,0.456,-0.517,0.73,-0.287,0.62,-0.715,0.189,-0.673,0.771,-0.325,0.548,-0.771,0.2,-0.604,0.856,-0.097,0.508,-0.831,-0.028,-0.556,0.769,0.538,0.346,-0.812,-0.408,-0.418,rock
4.321651,-0.048,0.996,0.082,-0.131,-0.987,-0.098,-0.658,-0.715,0.236,0.663,-0.554,0.503,-0.707,0.365,-0.606,0.688,-0.32,0.651,-0.638,0.127,-0.76,0.736,-0.327,0.593,-0.738,0.099,-0.667,0.827,-0.092,0.555,-0.779,-0.134,-0.612,0.802,0.522,0.292,-0.875,-0.3,-0.38,rock
4.367138,-0.03,0.992,0.122,-0.245,-0.969,-0.02,-0.649,-0.72,0.246,0.675,-0.551,0.49,-0.726,0.334,-0.601,0.711,-0.292,0.639,-0.646,0.093,-0.758,0.772,-0.3,0.559,-0.754,0.072,-0.653,0.865,-0.056,0.499,-0.792,-0.158,-0.59,0.786,0.499,0.364,-0.868,-0.281,-0.41,rock
4.405074,-0.078,0.987,0.141,-0.203,-0.963,-0.175,-0.649,-0.72,0.246,0.67,-0.571,0.473,-0.766,0.395,-0.507,0.724,-0.306,0.618,-0.727,0.123,-0.675,0.78,-0.325,0.535,-0.805,0.148,-0.574,0.878,-0.085,0.472,-0.852,-0.084,-0.517,0.745,0.538,0.394,-0.803,-0.365,-0.471,rock
4.450629,-0.061,0.994,0.095,-0.146,-0.959,-0.242,-0.623,-0.722,0.301,0.655,-0.562,0.505,-0.757,0.471,-0.453,0.693,-0.321,0.646,-0.77,0.18,-0.612,0.74,-0.33,0.587,-0.811,0.226,-0.54,0.832,-0.099,0.546,-0.87,-0.004,-0.493,0.785,0.537,0.307,-0.763,-0.439,-0.475,rock
4.488176,-0.017,0.999,0.029,-0.146,-0.959,-0.242,-0.612,-0.735,0.292,0.635,-0.531,0.561,-0.764,0.436,-0.476,0.648,-0.31,0.696,-0.753,0.149,-0.641,0.714,-0.285,0.639,-0.811,0.19,-0.554,0.804,-0.051,0.592,-0.864,-0.044,-0.501,0.83,0.485,0.275,-0.782,-0.402,-0.477,rock
4.534326,0.004,1.0,-0.023,-0.13,-0.962,-0.238,-0.575,-0.752,0.323,0.621,-0.502,0.602,-0.763,0.481,-0.431,0.616,-0.296,0.73,-0.784,0.187,-0.592,0.705,-0.253,0.663,-0.817,0.247,-0.521,0.791,-0.018,0.611,-0.881,0.018,-0.472,0.849,0.456,0.268,-0.744,-0.457,-0.488,rock
4.573131,0.025,0.999,0.025,-0.098,-0.968,-0.229,-0.575,-0.752,0.323,0.649,-0.489,0.583,-0.754,0.476,-0.453,0.633,-0.277,0.723,-0.767,0.186,-0.614,0.713,-0.248,0.656,-0.806,0.229,-0.545,0.791,-0.016,0.612,-0.868,-0.005,-0.496,0.849,0.457,0.266,-0.768,-0.434,-0.471,rock
4.618516,0.021,0.996,0.082,-0.121,-0.974,-0.19,-0.546,-0.764,0.343,0.681,-0.491,0.543,-0.745,0.463,-0.481,0.677,-0.253,0.691,-0.745,0.182,-0.642,0.757,-0.248,0.604,-0.795,0.215,-0.567,0.838,-0.012,0.546,-0.856,-0.018,-0.517,0.816,0.467,0.339,-0.786,-0.421,-0.453,rock
4.657884,-0.007,0.994,0.113,-0.121,-0.975,-0.184,-0.546,-0.764,0.343,0.694,-0.514,0.505,-0.744,0.447,-0.496,0.703,-0.26,0.661,-0.737,0.168,-0.655,0.77,-0.276,0.575,-0.793,0.191,-0.579,0.852,-0.041,0.522,-0.849,-0.04,-0.527,0.797,0.494,0.348,-0.798,-0.401,-0.45,rock
4.703224,-0.043,0.993,0.108,-0.166,-0.969,-0.184,-0.484,-0.79,0.377,0.682,-0.539,0.495,-0.757,0.436,-0.487,0.712,-0.277,0.645,-0.742,0.159,-0.652,0.776,-0.292,0.56,-0.802,0.189,-0.567,0.865,-0.058,0.499,-0.856,-0.046,-0.515,0.771,0.515,0.374,-0.79,-0.399,-0.466,rock
4.742245,-0.041,0.997,0.066,-0.097,-0.967,-0.238,-0.464,-0.802,0.375,0.65,-0.543,0.531,-0.756,0.465,-0.46,0.674,-0.312,0.67,-0.761,0.178,-0.624,0.732,-0.303,0.61,-0.807,0.219,-0.548,0.822,-0.072,0.565,-0.866,-0.016,-0.5,0.807,0.512,0.295,-0.769,-0.431,-0.472,rock
4.787984,-0.044,0.999,-0.015,-0.131,-0.966,-0.225,-0.425,-0.833,0.354,0.608,-0.538,0.584,-0.762,0.452,-0.464,0.62,-0.337,0.709,-0.757,0.162,-0.633,0.684,-0.298,0.666,-0.809,0.204,-0.551,0.777,-0.069,0.626,-0.865,-0.029,-0.5,0.839,0.494,0.226,-0.773,-0.421,-0.474,rock
4.834126,-0.04,0.999,-0.014,-0.133,-0.966,-0.22,-0.366,-0.846,0.387,0.605,-0.539,0.586,-0.762,0.43,-0.484,0.619,-0.339,0.708,-0.745,0.144,-0.652,0.684,-0.3,0.664,-0.806,0.175,-0.565,0.779,-0.072,0.623,-0.858,-0.059,-0.511,0.833,0.501,0.234,-0.794,-0.386,-0.47,rock
4.872904,-0.096,0.994,0.045,-0.133,-0.966,-0.22,-0.362,-0.857,0.368,0.618,-0.561,0.551,-0.757,0.432,-0.491,0.651,-0.341,0.678,-0.737,0.154,-0.658,0.709,-0.324,0.626,-0.8,0.184,-0.571,0.808,-0.096,0.582,-0.852,-0.049,-0.52,0.797,0.537,0.276,-0.795,-0.397,-0.459,rock
4.917608,-0.098,0.995,0.026,-0.106,-0.973,-0.205,-0.362,-0.857,0.368,0.596,-0.585,0.551,-0.744,0.464,-0.48,0.644,-0.372,0.669,-0.746,0.181,-0.641,0.691,-0.351,0.632,-0.797,0.213,-0.565,0.794,-0.121,0.596,-0.857,-0.02,-0.516,0.801,0.546,0.246,-0.782,-0.425,-0.456,rock
4.957361,-0.083,0.996,0.014,-0.065,-0.972,-0.224,-0.289,-0.883,0.37,0.594,-0.575,0.563,-0.736,0.487,-0.47,0.63,-0.373,0.681,-0.749,0.206,-0.63,0.674,-0.346,0.653,-0.79,0.238,-0.565,0.775,-0.118,0.622,-0.855,0.004,-0.519,0.817,0.535,0.214,-0.777,-0.445,-0.445,rock
5.001757,-0.015,1.0,0.019,-0.137,-0.979,-0.154,-0.249,-0.896,0.368,0.619,-0.538,0.572,-0.735,0.446,-0.51,0.632,-0.332,0.7,-0.723,0.18,-0.667,0.697,-0.3,0.651,-0.782,0.193,-0.593,0.788,-0.066,0.611,-0.837,-0.038,-0.545,0.835,0.492,0.245,-0.805,-0.405,-0.434,rock
5.04725,0.008,1.0,0.004,-0.123,-0.979,-0.162,-0.219,-0.924,0.314,0.632,-0.509,0.584,-0.73,0.449,-0.515,0.631,-0.297,0.716,-0.719,0.185,-0.67,0.71,-0.266,0.652,-0.776,0.199,-0.598,0.797,-0.03,0.603,-0.836,-0.035,-0.548,0.846,0.464,0.261,-0.808,-0.408,-0.426,rock
5.084787,-0.011,1.0,0.024,-0.113,-0.979,-0.168,-0.219,-0.924,0.314,0.631,-0.521,0.574,-0.732,0.452,-0.51,0.638,-0.308,0.705,-0.719,0.187,-0.669,0.706,-0.281,0.65,-0.778,0.201,-0.595,0.795,-0.045,0.605,-0.838,-0.032,-0.545,0.843,0.473,0.256,-0.806,-0.407,-0.43,rock
5.126906,-0.003,0.997,0.075,-0.115,-0.979,-0.171,-0.168,-0.942,0.29,0.653,-0.525,0.546,-0.738,0.403,-0.542,0.659,-0.304,0.688,-0.7,0.14,-0.7,0.72,-0.288,0.631,-0.78,0.142,-0.61,0.805,-0.053,0.591,-0.829,-0.09,-0.552,0.838,0.478,0.265,-0.832,-0.345,-0.435,rock
5.164572,0.017,0.995,0.102,-0.265,-0.959,-0.1,-0.168,-0.942,0.29,0.67,-0.517,0.534,-0.763,0.347,-0.545,0.678,-0.274,0.682,-0.694,0.085,-0.714,0.753,-0.265,0.602,-0.791,0.093,-0.604,0.839,-0.02,0.544,-0.83,-0.143,-0.539,0.824,0.456,0.336,-0.835,-0.3,-0.462,rock
5.206772,0.042,0.994,0.103,-0.25,-0.958,-0.143,-0.122,-0.956,0.267,0.692,-0.502,0.52,-0.782,0.396,-0.481,0.694,-0.253,0.674,-0.751,0.112,-0.65,0.774,-0.252,0.58,-0.822,0.152,-0.549,0.855,-0.004,0.519,-0.87,-0.079,-0.487,0.818,0.446,0.365,-0.788,-0.365,-0.496,rock
5.25257,0.072,0.986,0.152,-0.203,-0.938,-0.282,-0.078,-0.96,0.267,0.724,-0.482,0.494,-0.807,0.406,-0.429,0.718,-0.216,0.662,-0.792,0.095,-0.603,0.801,-0.232,0.552,-0.851,0.159,-0.5,0.874,0.015,0.485,-0.898,-0.072,-0.435,0.8,0.436,0.413,-0.752,-0.371,-0.545,rock
5.297193,0.078,0.989,0.122,-0.124,-0.938,-0.322,-0.078,-0.96,0.267,0.725,-0.462,0.511,-0.8,0.454,-0.392,0.707,-0.203,0.677,-0.814,0.142,-0.563,0.796,-0.221,0.564,-0.849,0.225,-0.478,0.866,0.021,0.499,-0.905,-0.0,-0.425,0.805,0.434,0.404,-0.722,-0.436,-0.537,rock
5.335538,0.094,0.99,0.108,-0.098,-0.961,-0.257,-0.036,-0.99,0.139,0.717,-0.446,0.535,-0.772,0.464,-0.434,0.682,-0.205,0.703,-0.788,0.164,-0.594,0.773,-0.208,0.599,-0.821,0.226,-0.524,0.839,0.029,0.543,-0.882,-0.006,-0.471,0.835,0.422,0.355,-0.759,-0.427,-0.492,rock
5.380541,0.128,0.989,0.078,-0.152,-0.981,-0.119,-0.036,-0.99,0.139,0.715,-0.424,0.556,-0.729,0.436,-0.527,0.668,-0.185,0.721,-0.719,0.172,-0.673,0.775,-0.177,0.607,-0.774,0.181,-0.607,0.839,0.066,0.54,-0.837,-0.045,-0.545,0.846,0.384,0.37,-0.818,-0.38,-0.432,rock
5.426249,0.146,0.985,0.094,-0.081,-0.989,-0.125,-0.036,-0.992,0.117,0.727,-0.407,0.553,-0.696,0.454,-0.557,0.67,-0.163,0.724,-0.695,0.207,-0.688,0.782,-0.154,0.604,-0.749,0.196,-0.633,0.84,0.09,0.535,-0.817,-0.029,-0.576,0.854,0.36,0.375,-0.833,-0.388,-0.395,rock
5.464066,0.137,0.983,0.12,-0.136,-0.987,-0.08,-0.036,-0.992,0.117,0.743,-0.405,0.534,-0.69,0.442,-0.574,0.69,-0.144,0.71,-0.679,0.213,-0.703,0.804,-0.15,0.575,-0.739,0.192,-0.646,0.862,0.096,0.497,-0.81,-0.023,-0.586,0.83,0.364,0.423,-0.839,-0.389,-0.381,rock
5.506456,0.087,0.992,0.09,0.016,-0.978,-0.21,0.007,-0.996,0.089,0.718,-0.434,0.544,-0.673,0.523,-0.523,0.68,-0.18,0.711,-0.721,0.281,-0.633,0.789,-0.173,0.589,-0.742,0.284,-0.608,0.855,0.074,0.513,-0.829,0.07,-0.555,0.833,0.379,0.403,-0.788,-0.476,-0.39,rock
5.544136,-0.022,0.998,0.061,0.078,-0.949,-0.306,0.007,-0.996,0.089,0.653,-0.493,0.575,-0.637,0.661,-0.396,0.646,-0.268,0.715,-0.777,0.396,-0.489,0.735,-0.251,0.63,-0.725,0.455,-0.517,0.822,-0.017,0.569,-0.834,0.25,-0.493,0.824,0.463,0.326,-0.677,-0.639,-0.365,rock
5.589712,0.008,0.999,-0.039,0.246,-0.909,-0.335,0.018,-0.996,0.086,0.59,-0.496,0.637,-0.545,0.574,-0.611,0.552,-0.334,0.764,-0.618,0.386,-0.685,0.616,-0.267,0.741,-0.619,0.328,-0.713,0.694,-0.041,0.718,-0.726,0.113,-0.679,0.894,0.431,0.124,-0.846,-0.484,-0.223,rock
5.627092,0.005,0.999,-0.039,0.246,-0.909,-0.335,0.019,-0.999,0.049,0.627,-0.476,0.616,-0.562,0.184,-0.807,0.592,-0.272,0.759,-0.412,0.063,-0.909,0.69,-0.21,0.693,-0.579,-0.071,-0.812,0.77,0.034,0.637,-0.612,-0.29,-0.736,0.886,0.395,0.243,-0.973,-0.079,-0.218,rock
5.674331,0.009,0.995,0.099,-0.381,-0.922,0.07,-0.01,-0.999,0.051,0.676,-0.482,0.557,-0.721,0.471,-0.509,0.676,-0.22,0.704,-0.747,0.213,-0.63,0.793,-0.194,0.577,-0.782,0.248,-0.572,0.878,0.062,0.475,-0.859,0.038,-0.51,0.796,0.394,0.46,-0.771,-0.446,-0.455,rock
5.71199,0.004,0.996,0.085,0.178,-0.845,-0.504,-0.015,-1.0,0.024,0.675,-0.482,0.559,-0.673,0.705,-0.224,0.663,-0.242,0.708,-0.863,0.388,-0.325,0.756,-0.225,0.615,-0.772,0.525,-0.358,0.835,0.016,0.55,-0.885,0.326,-0.334,0.826,0.436,0.358,-0.538,-0.701,-0.468,rock
5.754974,0.082,0.997,-0.013,0.102,-0.918,-0.383,0.042,-0.998,0.039,0.657,-0.441,0.612,-0.682,0.673,-0.286,0.604,-0.237,0.761,-0.846,0.36,-0.394,0.702,-0.192,0.685,-0.778,0.469,-0.418,0.768,0.043,0.639,-0.883,0.264,-0.388,0.883,0.391,0.26,-0.616,-0.641,-0.458,rock
5.796696,0.132,0.988,-0.076,0.022,-0.961,-0.276,0.042,-0.998,0.039,0.639,-0.394,0.66,-0.692,0.61,-0.386,0.557,-0.21,0.803,-0.807,0.321,-0.496,0.681,-0.138,0.719,-0.772,0.396,-0.498,0.741,0.099,0.664,-0.873,0.173,-0.457,0.912,0.332,0.242,-0.703,-0.56,-0.438,rock
5.841783,0.079,0.997,0.0,-0.078,-0.988,-0.13,0.053,-0.999,-0.009,0.67,-0.407,0.621,-0.682,0.505,-0.529,0.604,-0.198,0.772,-0.736,0.253,-0.628,0.724,-0.151,0.673,-0.748,0.269,-0.607,0.789,0.087,0.608,-0.836,0.046,-0.546,0.88,0.362,0.307,-0.813,-0.423,-0.401,rock
5.887685,-0.037,0.997,0.066,-0.113,-0.989,-0.1,0.025,-1.0,-0.006,0.67,-0.476,0.57,-0.661,0.556,-0.504,0.651,-0.243,0.719,-0.736,0.315,-0.599,0.749,-0.222,0.624,-0.731,0.33,-0.597,0.831,0.014,0.555,-0.835,0.112,-0.539,0.824,0.445,0.351,-0.779,-0.496,-0.384,rock
5.925338,-0.068,0.997,0.044,0.073,-0.969,-0.238,0.025,-1.0,-0.006,0.625,-0.528,0.576,-0.672,0.577,-0.464,0.629,-0.314,0.711,-0.761,0.324,-0.562,0.703,-0.276,0.656,-0.748,0.355,-0.561,0.793,-0.039,0.608,-0.847,0.14,-0.512,0.844,0.464,0.268,-0.742,-0.538,-0.399,rock
5.965865,-0.064,0.998,0.016,0.037,-0.965,-0.26,0.036,-0.999,-0.007,0.592,-0.543,0.596,-0.748,0.561,-0.354,0.602,-0.345,0.72,-0.846,0.246,-0.472,0.678,-0.286,0.677,-0.825,0.353,-0.442,0.776,-0.042,0.629,-0.912,0.136,-0.388,0.858,0.453,0.242,-0.67,-0.525,-0.525,rock
6.008849,-0.011,1.0,0.008,0.031,-0.828,-0.559,0.036,-0.999,-0.007,0.611,-0.501,0.613,-0.8,0.566,-0.2,0.591,-0.31,0.745,-0.923,0.198,-0.33,0.671,-0.25,0.698,-0.876,0.377,-0.3,0.755,-0.012,0.656,-0.954,0.171,-0.247,0.878,0.425,0.22,-0.566,-0.544,-0.62,rock
6.049002,0.087,0.996,-0.015,-0.267,-0.844,-0.464,0.036,-0.999,-0.007,0.637,-0.433,0.637,-0.887,0.366,-0.282,0.581,-0.24,0.778,-0.9,0.014,-0.436,0.693,-0.174,0.7,-0.926,0.168,-0.337,0.764,0.067,0.642,-0.969,-0.027,-0.246,0.895,0.361,0.261,-0.651,-0.339,-0.679,rock
6.094456,0.135,0.99,-0.028,-0.177,-0.83,-0.53,0.036,-0.999,-0.007,0.66,-0.387,0.644,-0.874,0.429,-0.231,0.581,-0.186,0.792,-0.931,0.065,-0.359,0.717,-0.122,0.686,-0.927,0.248,-0.281,0.78,0.12,0.614,-0.98,0.063,-0.19,0.894,0.323,0.31,-0.597,-0.408,-0.691,rock
6.139018,0.051,0.999,0.014,-0.041,-0.819,-0.573,0.091,-0.99,-0.108,0.654,-0.433,0.62,-0.847,0.484,-0.222,0.599,-0.23,0.767,-0.942,0.118,-0.314,0.709,-0.181,0.681,-0.908,0.316,-0.276,0.78,0.056,0.623,-0.973,0.133,-0.191,0.878,0.382,0.287,-0.587,-0.436,-0.682,rock
6.177578,0.021,0.999,0.043,-0.148,-0.841,-0.52,0.124,-0.986,-0.108,0.648,-0.466,0.602,-0.852,0.439,-0.284,0.613,-0.262,0.746,-0.933,0.076,-0.353,0.707,-0.218,0.672,-0.913,0.261,-0.313,0.784,0.022,0.621,-0.978,0.073,-0.196,0.869,0.408,0.281,-0.644,-0.372,-0.669,rock
6.217421,0.071,0.997,0.029,-0.148,-0.841,-0.52,0.087,-0.988,-0.124,0.655,-0.449,0.608,-0.875,0.044,-0.481,0.608,-0.244,0.756,-0.835,-0.264,-0.483,0.71,-0.197,0.676,-0.904,-0.136,-0.407,0.782,0.046,0.622,-0.95,-0.259,-0.173,0.88,0.383,0.282,-0.76,0.076,-0.646,rock
6.260976,0.123,0.992,-0.028,-0.993,0.083,0.083,0.087,-0.988,-0.124,0.653,-0.406,0.639,-0.681,-0.596,-0.426,0.581,-0.208,0.787,-0.545,-0.818,-0.182,0.709,-0.144,0.69,-0.647,-0.755,-0.108,0.773,0.102,0.626,-0.808,-0.505,0.303,0.899,0.331,0.288,-0.553,0.553,-0.623,rock
6.300643,0.112,0.992,-0.065,-0.217,0.975,0.054,0.087,-0.988,-0.124,0.626,-0.396,0.671,0.513,-0.807,0.293,0.544,-0.218,0.81,0.404,-0.538,0.74,0.676,-0.136,0.724,0.595,-0.446,0.669,0.741,0.106,0.663,0.537,-0.0,0.844,0.916,0.318,0.243,0.504,0.864,0.0,rock
6.344746,0.07,0.995,-0.077,0.025,0.98,0.196,0.087,-0.988,-0.124,0.599,-0.415,0.685,0.726,-0.592,0.35,0.526,-0.253,0.812,0.689,-0.292,0.663,0.646,-0.161,0.746,0.785,-0.288,0.549,0.715,0.077,0.695,0.797,0.0,0.604,0.921,0.335,0.197,0.654,0.654,0.381,rock
6.390855,0.054,0.996,-0.065,0.036,0.96,0.276,0.087,-0.988,-0.124,0.587,-0.435,0.683,0.754,-0.562,0.34,0.525,-0.274,0.805,0.754,-0.246,0.609,0.639,-0.182,0.747,0.816,-0.286,0.501,0.713,0.055,0.699,0.856,-0.015,0.517,0.917,0.352,0.188,0.669,0.595,0.446,rock
6.429241,0.047,0.997,-0.062,0.036,0.96,0.276,0.082,-0.995,-0.049,0.589,-0.443,0.676,0.752,-0.564,0.343,0.535,-0.277,0.798,0.766,-0.252,0.591,0.646,-0.189,0.739,0.812,-0.303,0.498,0.723,0.049,0.689,0.861,-0.033,0.508,0.911,0.363,0.198,0.667,0.589,0.456,rock
6.47089,0.04,0.997,-0.067,0.036,0.96,0.276,0.111,-0.991,-0.069,0.585,-0.447,0.677,0.755,-0.543,0.368,0.536,-0.278,0.797,0.761,-0.227,0.607,0.649,-0.19,0.736,0.816,-0.269,0.511,0.728,0.048,0.684,0.861,-0.009,0.509,0.908,0.367,0.201,0.701,0.544,0.461,rock
6.517138,0.016,0.996,-0.093,0.101,0.967,0.232,0.082,-0.996,-0.02,0.567,-0.461,0.683,0.763,-0.491,0.421,0.521,-0.303,0.798,0.736,-0.186,0.651,0.628,-0.207,0.75,0.813,-0.22,0.539,0.71,0.029,0.703,0.848,0.039,0.529,0.909,0.379,0.171,0.739,0.495,0.456,rock
6.55996,-0.007,0.996,-0.083,0.108,0.972,0.209,0.103,-0.995,-0.012,0.56,-0.485,0.671,0.756,-0.486,0.439,0.529,-0.326,0.784,0.726,-0.195,0.659,0.626,-0.234,0.744,0.802,-0.219,0.556,0.714,-0.001,0.701,0.839,0.04,0.543,0.899,0.406,0.165,0.755,0.483,0.442,rock
6.603623,-0.037,0.997,-0.075,0.098,0.978,0.185,0.075,-0.997,-0.001,0.557,-0.503,0.66,0.748,-0.487,0.45,0.538,-0.342,0.771,0.718,-0.193,0.669,0.624,-0.257,0.738,0.797,-0.214,0.565,0.713,-0.025,0.701,0.832,0.043,0.553,0.889,0.43,0.159,0.764,0.471,0.44,rock
6.646191,-0.043,0.997,-0.066,0.095,0.977,0.19,0.072,-0.994,0.081,0.553,-0.527,0.645,0.732,-0.509,0.453,0.553,-0.36,0.751,0.717,-0.222,0.661,0.627,-0.285,0.725,0.786,-0.236,0.572,0.721,-0.056,0.69,0.83,0.017,0.557,0.87,0.464,0.167,0.762,0.491,0.423,rock
6.690835,-0.082,0.996,-0.022,0.062,0.977,0.206,0.024,-0.993,0.113,0.577,-0.549,0.605,0.731,-0.516,0.446,0.592,-0.363,0.72,0.723,-0.225,0.653,0.658,-0.311,0.686,0.789,-0.249,0.561,0.756,-0.082,0.649,0.835,0.005,0.55,0.841,0.5,0.208,0.754,0.499,0.428,rock
6.738728,-0.077,0.996,0.048,0.067,0.976,0.207,0.042,-0.986,0.162,0.606,-0.557,0.568,0.736,-0.512,0.443,0.63,-0.35,0.694,0.725,-0.222,0.651,0.69,-0.32,0.649,0.792,-0.241,0.561,0.79,-0.088,0.606,0.834,0.011,0.551,0.818,0.516,0.254,0.754,0.496,0.431,rock
6.77571,-0.055,0.996,0.067,0.058,0.974,0.221,0.042,-0.986,0.162,0.636,-0.545,0.547,0.736,-0.527,0.425,0.654,-0.323,0.684,0.736,-0.236,0.634,0.713,-0.306,0.631,0.793,-0.266,0.548,0.806,-0.074,0.587,0.843,-0.011,0.538,0.816,0.508,0.276,0.74,0.515,0.433,rock
6.820678,-0.016,0.999,0.039,0.0,0.968,0.251,-0.005,-0.978,0.209,0.646,-0.516,0.563,0.726,-0.555,0.407,0.65,-0.29,0.703,0.748,-0.259,0.611,0.726,-0.267,0.633,0.789,-0.294,0.539,0.814,-0.031,0.58,0.845,-0.044,0.533,0.828,0.475,0.299,0.72,0.546,0.428,rock
6.859531,-0.011,1.0,0.004,0.0,0.968,0.251,-0.029,-0.97,0.241,0.63,-0.504,0.591,0.726,-0.545,0.42,0.624,-0.291,0.725,0.738,-0.254,0.625,0.708,-0.254,0.659,0.788,-0.28,0.548,0.794,-0.02,0.607,0.84,-0.029,0.543,0.846,0.458,0.271,0.734,0.532,0.422,rock
6.906312,-0.04,0.999,-0.015,0.0,0.968,0.251,-0.058,-0.967,0.249,0.608,-0.515,0.605,0.726,-0.543,0.423,0.603,-0.318,0.732,0.733,-0.256,0.631,0.681,-0.271,0.681,0.784,-0.282,0.553,0.77,-0.04,0.636,0.838,-0.029,0.545,0.854,0.467,0.231,0.734,0.532,0.422,rock
6.944495,-0.085,0.996,0.008,-0.005,0.976,0.218,-0.058,-0.967,0.249,0.587,-0.553,0.592,0.702,-0.555,0.447,0.61,-0.351,0.71,0.709,-0.281,0.647,0.679,-0.305,0.667,0.762,-0.289,0.579,0.781,-0.071,0.621,0.818,-0.034,0.574,0.835,0.494,0.243,0.75,0.538,0.384,rock
6.990344,-0.07,0.997,0.037,0.113,0.983,0.143,-0.067,-0.963,0.26,0.596,-0.569,0.567,0.716,-0.504,0.483,0.62,-0.373,0.691,0.693,-0.231,0.683,0.663,-0.339,0.667,0.767,-0.234,0.597,0.759,-0.111,0.642,0.811,0.016,0.584,0.835,0.517,0.19,0.776,0.492,0.394,rock
7.027984,-0.078,0.993,0.086,0.113,0.983,0.143,-0.097,-0.958,0.269,0.628,-0.574,0.526,0.677,-0.593,0.436,0.671,-0.343,0.657,0.713,-0.32,0.624,0.725,-0.334,0.603,0.747,-0.332,0.576,0.828,-0.098,0.552,0.812,-0.085,0.578,0.789,0.533,0.305,0.734,0.575,0.362,rock
7.071024,-0.08,0.982,0.17,0.139,0.988,0.072,-0.097,-0.958,0.269,0.673,-0.567,0.475,0.7,-0.488,0.521,0.722,-0.305,0.621,0.658,-0.223,0.719,0.774,-0.333,0.539,0.745,-0.204,0.635,0.872,-0.1,0.48,0.783,0.056,0.62,0.741,0.551,0.384,0.813,0.452,0.366,rock
7.108809,-0.018,0.979,0.204,0.139,0.988,0.072,-0.134,-0.937,0.322,0.713,-0.547,0.438,0.718,-0.506,0.477,0.747,-0.277,0.604,0.696,-0.234,0.679,0.787,-0.326,0.524,0.768,-0.239,0.594,0.873,-0.097,0.478,0.813,0.018,0.582,0.755,0.542,0.37,0.775,0.493,0.396,rock
7.151712,0.014,0.963,0.268,-0.018,0.965,0.263,-0.162,-0.923,0.349,0.746,-0.532,0.401,0.708,-0.56,0.431,0.785,-0.227,0.577,0.718,-0.276,0.639,0.84,-0.288,0.46,0.769,-0.293,0.568,0.92,-0.048,0.389,0.823,-0.044,0.567,0.716,0.506,0.481,0.741,0.547,0.39,rock
7.190301,-0.028,0.969,0.246,-0.018,0.965,0.263,-0.187,-0.921,0.343,0.719,-0.553,0.422,0.681,-0.476,0.556,0.768,-0.26,0.586,0.623,-0.23,0.748,0.821,-0.309,0.481,0.726,-0.188,0.661,0.907,-0.067,0.416,0.753,0.073,0.654,0.723,0.518,0.457,0.838,0.433,0.331,rock
7.235924,-0.025,0.984,0.178,0.162,0.986,-0.031,-0.193,-0.923,0.333,0.7,-0.554,0.451,0.669,-0.415,0.617,0.737,-0.29,0.611,0.569,-0.198,0.798,0.779,-0.322,0.538,0.698,-0.133,0.704,0.865,-0.084,0.495,0.714,0.129,0.688,0.771,0.519,0.369,0.875,0.382,0.296,rock
7.27589,0.022,0.984,0.179,0.162,0.986,-0.031,-0.189,-0.906,0.378,0.719,-0.52,0.462,0.66,-0.423,0.621,0.739,-0.243,0.629,0.559,-0.201,0.804,0.803,-0.279,0.526,0.692,-0.125,0.711,0.885,-0.038,0.463,0.707,0.133,0.695,0.757,0.492,0.429,0.884,0.364,0.293,rock
7.320033,0.044,0.985,0.167,0.179,0.983,-0.037,-0.188,-0.911,0.367,0.72,-0.504,0.477,0.705,-0.34,0.622,0.725,-0.243,0.644,0.566,-0.107,0.817,0.786,-0.275,0.553,0.722,-0.05,0.691,0.861,-0.039,0.506,0.721,0.215,0.658,0.789,0.486,0.375,0.89,0.299,0.344,rock
7.360168,0.019,0.982,0.189,0.101,0.984,0.148,-0.213,-0.883,0.417,0.723,-0.515,0.46,0.732,-0.459,0.503,0.737,-0.253,0.627,0.676,-0.184,0.713,0.789,-0.293,0.54,0.773,-0.177,0.609,0.867,-0.062,0.494,0.805,0.074,0.588,0.773,0.509,0.378,0.799,0.44,0.409,rock
7.399791,-0.016,0.978,0.208,0.078,0.96,0.268,-0.213,-0.883,0.417,0.726,-0.525,0.445,0.772,-0.485,0.411,0.753,-0.251,0.608,0.753,-0.174,0.635,0.808,-0.299,0.507,0.825,-0.215,0.523,0.892,-0.068,0.448,0.86,0.044,0.508,0.738,0.523,0.427,0.736,0.476,0.482,rock
7.439442,-0.003,0.972,0.236,0.134,0.949,0.286,-0.265,-0.869,0.418,0.748,-0.525,0.406,0.807,-0.446,0.387,0.782,-0.226,0.581,0.764,-0.124,0.633,0.835,-0.291,0.467,0.849,-0.175,0.499,0.914,-0.055,0.401,0.875,0.086,0.477,0.714,0.517,0.473,0.734,0.438,0.519,rock
7.483246,-0.044,0.961,0.272,0.216,0.942,0.255,-0.265,-0.869,0.418,0.766,-0.529,0.367,0.843,-0.373,0.389,0.809,-0.205,0.551,0.753,-0.041,0.656,0.857,-0.293,0.424,0.87,-0.097,0.483,0.933,-0.061,0.355,0.872,0.174,0.457,0.666,0.532,0.522,0.746,0.373,0.551,rock
7.525581,-0.049,0.963,0.265,0.391,0.898,0.201,-0.265,-0.869,0.418,0.751,-0.546,0.372,0.891,-0.25,0.38,0.798,-0.239,0.554,0.731,0.086,0.677,0.836,-0.318,0.447,0.89,0.032,0.455,0.917,-0.086,0.39,0.856,0.307,0.417,0.686,0.545,0.482,0.747,0.26,0.611,rock
7.570048,-0.023,0.964,0.266,0.391,0.898,0.201,-0.353,-0.837,0.418,0.763,-0.536,0.363,0.928,-0.355,0.109,0.803,-0.228,0.551,0.896,0.041,0.441,0.836,-0.317,0.449,0.967,-0.124,0.221,0.913,-0.087,0.398,0.974,0.129,0.186,0.697,0.545,0.466,0.49,0.446,0.749,rock
7.609769,-0.003,0.952,0.307,0.044,0.645,0.763,-0.353,-0.837,0.418,0.781,-0.525,0.34,0.835,-0.504,-0.221,0.822,-0.199,0.534,0.991,-0.066,0.116,0.863,-0.296,0.409,0.934,-0.35,-0.067,0.936,-0.064,0.345,0.989,-0.141,-0.053,0.671,0.525,0.524,0.151,0.62,0.77,rock
7.655655,0.021,0.942,0.336,-0.019,0.401,0.916,-0.343,-0.805,0.484,0.815,-0.489,0.311,0.602,-0.374,-0.706,0.844,-0.139,0.518,0.893,0.047,-0.447,0.896,-0.255,0.364,0.693,-0.358,-0.626,0.959,-0.025,0.284,0.739,-0.271,-0.616,0.635,0.498,0.59,-0.458,0.523,0.719,rock
7.701444,0.045,0.957,0.286,0.059,-0.706,0.706,-0.343,-0.805,0.484,0.815,-0.471,0.336,0.059,0.078,-0.995,0.829,-0.128,0.545,0.219,0.262,-0.94,0.89,-0.232,0.391,0.02,-0.08,-0.997,0.949,0.002,0.314,-0.063,-0.167,-0.984,0.673,0.473,0.569,-0.939,0.056,0.338,rock
7.740422,0.025,0.972,0.233,-0.099,-0.919,0.382,-0.343,-0.805,0.484,0.783,-0.48,0.396,-0.353,0.265,-0.897,0.792,-0.159,0.59,-0.253,0.253,-0.934,0.864,-0.226,0.45,-0.386,0.045,-0.921,0.928,0.015,0.372,-0.479,-0.135,-0.868,0.716,0.459,0.526,-0.988,-0.155,-0.014,rock
7.786635,0.004,0.989,0.146,-0.101,-0.974,0.202,-0.387,-0.804,0.451,0.733,-0.493,0.469,-0.565,0.418,-0.712,0.733,-0.208,0.647,-0.549,0.257,-0.795,0.811,-0.237,0.535,-0.627,0.168,-0.761,0.885,0.005,0.465,-0.701,-0.034,-0.712,0.778,0.456,0.431,-0.913,-0.33,-0.242,rock
7.82421,0.024,0.994,0.105,-0.14,-0.99,-0.03,-0.387,-0.804,0.451,0.706,-0.476,0.524,-0.664,0.362,-0.654,0.689,-0.218,0.691,-0.617,0.154,-0.772,0.776,-0.221,0.59,-0.703,0.109,-0.703,0.85,0.024,0.526,-0.764,-0.109,-0.635,0.823,0.43,0.371,-0.897,-0.283,-0.341,rock
7.871182,0.082,0.995,-0.052,-0.208,-0.974,-0.085,-0.346,-0.812,0.47,0.654,-0.436,0.618,-0.735,0.367,-0.57,0.6,-0.223,0.768,-0.697,0.118,-0.707,0.713,-0.164,0.682,-0.77,0.125,-0.626,0.78,0.087,0.62,-0.829,-0.106,-0.549,0.896,0.347,0.275,-0.849,-0.302,-0.434,rock
7.910971,0.08,0.995,-0.063,-0.296,-0.937,-0.187,-0.336,-0.834,0.438,0.629,-0.407,0.662,-0.807,0.272,-0.524,0.555,-0.215,0.804,-0.732,-0.02,-0.681,0.682,-0.136,0.718,-0.829,0.03,-0.559,0.748,0.111,0.654,-0.864,-0.189,-0.467,0.916,0.322,0.239,-0.825,-0.213,-0.524,rock
7.953958,0.081,0.989,-0.124,-0.407,-0.874,-0.264,-0.336,-0.834,0.438,0.59,-0.399,0.702,-0.874,0.234,-0.427,0.513,-0.227,0.828,-0.794,-0.092,-0.601,0.653,-0.116,0.749,-0.89,0.01,-0.455,0.723,0.134,0.677,-0.914,-0.201,-0.352,0.934,0.285,0.214,-0.748,-0.207,-0.63,rock
7.992868,0.051,0.986,-0.159,-0.352,-0.818,-0.455,-0.301,-0.865,0.401,0.538,-0.415,0.734,-0.93,0.324,-0.173,0.466,-0.277,0.841,-0.929,-0.075,-0.363,0.596,-0.143,0.79,-0.966,0.141,-0.217,0.671,0.102,0.734,-0.99,-0.063,-0.126,0.948,0.29,0.131,-0.556,-0.325,-0.765,rock
8.037135,0.077,0.984,-0.158,-0.437,-0.533,-0.724,-0.301,-0.865,0.401,0.529,-0.4,0.748,-0.986,0.162,0.027,0.439,-0.278,0.855,-0.948,-0.26,-0.182,0.568,-0.137,0.811,-1.0,0.027,0.014,0.638,0.102,0.763,-0.984,-0.144,0.105,0.955,0.282,0.096,-0.393,-0.17,-0.904,rock
8.079889,0.112,0.976,-0.189,-0.601,-0.339,-0.724,-0.263,-0.885,0.386,0.536,-0.368,0.76,-0.921,0.018,0.39,0.434,-0.248,0.866,-0.899,-0.385,0.209,0.581,-0.106,0.807,-0.908,-0.0,0.419,0.646,0.136,0.751,-0.856,-0.082,0.51,0.96,0.252,0.118,-0.017,-0.067,-0.998,rock
8.125796,0.129,0.986,-0.103,-0.385,0.452,-0.804,-0.248,-0.892,0.377,0.591,-0.387,0.708,-0.523,-0.374,0.766,0.5,-0.234,0.834,-0.497,-0.613,0.613,0.635,-0.124,0.762,-0.449,-0.234,0.862,0.7,0.122,0.704,-0.387,-0.152,0.909,0.945,0.277,0.176,0.488,0.286,-0.825,rock
8.171635,0.065,0.998,0.027,-0.322,0.694,-0.644,-0.237,-0.884,0.402,0.637,-0.432,0.638,-0.183,-0.275,0.944,0.583,-0.23,0.78,-0.31,-0.43,0.848,0.708,-0.161,0.687,-0.148,-0.049,0.988,0.782,0.09,0.617,-0.143,0.083,0.986,0.893,0.338,0.296,0.79,0.16,-0.592,rock
8.210312,0.06,0.998,0.01,-0.028,0.654,-0.756,-0.203,-0.918,0.341,0.629,-0.453,0.632,-0.022,-0.232,0.972,0.576,-0.269,0.772,-0.194,-0.347,0.918,0.672,-0.204,0.711,0.011,0.011,1.0,0.744,0.037,0.667,0.0,0.163,0.987,0.902,0.376,0.213,0.882,0.149,-0.446,rock
8.255374,0.036,0.999,-0.021,-0.086,0.927,-0.366,-0.203,-0.918,0.341,0.596,-0.482,0.643,0.249,-0.406,0.879,0.563,-0.314,0.764,0.135,-0.388,0.912,0.65,-0.244,0.72,0.294,-0.127,0.947,0.732,-0.007,0.681,0.322,0.086,0.943,0.893,0.408,0.191,0.931,0.324,-0.17,rock
8.294701,0.035,0.998,0.055,-0.032,0.96,-0.277,-0.195,-0.916,0.35,0.646,-0.482,0.592,0.419,-0.517,0.747,0.62,-0.283,0.732,0.366,-0.4,0.84,0.698,-0.252,0.67,0.481,-0.23,0.846,0.776,-0.017,0.63,0.524,-0.0,0.851,0.862,0.441,0.249,0.889,0.458,0.021,rock
8.337178,0.048,0.996,0.073,-0.032,0.96,-0.277,-0.203,-0.913,0.355,0.666,-0.489,0.564,0.553,-0.54,0.634,0.652,-0.273,0.707,0.526,-0.353,0.774,0.728,-0.258,0.635,0.612,-0.263,0.746,0.807,-0.022,0.59,0.665,-0.019,0.746,0.84,0.456,0.295,0.846,0.501,0.182,rock
8.382252,-0.043,0.994,0.101,-0.005,0.998,0.07,-0.203,-0.913,0.355,0.649,-0.542,0.534,0.614,-0.541,0.575,0.669,-0.318,0.672,0.596,-0.323,0.735,0.722,-0.312,0.617,0.671,-0.264,0.693,0.814,-0.079,0.576,0.723,-0.022,0.69,0.813,0.507,0.287,0.82,0.511,0.258,rock
8.424531,-0.106,0.99,0.096,-0.02,0.997,0.081,-0.203,-0.913,0.355,0.603,-0.595,0.531,0.626,-0.546,0.557,0.653,-0.385,0.652,0.614,-0.315,0.724,0.689,-0.373,0.621,0.684,-0.269,0.678,0.794,-0.147,0.59,0.74,-0.016,0.672,0.786,0.564,0.254,0.812,0.512,0.28,rock
8.465006,-0.154,0.988,0.02,-0.01,0.998,0.069,-0.278,-0.886,0.371,0.544,-0.625,0.56,0.679,-0.541,0.497,0.601,-0.453,0.659,0.681,-0.282,0.676,0.613,-0.42,0.669,0.742,-0.275,0.612,0.724,-0.204,0.659,0.798,-0.024,0.602,0.796,0.589,0.138,0.77,0.525,0.363,rock
8.510724,-0.213,0.977,-0.026,-0.025,0.961,0.275,-0.338,-0.87,0.359,0.498,-0.651,0.573,0.71,-0.593,0.379,0.575,-0.49,0.655,0.763,-0.299,0.573,0.586,-0.444,0.678,0.784,-0.345,0.517,0.709,-0.233,0.666,0.853,-0.101,0.512,0.784,0.61,0.112,0.687,0.59,0.424,rock
8.549168,-0.216,0.976,-0.008,-0.025,0.961,0.275,-0.361,-0.844,0.396,0.516,-0.651,0.557,0.741,-0.562,0.366,0.605,-0.469,0.643,0.778,-0.255,0.574,0.625,-0.434,0.649,0.806,-0.312,0.502,0.751,-0.218,0.623,0.869,-0.065,0.49,0.766,0.618,0.174,0.693,0.555,0.46,rock
8.58858,-0.155,0.986,0.064,0.071,0.958,0.277,-0.361,-0.844,0.396,0.569,-0.635,0.523,0.758,-0.531,0.379,0.651,-0.424,0.63,0.776,-0.225,0.589,0.676,-0.409,0.612,0.816,-0.281,0.505,0.793,-0.186,0.58,0.87,-0.031,0.492,0.76,0.605,0.239,0.702,0.534,0.472,rock
8.634601,-0.116,0.985,0.128,0.067,0.96,0.272,-0.414,-0.816,0.403,0.642,-0.593,0.485,0.773,-0.503,0.387,0.706,-0.341,0.62,0.77,-0.189,0.61,0.748,-0.357,0.559,0.826,-0.24,0.509,0.851,-0.128,0.51,0.871,0.015,0.492,0.737,0.578,0.35,0.721,0.492,0.487,rock
8.679096,-0.065,0.992,0.111,0.136,0.96,0.245,-0.45,-0.82,0.354,0.657,-0.568,0.496,0.798,-0.426,0.426,0.699,-0.317,0.641,0.742,-0.12,0.66,0.75,-0.328,0.574,0.83,-0.162,0.534,0.845,-0.094,0.527,0.856,0.099,0.508,0.767,0.541,0.346,0.757,0.421,0.499,rock
8.718268,-0.072,0.989,0.127,0.175,0.958,0.228,-0.45,-0.82,0.354,0.669,-0.56,0.489,0.802,-0.434,0.41,0.704,-0.308,0.64,0.756,-0.118,0.644,0.749,-0.328,0.576,0.841,-0.169,0.514,0.841,-0.097,0.533,0.869,0.09,0.486,0.769,0.542,0.338,0.74,0.431,0.516,rock
8.762683,-0.028,0.989,0.148,0.145,0.948,0.284,-0.485,-0.785,0.386,0.692,-0.54,0.479,0.788,-0.528,0.317,0.715,-0.286,0.638,0.812,-0.192,0.551,0.762,-0.311,0.569,0.852,-0.278,0.444,0.846,-0.079,0.527,0.903,-0.025,0.429,0.779,0.525,0.343,0.655,0.541,0.528,rock
8.808915,0.004,0.995,0.103,-0.02,0.879,0.476,-0.485,-0.785,0.386,0.703,-0.497,0.509,0.782,-0.59,0.199,0.704,-0.242,0.667,0.867,-0.238,0.437,0.779,-0.256,0.573,0.862,-0.365,0.352,0.859,-0.023,0.512,0.93,-0.122,0.346,0.787,0.485,0.382,0.549,0.624,0.556,rock
8.846608,0.041,0.996,0.083,-0.02,0.879,0.476,-0.531,-0.769,0.357,0.714,-0.462,0.526,0.792,-0.597,0.13,0.691,-0.204,0.693,0.897,-0.232,0.376,0.784,-0.211,0.584,0.876,-0.391,0.282,0.854,0.027,0.519,0.945,-0.158,0.285,0.811,0.44,0.386,0.484,0.648,0.588,rock
8.892023,-0.028,0.994,0.107,-0.007,0.848,0.531,-0.568,-0.756,0.326,0.692,-0.496,0.525,0.769,-0.626,0.134,0.697,-0.232,0.678,0.884,-0.255,0.392,0.791,-0.235,0.564,0.862,-0.408,0.3,0.876,0.005,0.482,0.935,-0.151,0.321,0.773,0.46,0.437,0.496,0.655,0.571,rock
8.930059,-0.052,0.992,0.113,0.309,0.883,0.353,-0.594,-0.74,0.315,0.664,-0.533,0.524,0.864,-0.454,0.216,0.677,-0.293,0.675,0.856,-0.087,0.509,0.742,-0.291,0.604,0.914,-0.215,0.344,0.831,-0.057,0.554,0.942,0.055,0.332,0.803,0.496,0.329,0.585,0.495,0.642,rock
8.976271,-0.018,0.993,0.116,0.15,0.869,0.472,-0.593,-0.742,0.311,0.663,-0.532,0.527,0.852,-0.523,0.029,0.673,-0.307,0.673,0.942,-0.126,0.311,0.723,-0.31,0.617,0.93,-0.329,0.165,0.812,-0.081,0.578,0.982,-0.099,0.159,0.813,0.509,0.283,0.401,0.597,0.695,rock
9.015921,0.013,0.965,0.263,-0.149,0.657,0.739,-0.61,-0.723,0.324,0.751,-0.514,0.416,0.733,-0.658,-0.175,0.769,-0.221,0.6,0.963,-0.262,0.068,0.826,-0.279,0.49,0.844,-0.537,-0.0,0.902,-0.042,0.43,0.936,-0.35,0.026,0.742,0.5,0.447,0.184,0.763,0.62,rock
9.058072,0.001,0.929,0.37,-0.259,0.613,0.746,-0.648,-0.707,0.282,0.803,-0.505,0.318,0.714,-0.667,-0.211,0.848,-0.143,0.511,0.959,-0.279,0.049,0.908,-0.245,0.339,0.84,-0.543,-0.012,0.973,-0.004,0.229,0.939,-0.344,0.026,0.583,0.471,0.662,0.164,0.758,0.631,rock
9.102382,0.012,0.956,0.292,0.809,0.574,0.13,-0.661,-0.694,0.285,0.776,-0.51,0.372,0.99,-0.138,0.028,0.806,-0.187,0.561,0.815,0.281,0.506,0.864,-0.264,0.429,0.977,0.136,0.163,0.935,-0.022,0.355,0.873,0.466,0.145,0.696,0.48,0.534,0.466,0.155,0.871,rock
9.141933,0.063,0.984,0.167,0.862,0.505,-0.03,-0.655,-0.696,0.296,0.744,-0.486,0.457,0.983,-0.17,0.068,0.74,-0.212,0.638,0.774,0.269,0.572,0.808,-0.248,0.535,0.976,0.098,0.195,0.877,-0.005,0.48,0.881,0.423,0.211,0.789,0.452,0.416,0.491,0.264,0.83,rock
9.18533,0.102,0.982,0.156,0.05,0.777,0.627,-0.655,-0.696,0.296,0.764,-0.43,0.481,0.833,-0.537,-0.134,0.727,-0.154,0.669,0.95,-0.14,0.279,0.82,-0.183,0.542,0.933,-0.357,0.055,0.879,0.064,0.472,0.989,-0.09,0.12,0.81,0.392,0.435,0.229,0.688,0.688,rock
9.228271,0.179,0.959,0.222,-0.169,0.697,0.697,-0.655,-0.696,0.296,0.812,-0.384,0.44,0.679,-0.679,-0.281,0.761,-0.077,0.644,0.945,-0.323,0.05,0.869,-0.133,0.477,0.818,-0.57,-0.074,0.915,0.111,0.388,0.915,-0.404,0.0,0.77,0.362,0.526,0.024,0.835,0.549,rock
9.27429,0.148,0.949,0.277,-0.33,0.482,0.812,-0.68,-0.692,0.241,0.821,-0.394,0.414,0.557,-0.696,-0.453,0.784,-0.066,0.617,0.918,-0.376,-0.125,0.892,-0.131,0.434,0.725,-0.645,-0.242,0.937,0.117,0.329,0.831,-0.537,-0.147,0.728,0.352,0.589,-0.225,0.864,0.451,rock
9.313444,0.118,0.963,0.243,-0.33,0.482,0.812,-0.672,-0.701,0.24,0.79,-0.426,0.441,0.97,0.0,0.243,0.763,-0.117,0.636,-0.123,0.123,0.985,0.862,-0.164,0.48,0.469,0.625,0.625,0.917,0.089,0.389,-0.226,0.793,0.566,0.773,0.371,0.515,0.707,-0.0,-0.707,rock
9.359206,0.074,0.988,0.138,-0.229,0.42,-0.878,-0.688,-0.673,0.271,0.739,-0.454,0.498,-0.362,-0.0,0.932,0.716,-0.179,0.674,-0.566,-0.226,0.793,0.813,-0.189,0.551,-0.347,0.217,0.912,0.878,0.066,0.474,-0.442,0.295,0.847,0.814,0.382,0.437,0.533,-0.044,-0.845,rock
9.398915,0.077,0.991,0.113,-0.069,0.483,-0.873,-0.688,-0.673,0.271,0.714,-0.458,0.53,-0.297,-0.089,0.951,0.685,-0.205,0.699,-0.485,-0.291,0.825,0.779,-0.201,0.593,-0.272,0.136,0.953,0.85,0.048,0.525,-0.343,0.245,0.907,0.837,0.395,0.379,0.678,-0.028,-0.735,rock
9.443214,0.064,0.994,0.086,-0.167,0.585,-0.794,-0.688,-0.673,0.271,0.696,-0.456,0.554,-0.22,-0.196,0.955,0.664,-0.216,0.716,-0.394,-0.352,0.849,0.762,-0.196,0.617,-0.205,0.045,0.978,0.834,0.053,0.548,-0.234,0.17,0.957,0.851,0.388,0.353,0.727,0.094,-0.68,rock
9.48594,0.053,0.997,0.062,-0.184,0.607,-0.773,-0.688,-0.673,0.271,0.681,-0.453,0.576,-0.222,-0.222,0.949,0.646,-0.22,0.731,-0.372,-0.372,0.85,0.75,-0.191,0.634,-0.189,0.038,0.981,0.823,0.059,0.564,-0.214,0.161,0.964,0.858,0.383,0.342,0.742,0.098,-0.664,rock
9.52776,0.049,0.998,0.025,-0.09,0.617,-0.782,-0.638,-0.74,0.212,0.659,-0.454,0.6,-0.159,-0.177,0.971,0.619,-0.237,0.749,-0.357,-0.342,0.869,0.722,-0.196,0.664,-0.15,0.067,0.986,0.798,0.049,0.601,-0.189,0.205,0.96,0.871,0.388,0.3,0.795,0.035,-0.605,rock
9.569431,0.028,1.0,0.004,-0.088,0.674,-0.733,-0.638,-0.74,0.212,0.63,-0.462,0.624,-0.065,-0.196,0.978,0.592,-0.264,0.762,-0.277,-0.321,0.905,0.694,-0.209,0.689,-0.061,0.061,0.996,0.773,0.031,0.633,-0.089,0.207,0.974,0.88,0.397,0.261,0.847,0.064,-0.527,rock
9.612049,0.012,0.999,-0.041,-0.101,0.821,-0.562,-0.605,-0.768,0.211,0.609,-0.465,0.642,0.065,-0.325,0.943,0.566,-0.282,0.775,-0.104,-0.385,0.917,0.661,-0.216,0.719,0.092,-0.046,0.995,0.74,0.019,0.673,0.075,0.12,0.99,0.889,0.403,0.216,0.874,0.254,-0.413,rock
9.653913,-0.017,0.998,-0.067,-0.154,0.912,-0.379,-0.605,-0.768,0.211,0.582,-0.477,0.659,0.192,-0.464,0.865,0.546,-0.305,0.78,0.075,-0.434,0.898,0.641,-0.227,0.733,0.246,-0.169,0.954,0.726,0.006,0.687,0.242,0.061,0.968,0.889,0.413,0.2,0.894,0.367,-0.256,rock
9.698908,-0.049,0.996,-0.072,-0.054,0.93,-0.364,-0.603,-0.776,0.184,0.563,-0.499,0.659,0.318,-0.424,0.848,0.544,-0.332,0.771,0.17,-0.354,0.92,0.633,-0.253,0.732,0.344,-0.115,0.932,0.722,-0.02,0.691,0.34,0.113,0.934,0.881,0.433,0.19,0.917,0.37,-0.148,rock
9.744892,-0.017,1.0,0.021,0.013,0.936,-0.351,-0.609,-0.778,0.158,0.609,-0.501,0.616,0.468,-0.455,0.758,0.59,-0.31,0.746,0.339,-0.313,0.887,0.673,-0.257,0.694,0.505,-0.146,0.851,0.759,-0.022,0.651,0.503,0.093,0.86,0.863,0.446,0.237,0.905,0.425,0.027,rock
9.7831,0.019,0.999,0.049,-0.036,0.996,-0.083,-0.609,-0.778,0.158,0.642,-0.48,0.598,0.537,-0.498,0.681,0.616,-0.272,0.739,0.438,-0.325,0.838,0.709,-0.229,0.667,0.578,-0.201,0.791,0.789,0.01,0.614,0.582,0.063,0.81,0.86,0.423,0.286,0.875,0.47,0.118,rock
9.829924,0.062,0.998,-0.004,0.011,1.0,-0.011,-0.591,-0.787,0.176,0.651,-0.448,0.613,0.584,-0.525,0.619,0.603,-0.244,0.759,0.513,-0.319,0.797,0.706,-0.196,0.68,0.63,-0.225,0.743,0.779,0.042,0.626,0.653,0.034,0.756,0.875,0.397,0.278,0.848,0.495,0.189,rock
9.868101,0.047,0.999,-0.004,-0.041,0.998,0.051,-0.6,-0.792,0.116,0.65,-0.444,0.616,0.627,-0.583,0.517,0.603,-0.239,0.761,0.621,-0.338,0.708,0.708,-0.191,0.68,0.69,-0.302,0.658,0.781,0.045,0.623,0.734,-0.044,0.678,0.873,0.396,0.284,0.774,0.572,0.269,rock
9.911921,-0.047,0.998,0.051,-0.011,0.999,-0.042,-0.6,-0.792,0.116,0.626,-0.507,0.593,0.612,-0.514,0.601,0.622,-0.299,0.724,0.543,-0.288,0.789,0.708,-0.26,0.656,0.658,-0.212,0.722,0.8,-0.023,0.599,0.684,0.065,0.727,0.836,0.458,0.302,0.852,0.464,0.243,rock
9.951123,-0.039,0.996,0.077,0.159,0.971,0.177,-0.593,-0.801,0.081,0.63,-0.529,0.569,0.731,-0.507,0.458,0.625,-0.333,0.706,0.698,-0.229,0.679,0.675,-0.309,0.67,0.779,-0.238,0.58,0.762,-0.083,0.643,0.814,0.019,0.581,0.842,0.495,0.215,0.739,0.535,0.409,rock
9.995188,-0.051,0.996,0.079,-0.191,0.875,0.444,-0.593,-0.801,0.081,0.632,-0.544,0.552,0.691,-0.691,0.215,0.647,-0.334,0.685,0.823,-0.369,0.431,0.704,-0.316,0.636,0.792,-0.469,0.392,0.802,-0.083,0.591,0.879,-0.241,0.412,0.822,0.504,0.265,0.528,0.719,0.451,rock
10.039913,-0.072,0.979,0.189,-0.104,0.903,0.417,-0.609,-0.791,0.057,0.673,-0.561,0.483,0.727,-0.652,0.217,0.719,-0.302,0.626,0.838,-0.317,0.445,0.776,-0.323,0.542,0.816,-0.427,0.389,0.876,-0.085,0.474,0.894,-0.185,0.408,0.749,0.53,0.398,0.559,0.679,0.476,rock
10.079117,-0.088,0.965,0.248,0.119,0.951,0.285,-0.625,-0.777,0.078,0.695,-0.589,0.413,0.773,-0.526,0.354,0.764,-0.299,0.571,0.773,-0.206,0.6,0.806,-0.345,0.481,0.826,-0.262,0.499,0.905,-0.104,0.413,0.87,-0.0,0.493,0.701,0.549,0.454,0.702,0.524,0.482,rock
10.122865,-0.092,0.958,0.27,0.209,0.977,0.044,-0.625,-0.777,0.078,0.707,-0.595,0.381,0.765,-0.374,0.525,0.782,-0.302,0.546,0.64,-0.096,0.762,0.807,-0.369,0.461,0.782,-0.087,0.617,0.905,-0.132,0.405,0.782,0.187,0.595,0.684,0.574,0.45,0.834,0.357,0.421,rock
10.164625,-0.041,0.965,0.259,0.164,0.985,0.052,-0.608,-0.793,0.036,0.723,-0.568,0.394,0.738,-0.378,0.558,0.775,-0.282,0.565,0.609,-0.115,0.785,0.805,-0.342,0.484,0.759,-0.087,0.645,0.894,-0.102,0.437,0.758,0.187,0.624,0.725,0.54,0.427,0.852,0.352,0.389,rock
10.204055,0.03,0.966,0.258,0.118,0.986,0.118,-0.621,-0.783,0.036,0.76,-0.513,0.398,0.756,-0.436,0.489,0.784,-0.212,0.583,0.681,-0.157,0.716,0.835,-0.287,0.469,0.791,-0.156,0.591,0.911,-0.052,0.409,0.81,0.108,0.576,0.719,0.512,0.47,0.794,0.425,0.434,rock
10.247378,0.039,0.959,0.28,0.094,0.954,0.283,-0.621,-0.783,0.036,0.797,-0.491,0.352,0.793,-0.508,0.336,0.817,-0.168,0.551,0.785,-0.184,0.591,0.869,-0.268,0.416,0.849,-0.253,0.465,0.936,-0.039,0.349,0.881,0.01,0.472,0.683,0.508,0.525,0.673,0.534,0.512,rock
10.287953,-0.035,0.933,0.359,-0.012,0.894,0.447,-0.618,-0.785,0.036,0.788,-0.539,0.297,0.812,-0.55,0.196,0.849,-0.192,0.492,0.851,-0.186,0.492,0.881,-0.309,0.357,0.881,-0.307,0.36,0.956,-0.077,0.283,0.924,-0.056,0.378,0.608,0.541,0.582,0.563,0.605,0.563,rock
10.329382,-0.145,0.93,0.338,0.101,0.956,0.277,-0.604,-0.797,-0.001,0.749,-0.581,0.318,0.897,0.093,0.433,0.833,-0.245,0.496,0.46,0.374,0.805,0.858,-0.35,0.375,0.786,0.407,0.466,0.945,-0.126,0.301,0.559,0.736,0.383,0.583,0.588,0.56,0.767,-0.244,0.593,rock
10.374212,-0.095,0.973,0.209,0.933,-0.359,0.0,-0.604,-0.797,-0.001,0.699,-0.593,0.399,0.524,0.804,-0.28,0.758,-0.323,0.567,0.035,0.994,0.106,0.769,-0.383,0.511,0.379,0.828,-0.414,0.862,-0.159,0.482,0.068,0.878,-0.473,0.725,0.589,0.358,-0.265,-0.719,0.643,rock
10.413193,-0.111,0.981,0.158,0.237,-0.475,0.848,-0.617,-0.787,0.021,0.674,-0.597,0.436,0.22,0.0,-0.975,0.732,-0.336,0.592,0.407,0.325,-0.854,0.758,-0.369,0.538,0.241,-0.103,-0.965,0.858,-0.136,0.496,0.118,-0.157,-0.981,0.747,0.564,0.352,-0.865,0.224,0.449,rock
10.45749,-0.094,0.942,0.322,-0.575,-0.639,0.511,-0.617,-0.787,0.021,0.733,-0.593,0.334,-0.409,-0.031,-0.912,0.817,-0.269,0.51,-0.26,-0.037,-0.965,0.843,-0.355,0.406,-0.435,-0.234,-0.87,0.936,-0.115,0.332,-0.567,-0.354,-0.744,0.637,0.564,0.525,-0.971,0.118,-0.206,rock
10.503464,-0.096,0.903,0.42,-0.349,-0.93,-0.116,-0.621,-0.783,0.044,0.781,-0.573,0.248,-0.737,0.452,-0.502,0.87,-0.216,0.444,-0.788,0.184,-0.587,0.88,-0.352,0.32,-0.8,0.229,-0.555,0.959,-0.127,0.252,-0.888,0.032,-0.46,0.56,0.586,0.586,-0.787,-0.37,-0.494,rock
10.540907,-0.055,0.943,0.328,-0.04,-0.97,-0.24,-0.621,-0.783,0.044,0.775,-0.545,0.321,-0.688,0.519,-0.508,0.828,-0.218,0.516,-0.745,0.255,-0.617,0.858,-0.325,0.398,-0.757,0.28,-0.591,0.934,-0.099,0.342,-0.841,0.071,-0.537,0.644,0.562,0.52,-0.792,-0.461,-0.401,rock
10.587554,-0.03,0.989,0.148,-0.017,-0.987,-0.157,-0.628,-0.777,0.044,0.725,-0.532,0.437,-0.645,0.458,-0.611,0.751,-0.256,0.609,-0.65,0.243,-0.72,0.798,-0.306,0.519,-0.7,0.208,-0.683,0.881,-0.072,0.467,-0.778,-0.008,-0.628,0.747,0.524,0.408,-0.857,-0.396,-0.33,rock
10.625876,-0.085,0.984,0.159,-0.157,-0.987,0.039,-0.624,-0.78,0.044,0.685,-0.565,0.459,-0.635,0.389,-0.667,0.727,-0.305,0.615,-0.594,0.195,-0.781,0.766,-0.338,0.547,-0.681,0.133,-0.72,0.859,-0.105,0.501,-0.742,-0.095,-0.663,0.756,0.544,0.364,-0.901,-0.303,-0.311,rock
10.671038,-0.109,0.975,0.195,-0.16,-0.987,0.022,-0.615,-0.785,0.071,0.683,-0.579,0.445,-0.642,0.372,-0.671,0.739,-0.309,0.599,-0.588,0.179,-0.789,0.778,-0.346,0.524,-0.677,0.115,-0.727,0.875,-0.117,0.469,-0.738,-0.109,-0.666,0.728,0.562,0.391,-0.901,-0.307,-0.307,rock
10.709702,-0.059,0.992,0.115,-0.059,-0.998,-0.02,-0.615,-0.785,0.071,0.671,-0.547,0.5,-0.626,0.437,-0.646,0.703,-0.297,0.646,-0.604,0.233,-0.762,0.761,-0.308,0.571,-0.672,0.18,-0.719,0.854,-0.074,0.515,-0.742,-0.04,-0.669,0.774,0.523,0.356,-0.881,-0.375,-0.289,rock
10.754737,-0.029,0.999,0.026,-0.077,-0.997,0.0,-0.648,-0.751,0.126,0.634,-0.522,0.571,-0.628,0.423,-0.653,0.637,-0.306,0.708,-0.595,0.229,-0.771,0.709,-0.272,0.65,-0.672,0.165,-0.722,0.799,-0.035,0.601,-0.74,-0.057,-0.67,0.844,0.466,0.267,-0.886,-0.355,-0.298,rock
10.800503,-0.104,0.994,0.028,-0.132,-0.987,-0.088,-0.648,-0.751,0.13,0.607,-0.551,0.572,-0.684,0.467,-0.56,0.635,-0.329,0.699,-0.686,0.226,-0.692,0.711,-0.296,0.637,-0.737,0.221,-0.639,0.815,-0.058,0.577,-0.81,-0.006,-0.587,0.814,0.496,0.302,-0.82,-0.428,-0.379,rock
10.839351,-0.101,0.993,0.054,0.053,-0.964,-0.26,-0.648,-0.751,0.13,0.608,-0.566,0.556,-0.684,0.545,-0.484,0.635,-0.355,0.686,-0.742,0.28,-0.609,0.688,-0.328,0.647,-0.755,0.305,-0.581,0.784,-0.096,0.613,-0.839,0.078,-0.539,0.822,0.515,0.242,-0.771,-0.496,-0.4,rock
10.884815,-0.021,0.998,0.067,0.006,-0.973,-0.23,-0.635,-0.748,0.191,0.65,-0.52,0.555,-0.735,0.451,-0.506,0.655,-0.288,0.699,-0.735,0.181,-0.654,0.731,-0.268,0.628,-0.784,0.202,-0.588,0.817,-0.028,0.576,-0.85,-0.024,-0.526,0.825,0.47,0.315,-0.798,-0.408,-0.444,rock
10.922385,0.035,0.998,0.049,-0.108,-0.969,-0.221,-0.635,-0.748,0.191,0.678,-0.467,0.568,-0.739,0.479,-0.473,0.657,-0.23,0.718,-0.757,0.201,-0.621,0.754,-0.212,0.621,-0.793,0.239,-0.56,0.83,0.027,0.557,-0.859,0.012,-0.511,0.83,0.432,0.353,-0.77,-0.451,-0.451,rock
10.969776,0.026,0.998,0.052,-0.056,-0.972,-0.228,-0.595,-0.769,0.233,0.685,-0.459,0.565,-0.718,0.495,-0.49,0.658,-0.223,0.719,-0.74,0.224,-0.634,0.753,-0.214,0.623,-0.773,0.252,-0.581,0.827,0.019,0.562,-0.846,0.022,-0.533,0.829,0.443,0.342,-0.784,-0.452,-0.425,rock
11.008656,-0.011,0.998,0.06,-0.058,-0.985,-0.164,-0.599,-0.759,0.255,0.665,-0.499,0.556,-0.69,0.507,-0.517,0.661,-0.267,0.701,-0.715,0.252,-0.652,0.739,-0.26,0.621,-0.748,0.261,-0.61,0.825,-0.028,0.565,-0.824,0.031,-0.566,0.815,0.481,0.323,-0.798,-0.46,-0.389,rock
11.050051,-0.074,0.996,0.043,-0.025,-0.988,-0.15,-0.599,-0.759,0.255,0.629,-0.549,0.55,-0.681,0.494,-0.54,0.651,-0.329,0.684,-0.695,0.249,-0.675,0.706,-0.316,0.634,-0.736,0.244,-0.632,0.802,-0.086,0.591,-0.808,0.015,-0.589,0.812,0.521,0.263,-0.814,-0.447,-0.372,rock
11.095301,-0.125,0.989,0.085,-0.079,-0.991,-0.108,-0.577,-0.753,0.317,0.628,-0.588,0.509,-0.69,0.459,-0.56,0.681,-0.353,0.642,-0.68,0.219,-0.7,0.721,-0.357,0.594,-0.74,0.204,-0.641,0.826,-0.129,0.549,-0.804,-0.024,-0.594,0.77,0.566,0.295,-0.829,-0.412,-0.379,rock
11.138371,-0.19,0.976,0.108,-0.079,-0.991,-0.108,-0.58,-0.754,0.307,0.608,-0.636,0.475,-0.708,0.477,-0.52,0.699,-0.391,0.599,-0.714,0.219,-0.665,0.724,-0.403,0.56,-0.762,0.228,-0.607,0.84,-0.177,0.513,-0.828,-0.004,-0.561,0.721,0.618,0.314,-0.799,-0.442,-0.408,rock
11.177414,-0.263,0.964,0.046,-0.015,-0.968,-0.251,-0.58,-0.754,0.307,0.549,-0.669,0.5,-0.702,0.557,-0.443,0.659,-0.452,0.601,-0.759,0.283,-0.586,0.669,-0.454,0.588,-0.771,0.321,-0.55,0.795,-0.24,0.556,-0.85,0.097,-0.518,0.712,0.66,0.241,-0.735,-0.535,-0.416,rock
11.223608,-0.159,0.987,-0.029,-0.071,-0.99,-0.123,-0.511,-0.791,0.336,0.517,-0.646,0.562,-0.684,0.528,-0.504,0.586,-0.481,0.652,-0.715,0.271,-0.644,0.584,-0.439,0.683,-0.745,0.278,-0.606,0.7,-0.225,0.678,-0.82,0.047,-0.571,0.796,0.599,0.093,-0.788,-0.485,-0.38,rock
11.261771,-0.15,0.988,-0.04,-0.121,-0.988,-0.097,-0.511,-0.791,0.336,0.525,-0.62,0.582,-0.696,0.475,-0.539,0.589,-0.443,0.676,-0.695,0.227,-0.682,0.624,-0.39,0.677,-0.748,0.223,-0.625,0.742,-0.165,0.65,-0.814,-0.008,-0.581,0.81,0.564,0.158,-0.815,-0.431,-0.387,rock
11.304463,-0.102,0.994,0.028,-0.032,-0.98,-0.197,-0.464,-0.799,0.382,0.574,-0.593,0.565,-0.695,0.53,-0.486,0.626,-0.392,0.674,-0.731,0.271,-0.626,0.672,-0.362,0.646,-0.755,0.29,-0.588,0.78,-0.137,0.611,-0.833,0.06,-0.55,0.801,0.557,0.218,-0.773,-0.498,-0.394,rock
11.342025,-0.075,0.997,0.037,-0.004,-0.981,-0.194,-0.464,-0.799,0.382,0.599,-0.577,0.555,-0.687,0.524,-0.504,0.637,-0.374,0.674,-0.719,0.269,-0.641,0.679,-0.35,0.646,-0.748,0.277,-0.603,0.779,-0.124,0.615,-0.824,0.048,-0.565,0.811,0.543,0.218,-0.787,-0.484,-0.383,rock
11.384337,-0.078,0.997,0.011,-0.037,-0.987,-0.158,-0.386,-0.827,0.409,0.59,-0.57,0.572,-0.676,0.539,-0.502,0.626,-0.37,0.687,-0.716,0.289,-0.636,0.679,-0.339,0.651,-0.74,0.296,-0.604,0.782,-0.108,0.614,-0.82,0.07,-0.568,0.818,0.528,0.226,-0.78,-0.504,-0.371,rock
11.421919,-0.037,0.999,0.015,0.035,-0.981,-0.19,-0.386,-0.827,0.409,0.593,-0.557,0.582,-0.664,0.55,-0.506,0.612,-0.37,0.699,-0.711,0.302,-0.635,0.66,-0.332,0.674,-0.73,0.306,-0.612,0.757,-0.1,0.645,-0.814,0.079,-0.576,0.843,0.504,0.188,-0.783,-0.506,-0.361,rock
11.464275,-0.035,0.997,0.07,-0.064,-0.991,-0.113,-0.332,-0.844,0.42,0.625,-0.548,0.556,-0.683,0.484,-0.547,0.644,-0.337,0.686,-0.689,0.239,-0.684,0.702,-0.309,0.641,-0.737,0.23,-0.636,0.797,-0.07,0.6,-0.807,-0.0,-0.59,0.831,0.493,0.257,-0.821,-0.432,-0.374,rock
11.502726,-0.058,0.995,0.082,-0.066,-0.985,-0.157,-0.332,-0.844,0.42,0.639,-0.549,0.539,-0.682,0.524,-0.509,0.664,-0.326,0.673,-0.715,0.27,-0.645,0.726,-0.312,0.612,-0.744,0.279,-0.607,0.822,-0.077,0.565,-0.82,0.049,-0.57,0.803,0.513,0.303,-0.791,-0.477,-0.383,rock
11.548105,-0.042,0.995,0.093,0.025,-0.983,-0.183,-0.278,-0.838,0.47,0.639,-0.554,0.534,-0.674,0.512,-0.533,0.661,-0.336,0.671,-0.697,0.269,-0.665,0.706,-0.328,0.627,-0.732,0.265,-0.628,0.798,-0.094,0.595,-0.808,0.031,-0.589,0.819,0.512,0.257,-0.811,-0.458,-0.364,rock
11.585969,-0.029,0.994,0.104,0.025,-0.983,-0.183,-0.271,-0.863,0.427,0.648,-0.547,0.53,-0.675,0.465,-0.573,0.67,-0.32,0.67,-0.671,0.229,-0.705,0.725,-0.312,0.615,-0.726,0.214,-0.653,0.816,-0.073,0.574,-0.794,-0.017,-0.607,0.817,0.497,0.291,-0.84,-0.406,-0.361,rock
11.629927,0.02,0.994,0.11,-0.121,-0.99,-0.07,-0.222,-0.872,0.436,0.68,-0.507,0.529,-0.678,0.437,-0.591,0.68,-0.271,0.682,-0.657,0.206,-0.725,0.751,-0.267,0.604,-0.72,0.177,-0.671,0.831,-0.026,0.555,-0.787,-0.055,-0.615,0.822,0.465,0.329,-0.859,-0.365,-0.359,rock
11.667249,0.054,0.992,0.11,-0.121,-0.99,-0.07,-0.196,-0.892,0.407,0.703,-0.473,0.531,-0.666,0.423,-0.615,0.687,-0.227,0.69,-0.631,0.202,-0.749,0.771,-0.229,0.594,-0.707,0.164,-0.688,0.845,0.016,0.534,-0.772,-0.064,-0.632,0.823,0.436,0.365,-0.871,-0.353,-0.341,rock
11.710048,0.086,0.994,0.062,-0.062,-0.997,-0.042,-0.196,-0.889,0.413,0.689,-0.446,0.572,-0.643,0.447,-0.622,0.65,-0.217,0.728,-0.622,0.235,-0.747,0.75,-0.197,0.631,-0.691,0.188,-0.698,0.818,0.048,0.573,-0.759,-0.034,-0.65,0.858,0.395,0.33,-0.872,-0.375,-0.315,rock
11.750786,0.108,0.994,0.034,-0.062,-0.997,-0.042,-0.196,-0.889,0.413,0.694,-0.428,0.579,-0.609,0.411,-0.678,0.642,-0.205,0.739,-0.574,0.228,-0.786,0.745,-0.181,0.643,-0.652,0.152,-0.743,0.808,0.064,0.586,-0.724,-0.069,-0.686,0.871,0.377,0.315,-0.904,-0.331,-0.271,rock
11.793573,0.088,0.99,0.108,-0.159,-0.982,0.106,-0.213,-0.901,0.377,0.713,-0.431,0.553,-0.594,0.376,-0.711,0.671,-0.187,0.717,-0.535,0.207,-0.819,0.777,-0.179,0.603,-0.633,0.117,-0.766,0.844,0.067,0.533,-0.699,-0.101,-0.708,0.839,0.387,0.383,-0.923,-0.288,-0.255,rock
11.832835,0.044,0.99,0.131,-0.089,-0.994,0.071,-0.196,-0.902,0.385,0.714,-0.473,0.517,-0.628,0.382,-0.679,0.698,-0.209,0.685,-0.585,0.201,-0.786,0.79,-0.212,0.576,-0.667,0.127,-0.734,0.865,0.034,0.501,-0.738,-0.085,-0.67,0.807,0.423,0.411,-0.902,-0.309,-0.301,rock
11.877347,-0.061,0.998,0.034,-0.089,-0.994,0.071,-0.179,-0.918,0.354,0.633,-0.517,0.576,-0.573,0.636,-0.517,0.637,-0.305,0.708,-0.683,0.426,-0.594,0.715,-0.28,0.64,-0.654,0.418,-0.631,0.805,-0.047,0.591,-0.765,0.211,-0.609,0.828,0.481,0.286,-0.76,-0.596,-0.259,rock
11.916326,-0.037,0.998,-0.056,0.166,-0.986,0.028,-0.177,-0.929,0.326,0.557,-0.514,0.653,-0.499,0.545,-0.674,0.529,-0.37,0.764,-0.541,0.399,-0.74,0.589,-0.286,0.756,-0.562,0.295,-0.773,0.675,-0.059,0.735,-0.671,0.084,-0.736,0.896,0.435,0.093,-0.885,-0.442,-0.147,rock
11.963238,0.071,0.997,0.0,0.166,-0.986,0.028,-0.162,-0.925,0.343,0.617,-0.448,0.647,-0.406,0.088,-0.91,0.562,-0.266,0.784,-0.185,0.058,-0.981,0.668,-0.188,0.72,-0.393,-0.164,-0.905,0.742,0.05,0.669,-0.417,-0.361,-0.834,0.906,0.372,0.201,-0.998,0.053,-0.042,rock
11.999883,0.044,0.994,0.101,0.166,-0.986,0.028,-0.162,-0.925,0.343,0.719,-0.421,0.553,-0.52,-0.02,-0.854,0.671,-0.147,0.727,-0.265,-0.102,-0.959,0.798,-0.122,0.591,-0.499,-0.274,-0.822,0.86,0.133,0.492,-0.504,-0.474,-0.722,0.833,0.344,0.433,-0.972,0.123,-0.198,rock
12.045204,-0.099,0.994,0.048,0.205,-0.862,-0.464,-0.162,-0.925,0.343,0.646,-0.512,0.566,-0.705,0.581,-0.407,0.67,-0.259,0.695,-0.804,0.298,-0.514,0.781,-0.24,0.577,-0.775,0.396,-0.493,0.879,0.007,0.476,-0.871,0.184,-0.456,0.751,0.463,0.471,-0.678,-0.59,-0.439,rock
12.082952,-0.042,0.999,0.003,0.205,-0.862,-0.464,-0.152,-0.94,0.306,0.625,-0.5,0.6,-0.565,0.796,-0.218,0.606,-0.298,0.738,-0.807,0.509,-0.299,0.684,-0.258,0.682,-0.681,0.624,-0.382,0.764,-0.029,0.645,-0.818,0.425,-0.387,0.851,0.467,0.24,-0.514,-0.783,-0.351,rock
12.128699,0.136,0.982,-0.129,-0.018,-1.0,-0.009,-0.152,-0.94,0.306,0.597,-0.399,0.696,-0.597,0.622,-0.506,0.5,-0.248,0.83,-0.698,0.383,-0.605,0.609,-0.149,0.779,-0.679,0.377,-0.629,0.661,0.083,0.745,-0.789,0.151,-0.596,0.938,0.321,0.131,-0.792,-0.531,-0.303,rock
12.167101,0.216,0.973,-0.087,-0.018,-1.0,-0.009,-0.118,-0.935,0.336,0.657,-0.332,0.677,-0.597,0.325,-0.733,0.54,-0.148,0.829,-0.522,0.163,-0.837,0.686,-0.068,0.724,-0.623,0.062,-0.779,0.732,0.173,0.659,-0.686,-0.169,-0.707,0.929,0.267,0.256,-0.944,-0.205,-0.257,rock
12.211743,0.152,0.982,0.113,-0.33,-0.919,0.217,-0.118,-0.935,0.336,0.749,-0.353,0.56,-0.597,0.192,-0.779,0.666,-0.093,0.74,-0.451,0.042,-0.892,0.802,-0.088,0.591,-0.61,-0.07,-0.79,0.85,0.155,0.504,-0.647,-0.283,-0.708,0.842,0.324,0.431,-0.96,-0.097,-0.262,rock
12.250079,0.057,0.988,0.147,-0.33,-0.919,0.217,-0.106,-0.951,0.289,0.755,-0.412,0.511,-0.653,0.281,-0.703,0.715,-0.123,0.688,-0.55,0.093,-0.83,0.831,-0.141,0.538,-0.678,0.016,-0.735,0.891,0.099,0.444,-0.721,-0.197,-0.664,0.781,0.388,0.49,-0.923,-0.215,-0.318,rock
12.294215,-0.034,0.999,0.031,-0.006,-0.983,-0.184,-0.13,-0.958,0.254,0.671,-0.467,0.575,-0.674,0.525,-0.519,0.658,-0.216,0.722,-0.721,0.275,-0.636,0.771,-0.191,0.607,-0.74,0.293,-0.606,0.855,0.054,0.515,-0.824,0.07,-0.562,0.812,0.416,0.41,-0.783,-0.493,-0.379,rock
12.336565,-0.036,0.992,-0.117,-0.006,-0.983,-0.184,-0.102,-0.961,0.257,0.52,-0.476,0.709,-0.645,0.707,-0.289,0.487,-0.327,0.81,-0.822,0.411,-0.394,0.596,-0.207,0.776,-0.744,0.52,-0.42,0.687,0.036,0.725,-0.858,0.31,-0.41,0.922,0.364,0.132,-0.578,-0.704,-0.413,rock
12.381612,0.08,0.965,-0.251,0.284,-0.803,-0.525,-0.102,-0.961,0.257,0.432,-0.417,0.8,-0.634,0.751,-0.184,0.331,-0.368,0.869,-0.856,0.435,-0.28,0.423,-0.184,0.887,-0.741,0.583,-0.333,0.487,0.029,0.873,-0.868,0.375,-0.324,0.953,0.291,-0.085,-0.511,-0.732,-0.45,rock
12.420391,0.133,0.972,-0.192,-0.548,-0.832,-0.088,-0.102,-0.961,0.257,0.516,-0.361,0.776,-0.819,0.285,-0.498,0.395,-0.268,0.879,-0.784,-0.018,-0.62,0.525,-0.108,0.844,-0.845,0.037,-0.533,0.577,0.118,0.808,-0.894,-0.179,-0.411,0.966,0.253,0.051,-0.819,-0.139,-0.557,rock
12.46094,0.182,0.982,-0.05,-0.9,-0.286,0.327,0.003,-0.967,0.257,0.65,-0.311,0.694,-0.747,0.0,-0.664,0.535,-0.121,0.836,-0.629,-0.21,-0.749,0.706,-0.039,0.708,-0.764,-0.17,-0.623,0.759,0.206,0.618,-0.823,-0.341,-0.454,0.912,0.25,0.326,-0.878,0.05,-0.476,rock
12.506716,0.163,0.981,-0.103,0.408,-0.912,-0.048,0.003,-0.967,0.257,0.648,-0.314,0.694,-0.476,0.608,-0.635,0.525,-0.137,0.84,-0.648,0.479,-0.592,0.681,-0.054,0.73,-0.556,0.424,-0.715,0.73,0.184,0.659,-0.721,0.257,-0.644,0.929,0.262,0.262,-0.841,-0.51,-0.178,rock
12.545864,0.125,0.988,-0.089,0.393,-0.707,0.589,-0.004,-0.973,0.232,0.629,-0.367,0.685,-0.13,0.52,-0.844,0.533,-0.196,0.823,-0.265,0.643,-0.719,0.67,-0.108,0.734,-0.202,0.37,-0.907,0.731,0.133,0.669,-0.416,0.277,-0.866,0.924,0.297,0.239,-0.929,-0.332,0.166,rock
12.590354,0.057,0.996,0.073,0.391,-0.13,0.911,-0.004,-0.973,0.232,0.671,-0.43,0.603,0.226,0.226,-0.948,0.618,-0.213,0.757,0.258,0.58,-0.773,0.728,-0.167,0.665,0.214,0.161,-0.964,0.797,0.078,0.598,-0.0,0.196,-0.981,0.881,0.357,0.31,-0.913,0.051,0.406,rock
12.629518,0.062,0.992,0.112,-0.482,0.241,0.843,-0.02,-0.969,0.247,0.701,-0.446,0.557,0.15,-0.15,-0.977,0.66,-0.2,0.724,0.312,0.156,-0.937,0.767,-0.181,0.615,0.212,-0.212,-0.954,0.838,0.067,0.542,-0.164,-0.0,-0.986,0.845,0.382,0.374,-0.898,0.408,0.163,rock
12.67477,0.049,0.997,0.053,-0.949,-0.316,0.0,-0.013,-0.967,0.254,0.692,-0.443,0.57,-0.371,0.743,-0.557,0.652,-0.202,0.731,-0.854,0.513,-0.085,0.762,-0.18,0.622,-0.537,0.716,-0.447,0.833,0.067,0.55,-0.79,0.574,-0.215,0.846,0.385,0.368,-0.788,-0.473,-0.394,rock
12.714019,0.045,0.998,0.036,0.433,-0.487,-0.758,-0.004,-0.953,0.302,0.67,-0.453,0.588,-0.474,0.88,-0.0,0.628,-0.228,0.744,-0.861,0.431,0.269,0.735,-0.193,0.65,-0.61,0.793,-0.0,0.811,0.054,0.583,-0.775,0.63,0.048,0.862,0.389,0.326,-0.316,-0.759,-0.569,rock
12.758668,0.032,0.997,0.071,0.311,-0.186,-0.932,-0.029,-0.965,0.259,0.674,-0.462,0.577,-0.608,0.76,0.228,0.641,-0.233,0.731,-0.866,0.325,0.379,0.739,-0.207,0.641,-0.629,0.754,0.189,0.815,0.038,0.578,-0.756,0.605,0.252,0.853,0.406,0.328,-0.196,-0.588,-0.784,rock
12.797729,0.048,0.995,0.084,0.132,-0.066,-0.989,-0.029,-0.965,0.259,0.686,-0.458,0.565,-0.727,0.582,0.364,0.651,-0.221,0.726,-0.909,0.101,0.404,0.752,-0.198,0.629,-0.743,0.557,0.371,0.825,0.048,0.563,-0.816,0.432,0.384,0.85,0.397,0.347,-0.123,-0.369,-0.921,rock
12.843447,0.021,0.996,0.092,-0.052,-0.052,-0.997,0.025,-0.978,0.205,0.687,-0.475,0.55,-0.726,0.436,0.532,0.666,-0.229,0.71,-0.894,0.0,0.447,0.759,-0.221,0.613,-0.757,0.462,0.462,0.836,0.023,0.548,-0.791,0.395,0.467,0.831,0.425,0.359,0.043,-0.43,-0.902,rock
12.881224,-0.018,0.992,0.123,-0.036,-0.182,-0.983,0.025,-0.978,0.205,0.688,-0.506,0.52,-0.857,0.343,0.386,0.686,-0.256,0.681,-0.95,-0.068,0.305,0.76,-0.259,0.596,-0.866,0.354,0.354,0.843,-0.021,0.538,-0.889,0.231,0.395,0.808,0.468,0.358,-0.112,-0.337,-0.935,rock
12.923771,-0.043,0.989,0.14,-0.231,-0.308,-0.923,0.058,-0.968,0.244,0.681,-0.527,0.508,-0.968,0.242,0.069,0.694,-0.276,0.665,-0.983,-0.184,0.0,0.761,-0.285,0.583,-0.98,0.169,0.101,0.85,-0.046,0.524,-0.977,0.059,0.207,0.789,0.495,0.365,-0.373,-0.218,-0.902,rock
12.961168,-0.057,0.991,0.119,-0.229,-0.659,-0.716,0.058,-0.968,0.244,0.665,-0.533,0.522,-0.877,0.481,0.0,0.683,-0.288,0.671,-0.996,0.079,-0.052,0.753,-0.287,0.592,-0.924,0.381,-0.027,0.848,-0.048,0.528,-0.967,0.248,0.05,0.792,0.491,0.362,-0.389,-0.493,-0.778,rock
13.000766,-0.045,0.994,0.104,0.221,-0.62,-0.753,0.042,-0.951,0.306,0.66,-0.528,0.534,-0.716,0.692,0.095,0.673,-0.288,0.681,-0.953,0.296,0.064,0.744,-0.281,0.606,-0.792,0.611,-0.0,0.837,-0.042,0.545,-0.902,0.43,0.041,0.807,0.48,0.344,-0.289,-0.688,-0.666,rock
13.046602,-0.023,0.992,0.12,0.317,-0.575,-0.754,0.084,-0.964,0.251,0.676,-0.512,0.53,-0.576,0.806,0.134,0.683,-0.264,0.682,-0.9,0.423,0.106,0.762,-0.261,0.593,-0.689,0.725,0.0,0.85,-0.02,0.527,-0.821,0.57,0.017,0.8,0.468,0.376,-0.196,-0.821,-0.536,rock
13.088084,-0.011,0.996,0.092,0.441,-0.563,-0.699,0.084,-0.964,0.251,0.659,-0.509,0.553,-0.434,0.884,0.171,0.657,-0.281,0.699,-0.828,0.537,0.16,0.737,-0.265,0.621,-0.575,0.818,0.015,0.824,-0.027,0.566,-0.735,0.678,-0.014,0.822,0.465,0.328,-0.137,-0.901,-0.412,rock
13.133415,-0.017,0.999,0.04,0.584,-0.498,-0.641,0.145,-0.941,0.305,0.651,-0.489,0.58,-0.359,0.931,0.065,0.633,-0.274,0.724,-0.764,0.639,0.093,0.712,-0.249,0.656,-0.502,0.858,-0.113,0.794,-0.016,0.608,-0.693,0.708,-0.136,0.843,0.457,0.285,-0.211,-0.927,-0.309,rock
13.172674,-0.003,1.0,0.031,0.584,-0.498,-0.641,0.137,-0.941,0.309,0.651,-0.482,0.586,-0.328,0.906,-0.27,0.627,-0.268,0.732,-0.676,0.713,-0.188,0.709,-0.239,0.663,-0.458,0.783,-0.42,0.789,-0.005,0.614,-0.662,0.626,-0.412,0.849,0.445,0.285,-0.509,-0.848,-0.151,rock
13.216252,-0.014,0.997,0.074,0.504,-0.864,-0.018,0.137,-0.941,0.309,0.667,-0.489,0.562,-0.264,0.829,-0.494,0.651,-0.26,0.713,-0.541,0.721,-0.433,0.732,-0.246,0.636,-0.398,0.657,-0.64,0.813,-0.013,0.582,-0.592,0.508,-0.626,0.826,0.463,0.323,-0.672,-0.741,-0.017,rock
13.262011,-0.02,1.0,0.014,0.447,-0.851,0.277,0.137,-0.941,0.309,0.656,-0.48,0.583,-0.136,0.707,-0.694,0.633,-0.266,0.727,-0.309,0.722,-0.619,0.713,-0.25,0.655,-0.234,0.531,-0.815,0.793,-0.025,0.609,-0.404,0.379,-0.832,0.834,0.472,0.286,-0.776,-0.597,0.203,rock
13.299505,0.019,0.999,-0.049,0.247,-0.802,0.544,0.137,-0.941,0.309,0.64,-0.458,0.617,-0.102,0.287,-0.953,0.582,-0.266,0.769,0.0,0.377,-0.926,0.659,-0.212,0.722,-0.133,0.051,-0.99,0.724,0.014,0.69,-0.209,-0.105,-0.972,0.892,0.414,0.183,-0.959,-0.11,0.26,rock
13.341786,-0.019,1.0,0.012,-0.43,-0.653,0.623,0.137,-0.941,0.309,0.661,-0.487,0.571,-0.352,-0.008,-0.936,0.649,-0.235,0.723,-0.1,-0.008,-0.995,0.753,-0.204,0.626,-0.349,-0.246,-0.904,0.834,0.038,0.55,-0.341,-0.43,-0.836,0.818,0.435,0.376,-0.993,0.117,-0.008,rock
13.381978,-0.171,0.985,0.031,-0.43,-0.653,0.623,0.114,-0.953,0.28,0.602,-0.564,0.565,-0.564,0.395,-0.726,0.645,-0.329,0.689,-0.517,0.251,-0.818,0.724,-0.3,0.621,-0.61,0.159,-0.776,0.831,-0.064,0.553,-0.681,-0.056,-0.73,0.783,0.517,0.347,-0.915,-0.337,-0.22,rock
13.427599,-0.16,0.986,-0.038,0.1,-0.977,-0.188,0.137,-0.958,0.251,0.539,-0.583,0.608,-0.623,0.605,-0.497,0.582,-0.397,0.71,-0.711,0.373,-0.596,0.641,-0.336,0.69,-0.698,0.385,-0.604,0.752,-0.105,0.65,-0.8,0.165,-0.577,0.825,0.525,0.209,-0.754,-0.571,-0.324,rock
13.466413,-0.074,0.994,-0.081,0.1,-0.977,-0.188,0.13,-0.964,0.233,0.555,-0.518,0.651,-0.612,0.648,-0.453,0.542,-0.356,0.762,-0.727,0.402,-0.556,0.612,-0.274,0.742,-0.7,0.42,-0.578,0.7,-0.044,0.712,-0.806,0.203,-0.556,0.883,0.447,0.141,-0.731,-0.597,-0.331,rock
13.512024,0.127,0.987,-0.1,-0.147,-0.988,-0.045,0.13,-0.964,0.233,0.61,-0.411,0.678,-0.661,0.47,-0.585,0.533,-0.241,0.811,-0.663,0.245,-0.708,0.648,-0.155,0.746,-0.714,0.225,-0.663,0.714,0.082,0.695,-0.784,-0.013,-0.621,0.917,0.347,0.195,-0.848,-0.402,-0.346,rock
13.550995,0.093,0.992,-0.084,-0.15,-0.989,-0.018,0.184,-0.967,0.174,0.641,-0.406,0.651,-0.659,0.413,-0.629,0.574,-0.211,0.792,-0.619,0.206,-0.758,0.696,-0.154,0.702,-0.7,0.165,-0.694,0.765,0.079,0.64,-0.76,-0.065,-0.647,0.884,0.38,0.274,-0.879,-0.352,-0.322,rock
13.595224,-0.111,0.994,-0.014,-0.098,-0.994,0.044,0.18,-0.975,0.129,0.593,-0.52,0.615,-0.626,0.379,-0.681,0.584,-0.331,0.741,-0.56,0.19,-0.806,0.648,-0.284,0.707,-0.661,0.114,-0.742,0.738,-0.054,0.672,-0.71,-0.121,-0.694,0.855,0.482,0.192,-0.915,-0.293,-0.276,rock
13.634253,-0.22,0.975,-0.03,-0.202,-0.972,0.121,0.18,-0.975,0.129,0.521,-0.613,0.594,-0.611,0.319,-0.724,0.572,-0.439,0.693,-0.508,0.152,-0.848,0.6,-0.392,0.697,-0.632,0.056,-0.773,0.716,-0.173,0.676,-0.67,-0.174,-0.721,0.806,0.575,0.144,-0.939,-0.238,-0.249,rock
13.678934,-0.252,0.968,-0.023,-0.189,-0.97,0.154,0.18,-0.975,0.129,0.457,-0.674,0.58,-0.605,0.277,-0.746,0.544,-0.522,0.657,-0.477,0.118,-0.871,0.547,-0.451,0.705,-0.623,0.01,-0.782,0.679,-0.229,0.698,-0.653,-0.223,-0.724,0.807,0.586,0.071,-0.95,-0.185,-0.25,rock
13.727576,-0.184,0.983,0.0,-0.246,-0.968,0.059,0.107,-0.99,-0.092,0.505,-0.643,0.576,-0.662,0.329,-0.673,0.585,-0.464,0.666,-0.57,0.132,-0.811,0.616,-0.408,0.674,-0.689,0.069,-0.721,0.748,-0.173,0.641,-0.731,-0.172,-0.661,0.804,0.568,0.175,-0.911,-0.249,-0.328,rock
13.762396,-0.086,0.995,0.048,-0.246,-0.968,0.059,0.106,-0.992,-0.072,0.577,-0.59,0.565,-0.686,0.398,-0.609,0.622,-0.387,0.681,-0.639,0.168,-0.751,0.672,-0.35,0.652,-0.722,0.137,-0.678,0.786,-0.109,0.609,-0.782,-0.094,-0.617,0.821,0.52,0.235,-0.869,-0.333,-0.366,rock
13.805292,-0.008,0.998,0.062,-0.125,-0.988,-0.091,0.106,-0.992,-0.072,0.661,-0.508,0.552,-0.69,0.413,-0.594,0.662,-0.276,0.697,-0.654,0.178,-0.735,0.74,-0.264,0.618,-0.726,0.156,-0.67,0.827,-0.023,0.562,-0.789,-0.079,-0.609,0.824,0.466,0.323,-0.862,-0.345,-0.372,rock
13.851838,0.031,0.989,0.142,-0.116,-0.991,-0.061,0.099,-0.988,-0.121,0.714,-0.491,0.498,-0.677,0.4,-0.618,0.711,-0.231,0.664,-0.626,0.173,-0.761,0.778,-0.258,0.573,-0.711,0.131,-0.69,0.855,-0.018,0.518,-0.769,-0.1,-0.632,0.799,0.475,0.369,-0.877,-0.329,-0.35,rock
13.896329,0.012,0.989,0.145,-0.182,-0.983,0.01,0.042,-0.985,-0.166,0.713,-0.503,0.489,-0.642,0.418,-0.642,0.722,-0.237,0.651,-0.603,0.213,-0.769,0.795,-0.265,0.546,-0.681,0.156,-0.716,0.877,-0.025,0.481,-0.745,-0.066,-0.664,0.768,0.486,0.417,-0.881,-0.361,-0.305,rock
13.935212,0.007,0.995,0.103,-0.038,-0.999,0.0,0.042,-0.985,-0.166,0.702,-0.493,0.514,-0.615,0.418,-0.668,0.69,-0.251,0.678,-0.566,0.219,-0.795,0.751,-0.265,0.605,-0.65,0.147,-0.745,0.823,-0.028,0.568,-0.712,-0.086,-0.697,0.826,0.473,0.306,-0.905,-0.332,-0.265,rock
13.979141,0.082,0.996,-0.033,-0.229,-0.951,0.206,0.042,-0.985,-0.166,0.647,-0.454,0.613,-0.562,0.281,-0.778,0.603,-0.256,0.756,-0.427,0.141,-0.893,0.694,-0.214,0.688,-0.569,0.005,-0.822,0.763,0.034,0.646,-0.606,-0.222,-0.764,0.89,0.391,0.237,-0.965,-0.181,-0.191,rock
14.021587,0.076,0.997,0.008,-0.29,-0.92,0.264,0.042,-0.985,-0.166,0.63,-0.47,0.618,-0.6,0.208,-0.773,0.603,-0.26,0.754,-0.43,0.057,-0.901,0.705,-0.213,0.677,-0.601,-0.065,-0.796,0.788,0.023,0.616,-0.62,-0.284,-0.731,0.855,0.433,0.284,-0.965,-0.13,-0.23,rock
14.066308,-0.083,0.982,-0.172,-0.29,-0.92,0.264,-0.206,-0.945,-0.254,0.479,-0.507,0.716,-0.554,0.2,-0.808,0.439,-0.409,0.8,-0.377,0.071,-0.923,0.496,-0.277,0.823,-0.546,-0.089,-0.833,0.58,-0.051,0.813,-0.564,-0.312,-0.765,0.919,0.394,-0.017,-0.981,-0.08,-0.179,rock
14.106116,-0.039,0.99,-0.138,-0.442,-0.789,0.426,-0.206,-0.945,-0.254,0.507,-0.491,0.708,-0.551,-0.051,-0.833,0.482,-0.347,0.804,-0.252,-0.149,-0.956,0.582,-0.216,0.784,-0.514,-0.313,-0.799,0.675,0.036,0.737,-0.484,-0.518,-0.706,0.929,0.348,0.123,-0.966,0.156,-0.207,rock
14.148491,0.109,0.993,0.049,-0.498,-0.841,0.213,-0.257,-0.915,-0.31,0.655,-0.435,0.618,-0.7,0.236,-0.674,0.629,-0.19,0.754,-0.565,0.027,-0.825,0.781,-0.127,0.611,-0.714,-0.013,-0.701,0.859,0.147,0.49,-0.75,-0.237,-0.618,0.832,0.3,0.466,-0.905,-0.187,-0.381,rock
14.190064,0.158,0.984,0.086,0.025,-0.943,-0.331,-0.263,-0.919,-0.292,0.725,-0.383,0.573,-0.748,0.512,-0.422,0.658,-0.134,0.741,-0.796,0.21,-0.567,0.786,-0.112,0.608,-0.81,0.272,-0.519,0.839,0.139,0.526,-0.887,0.057,-0.459,0.858,0.32,0.402,-0.73,-0.48,-0.487,rock
14.232579,0.199,0.98,0.0,-0.026,-0.952,-0.304,-0.285,-0.922,-0.261,0.713,-0.347,0.609,-0.74,0.529,-0.416,0.616,-0.129,0.777,-0.798,0.226,-0.559,0.747,-0.095,0.658,-0.803,0.29,-0.52,0.791,0.147,0.595,-0.88,0.065,-0.47,0.893,0.308,0.329,-0.734,-0.493,-0.467,rock
14.276902,0.172,0.985,-0.011,-0.092,-0.973,-0.212,-0.329,-0.906,-0.266,0.695,-0.353,0.626,-0.718,0.359,-0.596,0.596,-0.151,0.789,-0.658,0.117,-0.744,0.723,-0.106,0.683,-0.748,0.099,-0.656,0.77,0.135,0.623,-0.799,-0.137,-0.586,0.904,0.311,0.293,-0.874,-0.279,-0.399,rock
14.316104,0.112,0.993,0.028,-0.294,-0.949,0.115,-0.329,-0.906,-0.266,0.703,-0.383,0.599,-0.663,0.26,-0.702,0.629,-0.158,0.761,-0.544,0.065,-0.836,0.753,-0.13,0.645,-0.679,-0.008,-0.734,0.81,0.113,0.576,-0.714,-0.235,-0.659,0.872,0.346,0.347,-0.929,-0.169,-0.33,rock
14.362272,0.098,0.993,0.071,-0.29,-0.95,0.118,-0.363,-0.878,-0.311,0.718,-0.406,0.565,-0.669,0.271,-0.692,0.662,-0.155,0.733,-0.562,0.077,-0.824,0.787,-0.136,0.602,-0.692,0.015,-0.722,0.847,0.117,0.519,-0.727,-0.217,-0.652,0.848,0.347,0.401,-0.917,-0.198,-0.345,rock
14.398857,0.113,0.991,0.067,-0.207,-0.976,-0.071,-0.363,-0.878,-0.311,0.727,-0.406,0.554,-0.732,0.333,-0.594,0.675,-0.147,0.723,-0.666,0.095,-0.74,0.801,-0.129,0.585,-0.759,0.086,-0.645,0.86,0.125,0.494,-0.808,-0.143,-0.572,0.837,0.336,0.432,-0.863,-0.276,-0.424,rock
14.445253,0.173,0.984,0.043,-0.109,-0.967,-0.231,-0.392,-0.883,-0.259,0.721,-0.391,0.572,-0.752,0.459,-0.473,0.653,-0.148,0.743,-0.763,0.175,-0.623,0.775,-0.122,0.62,-0.806,0.214,-0.551,0.828,0.132,0.545,-0.87,-0.014,-0.493,0.876,0.315,0.366,-0.778,-0.409,-0.477,rock
14.483852,0.253,0.968,0.011,-0.277,-0.917,-0.286,-0.411,-0.857,-0.31,0.708,-0.343,0.617,-0.814,0.395,-0.427,0.609,-0.126,0.783,-0.803,0.082,-0.59,0.75,-0.077,0.657,-0.852,0.161,-0.498,0.794,0.179,0.581,-0.904,-0.064,-0.424,0.906,0.255,0.339,-0.753,-0.365,-0.547,rock
14.529322,0.29,0.956,0.035,-0.212,-0.934,-0.287,-0.406,-0.872,-0.275,0.735,-0.285,0.615,-0.819,0.365,-0.443,0.604,-0.068,0.794,-0.801,0.045,-0.598,0.757,-0.028,0.653,-0.857,0.122,-0.501,0.786,0.22,0.578,-0.901,-0.1,-0.423,0.912,0.223,0.345,-0.778,-0.285,-0.559,rock
14.568319,0.344,0.936,0.075,-0.638,-0.765,0.085,-0.438,-0.852,-0.286,0.764,-0.261,0.589,-0.798,0.121,-0.59,0.631,-0.025,0.775,-0.681,-0.147,-0.718,0.796,-0.0,0.606,-0.81,-0.108,-0.576,0.82,0.254,0.514,-0.836,-0.32,-0.445,0.886,0.192,0.422,-0.849,-0.034,-0.527,rock
14.612625,0.289,0.951,0.11,-0.64,-0.747,0.178,-0.438,-0.852,-0.286,0.779,-0.27,0.566,-0.672,-0.117,-0.731,0.652,-0.023,0.758,-0.492,-0.295,-0.819,0.808,-0.015,0.589,-0.667,-0.333,-0.667,0.833,0.237,0.5,-0.713,-0.496,-0.496,0.874,0.216,0.434,-0.889,0.216,-0.404,rock
14.651853,0.273,0.957,0.096,-0.798,-0.355,0.488,-0.468,-0.841,-0.272,0.761,-0.306,0.572,-0.076,-0.793,-0.604,0.646,-0.07,0.76,0.355,-0.798,-0.488,0.789,-0.053,0.613,0.085,-0.936,-0.341,0.822,0.199,0.533,0.204,-0.967,-0.153,0.892,0.242,0.383,-0.461,0.887,-0.0,rock
14.695962,0.281,0.956,0.085,-0.432,0.71,0.556,-0.473,-0.83,-0.295,0.77,-0.285,0.571,0.443,-0.886,-0.136,0.645,-0.046,0.763,0.788,-0.613,0.053,0.793,-0.03,0.608,0.611,-0.785,0.105,0.821,0.22,0.526,0.745,-0.636,0.2,0.89,0.231,0.393,0.114,0.944,0.309,rock
14.736054,0.361,0.93,0.075,-0.357,0.735,0.577,-0.439,-0.851,-0.287,0.796,-0.203,0.57,0.527,-0.848,-0.057,0.63,0.05,0.775,0.827,-0.547,0.128,0.807,0.074,0.586,0.667,-0.725,0.173,0.809,0.329,0.488,0.798,-0.548,0.25,0.893,0.119,0.434,0.238,0.906,0.351,rock
14.78167,0.178,0.982,-0.068,-0.365,0.864,0.346,-0.452,-0.823,-0.344,0.708,-0.288,0.645,0.731,-0.615,0.295,0.593,-0.076,0.801,0.778,-0.281,0.561,0.768,-0.03,0.639,0.821,-0.328,0.467,0.814,0.218,0.539,0.872,-0.04,0.489,0.878,0.238,0.415,0.667,0.547,0.507,rock
14.824572,0.203,0.974,-0.103,0.461,0.869,0.181,-0.452,-0.823,-0.344,0.625,-0.332,0.707,0.813,-0.503,0.293,0.499,-0.185,0.847,0.823,-0.165,0.543,0.638,-0.084,0.766,0.867,-0.267,0.421,0.683,0.16,0.712,0.91,-0.008,0.414,0.956,0.238,0.169,0.644,0.537,0.545,rock
14.86651,0.235,0.97,-0.055,0.011,0.923,0.384,-0.41,-0.834,-0.37,0.684,-0.289,0.67,0.829,-0.45,0.333,0.567,-0.082,0.82,0.802,-0.111,0.587,0.747,-0.012,0.665,0.875,-0.18,0.45,0.792,0.241,0.562,0.898,0.079,0.433,0.906,0.206,0.37,0.7,0.442,0.561,rock
14.911243,0.287,0.958,-0.016,0.325,0.936,0.138,-0.41,-0.834,-0.37,0.707,-0.289,0.646,0.83,-0.318,0.459,0.582,-0.077,0.81,0.707,-0.012,0.707,0.749,-0.017,0.663,0.839,-0.04,0.542,0.784,0.24,0.573,0.836,0.226,0.499,0.918,0.202,0.341,0.801,0.3,0.518,rock
14.950248,0.187,0.982,-0.004,0.287,0.949,0.133,-0.349,-0.864,-0.363,0.714,-0.34,0.612,0.825,-0.261,0.501,0.625,-0.111,0.773,0.672,0.031,0.74,0.772,-0.078,0.631,0.826,0.021,0.563,0.82,0.171,0.546,0.814,0.278,0.51,0.877,0.291,0.382,0.825,0.236,0.514,rock
14.99483,0.117,0.993,0.022,0.377,0.92,0.108,-0.325,-0.884,-0.337,0.707,-0.38,0.596,0.826,-0.252,0.504,0.63,-0.153,0.761,0.666,0.037,0.745,0.75,-0.121,0.65,0.827,0.021,0.562,0.801,0.123,0.587,0.811,0.281,0.514,0.887,0.331,0.321,0.824,0.238,0.515,rock
15.040726,0.124,0.992,0.02,0.283,0.95,0.134,-0.251,-0.902,-0.351,0.702,-0.407,0.584,0.813,-0.297,0.501,0.649,-0.169,0.742,0.676,-0.005,0.737,0.771,-0.145,0.62,0.82,-0.015,0.572,0.834,0.103,0.542,0.811,0.243,0.532,0.855,0.357,0.377,0.825,0.273,0.495,rock
15.078956,0.089,0.99,0.109,0.349,0.933,0.084,-0.251,-0.902,-0.351,0.737,-0.424,0.526,0.806,-0.23,0.545,0.702,-0.153,0.696,0.625,0.046,0.78,0.808,-0.159,0.567,0.801,0.056,0.597,0.868,0.088,0.489,0.778,0.311,0.545,0.821,0.378,0.427,0.854,0.207,0.477,rock
15.118169,0.098,0.985,0.144,0.311,0.95,0.026,-0.239,-0.935,-0.26,0.752,-0.437,0.493,0.77,-0.281,0.572,0.721,-0.164,0.673,0.612,-0.027,0.791,0.811,-0.183,0.555,0.773,-0.0,0.634,0.869,0.065,0.49,0.764,0.26,0.591,0.82,0.397,0.413,0.867,0.256,0.428,rock
15.163688,0.103,0.985,0.137,0.269,0.963,0.029,-0.171,-0.927,-0.335,0.766,-0.403,0.501,0.754,-0.298,0.585,0.717,-0.125,0.685,0.598,-0.046,0.8,0.823,-0.147,0.548,0.759,-0.011,0.651,0.875,0.098,0.474,0.751,0.248,0.612,0.815,0.375,0.443,0.874,0.262,0.41,rock
15.208697,0.17,0.982,0.085,0.14,0.983,0.117,-0.171,-0.927,-0.335,0.759,-0.375,0.532,0.742,-0.395,0.541,0.687,-0.117,0.717,0.645,-0.133,0.753,0.804,-0.124,0.582,0.768,-0.113,0.631,0.851,0.119,0.511,0.781,0.151,0.606,0.846,0.35,0.402,0.838,0.37,0.401,rock
15.247547,0.148,0.986,0.078,0.107,0.982,0.155,-0.125,-0.945,-0.304,0.753,-0.373,0.542,0.746,-0.455,0.487,0.681,-0.112,0.724,0.69,-0.176,0.702,0.801,-0.116,0.587,0.785,-0.179,0.593,0.85,0.125,0.512,0.815,0.076,0.575,0.844,0.348,0.408,0.79,0.443,0.424,rock
15.288914,0.142,0.986,0.084,0.107,0.982,0.155,-0.119,-0.955,-0.273,0.733,-0.406,0.545,0.714,-0.521,0.467,0.679,-0.15,0.719,0.699,-0.244,0.672,0.793,-0.146,0.592,0.77,-0.248,0.587,0.85,0.1,0.517,0.811,0.013,0.585,0.838,0.365,0.406,0.772,0.503,0.389,rock
15.331696,-0.007,0.999,0.052,0.259,0.963,0.08,-0.079,-0.96,-0.267,0.674,-0.474,0.566,0.775,-0.363,0.517,0.657,-0.249,0.711,0.662,-0.076,0.745,0.748,-0.236,0.621,0.797,-0.075,0.599,0.828,-0.004,0.561,0.8,0.2,0.566,0.818,0.459,0.347,0.825,0.331,0.458,rock
15.37696,0.038,0.999,0.033,0.251,0.92,0.301,-0.06,-0.961,-0.269,0.645,-0.499,0.579,0.83,-0.434,0.352,0.623,-0.302,0.722,0.793,-0.106,0.6,0.689,-0.267,0.674,0.869,-0.179,0.462,0.767,-0.028,0.641,0.896,0.075,0.438,0.872,0.439,0.219,0.699,0.46,0.548,rock
15.415873,0.027,0.985,0.173,-0.01,0.936,0.351,-0.06,-0.961,-0.269,0.698,-0.51,0.502,0.786,-0.503,0.359,0.714,-0.245,0.656,0.787,-0.178,0.591,0.799,-0.254,0.545,0.842,-0.239,0.484,0.886,-0.004,0.463,0.88,0.017,0.475,0.775,0.455,0.438,0.707,0.497,0.503,rock
15.462202,-0.003,0.97,0.242,0.302,0.951,0.063,-0.025,-0.98,-0.199,0.741,-0.516,0.43,0.776,-0.277,0.567,0.768,-0.215,0.603,0.613,-0.018,0.79,0.834,-0.261,0.486,0.776,0.012,0.631,0.909,-0.017,0.416,0.76,0.274,0.59,0.736,0.477,0.481,0.868,0.237,0.437,rock
15.500175,0.054,0.988,0.143,0.324,0.946,-0.031,-0.025,-0.98,-0.199,0.72,-0.49,0.492,0.761,-0.316,0.567,0.711,-0.232,0.664,0.619,-0.063,0.783,0.775,-0.252,0.58,0.769,-0.038,0.638,0.845,-0.012,0.535,0.767,0.222,0.602,0.818,0.456,0.35,0.856,0.298,0.422,rock
15.543188,0.091,0.992,0.083,0.111,0.978,0.176,-0.025,-0.98,-0.199,0.697,-0.454,0.555,0.766,-0.407,0.497,0.667,-0.218,0.712,0.687,-0.124,0.716,0.762,-0.208,0.614,0.793,-0.128,0.595,0.832,0.037,0.553,0.813,0.136,0.566,0.846,0.404,0.348,0.808,0.389,0.443,rock
15.586227,0.126,0.989,0.079,0.194,0.968,0.162,-0.024,-0.994,-0.106,0.709,-0.432,0.557,0.769,-0.444,0.46,0.666,-0.199,0.719,0.72,-0.148,0.678,0.762,-0.191,0.619,0.807,-0.177,0.563,0.824,0.05,0.565,0.837,0.08,0.541,0.858,0.397,0.325,0.769,0.444,0.46,rock
15.629874,0.044,0.99,0.131,0.048,0.959,0.279,-0.003,-0.997,-0.072,0.726,-0.455,0.516,0.766,-0.5,0.403,0.709,-0.193,0.679,0.759,-0.194,0.622,0.803,-0.21,0.558,0.818,-0.237,0.525,0.876,0.032,0.482,0.86,0.015,0.51,0.797,0.435,0.419,0.731,0.493,0.472,rock
15.669217,-0.008,0.993,0.119,0.242,0.959,0.148,0.017,-0.998,-0.063,0.7,-0.501,0.508,0.789,-0.389,0.476,0.712,-0.233,0.662,0.704,-0.091,0.704,0.795,-0.244,0.556,0.812,-0.106,0.573,0.877,0.001,0.48,0.827,0.157,0.54,0.787,0.457,0.415,0.801,0.368,0.472,rock
15.712737,-0.06,0.995,0.083,0.257,0.964,0.068,0.017,-0.998,-0.063,0.633,-0.563,0.531,0.771,-0.34,0.539,0.665,-0.342,0.664,0.647,-0.07,0.759,0.713,-0.327,0.62,0.785,-0.058,0.617,0.81,-0.088,0.58,0.791,0.203,0.577,0.819,0.506,0.269,0.843,0.313,0.438,rock
15.75156,-0.026,0.992,0.125,0.162,0.979,0.125,0.017,-0.998,-0.063,0.653,-0.564,0.506,0.752,-0.401,0.524,0.687,-0.332,0.646,0.669,-0.132,0.732,0.731,-0.332,0.596,0.779,-0.12,0.615,0.826,-0.092,0.557,0.799,0.136,0.585,0.807,0.513,0.293,0.824,0.38,0.42,rock
15.796069,0.045,0.978,0.202,0.162,0.979,0.125,-0.001,-0.997,0.079,0.724,-0.519,0.455,0.74,-0.426,0.52,0.748,-0.241,0.619,0.67,-0.154,0.726,0.807,-0.28,0.519,0.773,-0.147,0.617,0.888,-0.036,0.458,0.8,0.112,0.589,0.767,0.489,0.415,0.82,0.398,0.412,rock
15.834817,0.055,0.977,0.206,0.145,0.982,0.118,-0.001,-0.997,0.079,0.741,-0.504,0.444,0.735,-0.435,0.52,0.754,-0.226,0.617,0.674,-0.167,0.72,0.812,-0.273,0.515,0.772,-0.161,0.615,0.886,-0.034,0.462,0.801,0.098,0.59,0.77,0.49,0.408,0.816,0.406,0.411,rock
15.881196,0.031,0.983,0.181,0.145,0.982,0.118,0.006,-0.99,0.137,0.744,-0.498,0.446,0.738,-0.473,0.482,0.758,-0.212,0.617,0.701,-0.193,0.687,0.823,-0.261,0.504,0.782,-0.2,0.591,0.898,-0.024,0.439,0.819,0.057,0.571,0.749,0.49,0.446,0.788,0.447,0.423,rock
15.919941,-0.022,0.982,0.188,0.14,0.979,0.15,0.006,-0.99,0.137,0.735,-0.514,0.443,0.75,-0.411,0.519,0.761,-0.22,0.611,0.672,-0.137,0.728,0.828,-0.266,0.494,0.779,-0.131,0.613,0.907,-0.029,0.419,0.8,0.133,0.585,0.724,0.501,0.475,0.825,0.376,0.423,rock
15.962167,-0.053,0.998,0.047,0.37,0.928,0.028,-0.025,-0.976,0.217,0.666,-0.534,0.521,0.781,-0.268,0.564,0.685,-0.291,0.668,0.612,-0.006,0.791,0.745,-0.297,0.597,0.78,0.017,0.625,0.834,-0.063,0.548,0.767,0.282,0.576,0.795,0.509,0.329,0.863,0.226,0.452,rock
16.002789,-0.043,0.999,0.0,0.316,0.943,0.105,-0.025,-0.976,0.217,0.606,-0.55,0.575,0.793,-0.374,0.48,0.612,-0.359,0.704,0.702,-0.088,0.707,0.656,-0.322,0.682,0.817,-0.104,0.567,0.746,-0.092,0.659,0.834,0.149,0.531,0.851,0.494,0.18,0.795,0.369,0.481,rock
16.047502,-0.071,0.996,0.06,0.092,0.97,0.225,-0.075,-0.962,0.262,0.65,-0.553,0.521,0.769,-0.46,0.444,0.684,-0.309,0.661,0.727,-0.162,0.668,0.748,-0.305,0.589,0.808,-0.186,0.558,0.846,-0.065,0.529,0.841,0.071,0.537,0.788,0.51,0.345,0.77,0.446,0.457,rock
16.092833,-0.023,0.989,0.144,0.177,0.976,0.124,-0.072,-0.961,0.266,0.705,-0.521,0.482,0.759,-0.419,0.498,0.723,-0.246,0.645,0.682,-0.139,0.718,0.792,-0.269,0.548,0.79,-0.138,0.598,0.876,-0.03,0.481,0.811,0.122,0.573,0.768,0.495,0.405,0.808,0.398,0.435,rock
16.536003,0.001,0.993,0.117,0.16,0.983,0.084,-0.072,-0.961,0.266,0.709,-0.502,0.495,0.738,-0.394,0.548,0.714,-0.228,0.662,0.632,-0.132,0.764,0.797,-0.242,0.554,0.756,-0.103,0.646,0.876,0.001,0.483,0.767,0.169,0.619,0.777,0.465,0.425,0.851,0.353,0.389,rock
16.536616,-0.02,0.993,0.12,0.16,0.983,0.084,-0.118,-0.93,0.349,0.693,-0.511,0.509,0.72,-0.251,0.647,0.699,-0.254,0.668,0.515,-0.032,0.856,0.77,-0.262,0.582,0.71,0.039,0.703,0.85,-0.023,0.526,0.681,0.305,0.665,0.796,0.477,0.372,0.911,0.217,0.351,rock
16.536748,0.021,0.994,0.111,0.188,0.982,0.026,-0.118,-0.93,0.349,0.695,-0.492,0.524,0.718,-0.398,0.571,0.681,-0.25,0.688,0.604,-0.153,0.782,0.749,-0.253,0.612,0.74,-0.109,0.664,0.823,-0.016,0.568,0.748,0.155,0.645,0.83,0.457,0.319,0.847,0.388,0.362,rock
16.536878,0.096,0.987,0.13,-0.016,0.96,0.279,-0.144,-0.932,0.333,0.744,-0.436,0.507,0.719,-0.548,0.428,0.711,-0.166,0.683,0.719,-0.265,0.642,0.804,-0.188,0.564,0.778,-0.288,0.558,0.867,0.053,0.496,0.825,-0.035,0.564,0.812,0.413,0.412,0.721,0.563,0.404,rock
16.537007,0.145,0.959,0.245,-0.095,0.931,0.353,-0.144,-0.932,0.333,0.826,-0.378,0.418,0.675,-0.693,0.253,0.776,-0.055,0.629,0.8,-0.395,0.452,0.874,-0.124,0.47,0.765,-0.491,0.416,0.912,0.113,0.395,0.847,-0.272,0.457,0.767,0.379,0.518,0.524,0.762,0.381,rock
16.537129,-0.049,0.964,0.263,-0.69,0.64,0.34,-0.173,-0.9,0.401,0.784,-0.474,0.402,0.62,-0.732,0.282,0.8,-0.146,0.582,0.71,-0.449,0.542,0.882,-0.229,0.413,0.745,-0.431,0.51,0.95,0.002,0.311,0.804,-0.144,0.577,0.621,0.482,0.619,0.62,0.684,0.385,rock
16.53725,0.065,0.975,0.212,0.986,0.127,-0.113,-0.173,-0.9,0.401,0.762,-0.482,0.432,0.998,0.0,-0.067,0.756,-0.209,0.621,0.831,0.416,0.369,0.804,-0.27,0.529,0.983,0.179,-0.045,0.866,-0.043,0.498,0.91,0.397,-0.117,0.782,0.494,0.381,0.235,0.141,0.962,rock
16.538027,0.163,0.958,0.238,-0.455,0.271,0.848,-0.173,-0.9,0.401,0.787,-0.433,0.439,0.501,-0.679,-0.536,0.761,-0.136,0.634,0.877,-0.334,-0.346,0.848,-0.184,0.496,0.644,-0.669,-0.372,0.907,0.065,0.416,0.759,-0.579,-0.296,0.781,0.392,0.486,-0.237,0.805,0.544,rock
16.538162,0.156,0.958,0.241,-0.455,0.271,0.848,-0.194,-0.924,0.33,0.785,-0.424,0.452,0.71,-0.598,-0.373,0.766,-0.103,0.635,0.982,-0.18,-0.06,0.886,-0.135,0.445,0.862,-0.481,-0.16,0.941,0.132,0.313,0.943,-0.307,-0.132,0.729,0.311,0.61,0.042,0.706,0.706,rock
16.538295,0.084,0.965,0.25,0.585,0.741,-0.331,-0.194,-0.924,0.33,0.781,-0.449,0.434,0.831,-0.055,0.554,0.769,-0.139,0.624,0.428,0.201,0.881,0.861,-0.183,0.475,0.745,0.257,0.616,0.923,0.073,0.378,0.586,0.56,0.586,0.767,0.378,0.518,0.894,0.03,0.447,rock
16.546561,0.108,0.971,0.214,0.585,0.741,-0.331,-0.238,-0.909,0.343,0.77,-0.431,0.47,0.645,0.069,0.761,0.741,-0.143,0.656,0.205,0.184,0.961,0.839,-0.177,0.515,0.566,0.377,0.733,0.898,0.074,0.433,0.392,0.619,0.681,0.8,0.377,0.466,0.965,-0.145,0.217,rock
16.591907,0.236,0.963,0.126,0.142,0.974,-0.177,-0.238,-0.909,0.343,0.792,-0.341,0.506,0.536,-0.386,0.751,0.703,-0.055,0.709,0.335,-0.256,0.907,0.829,-0.064,0.556,0.539,-0.08,0.838,0.861,0.192,0.471,0.488,0.183,0.854,0.861,0.267,0.433,0.919,0.394,0.022,rock
16.636694,0.151,0.985,0.079,-0.216,0.902,-0.373,-0.22,-0.91,0.351,0.771,-0.332,0.543,0.384,-0.357,0.851,0.683,-0.062,0.727,0.144,-0.24,0.96,0.826,-0.075,0.559,0.385,-0.0,0.923,0.871,0.161,0.464,0.304,0.278,0.911,0.822,0.325,0.468,0.958,0.261,-0.116,rock
17.046158,0.17,0.981,0.097,0.091,0.996,0.0,-0.22,-0.91,0.351,0.766,-0.354,0.537,0.648,-0.648,0.399,0.684,-0.091,0.724,0.505,-0.367,0.781,0.812,-0.105,0.575,0.688,-0.344,0.639,0.86,0.131,0.493,0.65,0.054,0.758,0.831,0.349,0.433,0.636,0.752,0.173,rock
17.046337,0.121,0.986,0.117,0.935,-0.065,0.348,-0.229,-0.89,0.393,0.748,-0.388,0.538,0.826,0.511,-0.236,0.691,-0.127,0.711,0.445,0.85,0.283,0.813,-0.14,0.565,0.719,0.643,-0.265,0.87,0.096,0.484,0.407,0.851,-0.333,0.807,0.379,0.453,-0.04,-0.554,0.831,rock
17.046467,0.126,0.984,0.126,0.935,-0.065,0.348,-0.229,-0.89,0.393,0.708,-0.442,0.551,0.813,-0.029,-0.581,0.662,-0.213,0.719,0.907,0.389,-0.162,0.752,-0.198,0.629,0.87,-0.029,-0.493,0.813,0.047,0.581,0.849,0.196,-0.49,0.859,0.385,0.339,-0.183,0.274,0.944,rock
17.04659,0.053,0.998,0.045,0.388,0.692,0.608,-0.246,-0.887,0.392,0.691,-0.447,0.568,0.967,-0.091,0.237,0.647,-0.215,0.731,0.741,0.265,0.617,0.743,-0.177,0.645,0.94,0.124,0.319,0.796,0.081,0.599,0.867,0.387,0.314,0.878,0.349,0.327,0.677,0.239,0.697,rock
17.046712,0.054,0.979,0.195,-0.945,0.298,0.133,-0.257,-0.883,0.393,0.74,-0.472,0.48,-0.187,-0.982,0.012,0.727,-0.175,0.664,0.231,-0.972,-0.035,0.82,-0.185,0.542,-0.023,-0.966,0.256,0.884,0.068,0.463,0.12,-0.9,0.42,0.763,0.403,0.506,0.032,0.929,-0.367,rock
17.046835,-0.137,0.99,-0.016,-0.945,0.298,0.133,-0.257,-0.883,0.393,0.648,-0.468,0.6,-0.199,0.117,0.973,0.623,-0.258,0.738,-0.485,-0.127,0.865,0.73,-0.202,0.653,-0.221,0.298,0.928,0.798,0.063,0.599,-0.283,0.378,0.881,0.895,0.332,0.298,0.792,-0.223,-0.569,rock
17.046956,0.432,0.825,0.365,-0.487,0.869,0.09,-0.257,-0.883,0.393,0.92,-0.162,0.357,0.235,-0.871,0.431,0.779,0.158,0.607,0.452,-0.757,0.472,0.924,0.013,0.382,0.365,-0.71,0.602,0.931,0.197,0.308,0.503,-0.553,0.664,0.745,0.348,0.569,0.455,0.889,-0.049,rock
17.047859,0.549,0.63,0.549,-0.505,0.136,0.852,-0.257,-0.883,0.393,0.957,-0.103,0.272,0.323,-0.703,-0.634,0.822,0.277,0.498,0.758,-0.397,-0.517,0.986,0.088,0.141,0.463,-0.732,-0.5,0.966,0.256,-0.044,0.585,-0.686,-0.432,0.421,0.245,0.873,-0.442,0.767,0.465,rock
17.047992,-0.05,0.941,0.336,0.522,-0.541,0.66,-0.289,-0.901,0.322,0.854,-0.386,0.35,0.346,0.411,-0.843,0.844,-0.035,0.535,0.301,0.691,-0.657,0.936,-0.181,0.301,0.28,0.323,-0.904,0.987,0.014,0.157,0.161,0.28,-0.946,0.564,0.495,0.661,-0.667,-0.333,0.667,rock
17.071106,0.035,0.999,0.025,0.535,-0.585,0.61,-0.331,-0.877,0.348,0.729,-0.456,0.511,0.372,0.448,-0.813,0.683,-0.23,0.693,0.343,0.686,-0.642,0.748,-0.19,0.636,0.318,0.289,-0.903,0.801,0.104,0.59,0.204,0.227,-0.952,0.935,0.253,0.248,-0.671,-0.264,0.693,rock
17.105153,0.075,0.984,0.163,0.956,-0.285,-0.074,-0.331,-0.877,0.348,0.636,-0.504,0.585,0.399,0.873,-0.281,0.657,-0.257,0.709,-0.007,0.998,-0.058,0.769,-0.225,0.598,0.231,0.881,-0.412,0.856,0.025,0.517,0.014,0.855,-0.519,0.792,0.431,0.433,-0.172,-0.839,0.516,rock
17.555833,0.075,0.994,0.079,-0.093,0.105,0.99,-0.327,-0.85,0.412,0.705,-0.447,0.551,0.508,-0.111,-0.854,0.621,-0.234,0.749,0.715,0.221,-0.663,0.664,-0.192,0.722,0.509,-0.298,-0.807,0.691,0.049,0.721,0.514,-0.347,-0.784,0.923,0.358,0.143,-0.624,0.471,0.624,rock
17.556024,0.248,0.958,-0.147,-0.962,0.016,0.274,-0.327,-0.85,0.412,0.638,-0.37,0.675,-0.473,-0.685,-0.554,0.568,-0.092,0.818,-0.055,-0.767,-0.639,0.78,0.073,0.622,-0.482,-0.843,-0.241,0.798,0.415,0.438,-0.439,-0.898,0.02,0.819,-0.127,0.56,-0.434,0.695,-0.573,rock
17.556209,0.243,0.969,0.043,0.266,0.195,-0.944,-0.327,-0.85,0.412,0.694,-0.338,0.636,-0.34,0.173,0.924,0.57,-0.147,0.809,-0.607,-0.144,0.781,0.689,-0.083,0.72,-0.385,0.29,0.876,0.713,0.156,0.684,-0.416,0.323,0.85,0.941,0.277,0.194,0.673,-0.26,-0.693,rock
17.556364,0.367,0.909,0.199,-0.784,0.619,0.049,-0.327,-0.85,0.412,0.835,-0.218,0.505,-0.161,-0.869,0.467,0.686,0.028,0.727,0.111,-0.918,0.38,0.825,-0.025,0.565,-0.008,-0.766,0.643,0.839,0.185,0.512,0.145,-0.658,0.739,0.866,0.302,0.398,0.351,0.848,-0.397,rock
17.556497,0.491,0.806,0.33,-0.784,0.619,0.049,-0.326,-0.886,0.331,0.873,-0.185,0.451,0.114,-0.858,0.501,0.757,0.147,0.637,0.294,-0.765,0.573,0.946,0.061,0.318,0.253,-0.601,0.759,0.952,0.278,0.13,0.356,-0.405,0.842,0.586,0.203,0.784,0.614,0.764,-0.199,rock
17.55663,0.295,0.896,0.331,0.927,0.361,0.103,-0.326,-0.886,0.331,0.921,-0.214,0.325,0.804,-0.57,-0.168,0.824,0.127,0.552,0.958,-0.142,0.248,0.952,-0.045,0.302,0.942,-0.326,-0.072,0.972,0.139,0.191,0.992,-0.119,-0.04,0.69,0.383,0.614,0.0,0.654,0.757,rock
17.556753,0.144,0.885,0.442,0.927,0.361,0.103,-0.313,-0.888,0.336,0.926,-0.218,0.308,0.499,0.103,-0.86,0.831,0.168,0.53,0.588,0.514,-0.625,0.973,0.008,0.232,0.487,0.087,-0.869,0.972,0.218,0.089,0.342,0.09,-0.935,0.609,0.307,0.732,-0.699,-0.017,0.715,rock
17.557711,0.311,0.886,0.344,-0.466,-0.636,0.615,-0.313,-0.888,0.336,0.821,-0.41,0.398,-0.463,0.426,-0.778,0.818,-0.039,0.574,-0.518,0.358,-0.777,0.941,-0.116,0.318,-0.54,0.354,-0.764,0.982,0.125,0.14,-0.69,0.218,-0.69,0.485,0.335,0.808,-0.8,-0.574,-0.174,rock
17.557839,-0.028,0.993,0.112,0.674,-0.541,-0.502,-0.313,-0.888,0.336,0.64,-0.568,0.517,-0.353,0.932,0.081,0.659,-0.351,0.665,-0.772,0.63,0.08,0.692,-0.326,0.644,-0.525,0.847,-0.083,0.771,-0.08,0.632,-0.697,0.706,-0.125,0.854,0.472,0.219,-0.16,-0.934,-0.321,rock
17.55796,-0.041,0.999,0.024,-0.592,0.033,-0.805,-0.285,-0.862,0.419,0.604,-0.511,0.611,-0.778,0.344,0.525,0.59,-0.315,0.743,-0.921,-0.079,0.381,0.678,-0.239,0.695,-0.769,0.359,0.53,0.757,0.017,0.653,-0.798,0.282,0.532,0.891,0.377,0.254,0.2,-0.384,-0.901,rock
17.575693,0.381,0.919,0.107,0.37,0.397,-0.84,-0.292,-0.879,0.376,0.758,-0.291,0.584,-0.09,0.269,0.959,0.635,-0.054,0.771,-0.456,0.046,0.889,0.783,-0.036,0.62,-0.146,0.462,0.875,0.81,0.207,0.549,-0.236,0.531,0.814,0.887,0.253,0.385,0.791,-0.369,-0.488,rock
17.614805,0.476,0.856,0.202,-0.23,0.973,-0.0,-0.292,-0.879,0.376,0.871,-0.132,0.474,0.328,-0.786,0.524,0.685,0.153,0.712,0.426,-0.64,0.64,0.864,0.095,0.495,0.447,-0.537,0.716,0.858,0.311,0.408,0.518,-0.383,0.765,0.837,0.2,0.51,0.524,0.851,-0.044,rock
18.066956,0.467,0.833,0.299,-0.591,0.224,0.775,-0.262,-0.895,0.36,0.912,-0.109,0.395,0.247,-0.772,-0.586,0.743,0.232,0.628,0.703,-0.519,-0.486,0.934,0.14,0.328,0.397,-0.811,-0.43,0.919,0.352,0.177,0.511,-0.792,-0.334,0.675,0.139,0.725,-0.421,0.856,0.3,rock
18.067111,0.231,0.915,0.33,-0.231,-0.443,0.866,-0.262,-0.895,0.36,0.9,-0.25,0.359,-0.018,-0.277,-0.961,0.801,0.119,0.586,0.327,-0.102,-0.94,0.946,0.017,0.324,0.019,-0.447,-0.894,0.953,0.239,0.187,0.0,-0.536,-0.845,0.67,0.256,0.697,-0.888,0.408,0.213,rock
18.067285,-0.119,0.977,0.175,-0.334,-0.907,0.255,-0.292,-0.894,0.339,0.693,-0.545,0.472,-0.533,0.516,-0.671,0.74,-0.252,0.624,-0.632,0.361,-0.686,0.829,-0.268,0.491,-0.627,0.313,-0.714,0.923,-0.023,0.385,-0.756,0.155,-0.636,0.702,0.478,0.528,-0.831,-0.475,-0.288,rock
18.067429,-0.171,0.985,-0.013,0.625,-0.469,-0.625,-0.292,-0.894,0.339,0.498,-0.634,0.592,-0.34,0.938,0.07,0.562,-0.471,0.68,-0.752,0.651,0.101,0.593,-0.405,0.697,-0.482,0.872,-0.08,0.71,-0.176,0.682,-0.662,0.739,-0.121,0.834,0.538,0.118,-0.141,-0.952,-0.27,rock
18.067554,-0.051,0.998,-0.048,0.625,-0.469,-0.625,-0.261,-0.875,0.409,0.506,-0.562,0.654,-0.279,0.907,0.314,0.497,-0.438,0.749,-0.734,0.551,0.398,0.533,-0.335,0.777,-0.398,0.896,0.199,0.628,-0.101,0.771,-0.594,0.782,0.188,0.899,0.438,0.031,0.042,-0.885,-0.464,rock
18.067682,0.156,0.987,-0.041,-0.573,0.75,0.331,-0.261,-0.875,0.409,0.651,-0.362,0.667,0.276,-0.921,0.276,0.554,-0.17,0.815,0.475,-0.741,0.475,0.697,-0.084,0.712,0.449,-0.689,0.569,0.748,0.168,0.642,0.503,-0.472,0.724,0.932,0.25,0.262,0.39,0.919,-0.056,rock
18.067802,0.396,0.917,0.053,-0.439,0.879,0.186,-0.254,-0.879,0.403,0.801,-0.225,0.554,0.396,-0.855,0.334,0.657,0.049,0.753,0.559,-0.663,0.497,0.833,0.044,0.551,0.526,-0.652,0.547,0.849,0.285,0.444,0.605,-0.432,0.669,0.848,0.197,0.493,0.455,0.89,0.021,rock
18.068809,0.25,0.938,0.241,-0.626,0.708,0.327,-0.254,-0.879,0.403,0.834,-0.301,0.463,0.351,-0.912,0.211,0.746,0.016,0.666,0.506,-0.723,0.47,0.894,-0.038,0.446,0.508,-0.665,0.547,0.925,0.202,0.323,0.529,-0.397,0.75,0.726,0.277,0.629,0.413,0.91,-0.041,rock
18.068944,0.102,0.975,0.199,0.759,-0.12,-0.639,-0.253,-0.892,0.374,0.771,-0.409,0.488,0.111,0.889,0.444,0.731,-0.124,0.671,-0.452,0.666,0.594,0.841,-0.156,0.517,-0.05,0.952,0.301,0.897,0.083,0.434,-0.296,0.933,0.205,0.776,0.387,0.498,0.323,-0.943,-0.081,rock
18.069076,0.109,0.993,0.037,0.886,-0.168,-0.431,-0.27,-0.88,0.392,0.69,-0.431,0.581,0.673,0.74,-0.0,0.632,-0.217,0.744,0.0,0.814,0.581,0.723,-0.189,0.665,0.541,0.841,-0.0,0.782,0.048,0.621,0.173,0.983,-0.058,0.883,0.382,0.273,0.083,-0.662,0.745,rock
18.079959,0.122,0.993,0.004,-0.349,0.536,0.769,-0.27,-0.88,0.392,0.682,-0.409,0.607,0.579,-0.745,-0.331,0.613,-0.194,0.766,0.917,-0.397,-0.031,0.73,-0.151,0.667,0.746,-0.66,-0.086,0.789,0.093,0.607,0.866,-0.5,0.0,0.891,0.341,0.298,-0.028,0.876,0.481,rock
18.125787,0.161,0.978,0.133,-0.419,0.565,0.711,-0.276,-0.879,0.388,0.745,-0.394,0.538,0.639,-0.746,-0.186,0.693,-0.121,0.711,0.902,-0.407,0.145,0.825,-0.119,0.553,0.799,-0.599,0.057,0.883,0.131,0.451,0.902,-0.386,0.193,0.808,0.333,0.486,0.144,0.861,0.488,rock
18.162892,0.129,0.97,0.206,-0.419,0.565,0.711,-0.292,-0.883,0.367,0.776,-0.409,0.481,0.848,-0.53,0.0,0.734,-0.118,0.669,0.808,-0.115,0.577,0.844,-0.15,0.516,0.946,-0.167,0.278,0.898,0.096,0.428,0.902,0.193,0.386,0.787,0.374,0.491,0.389,0.713,0.583,rock
18.576167,0.103,0.979,0.173,0.597,0.796,0.1,-0.266,-0.873,0.408,0.75,-0.434,0.499,0.996,-0.091,0.0,0.72,-0.159,0.675,0.487,0.324,0.811,0.823,-0.177,0.539,0.889,0.323,0.323,0.887,0.07,0.457,0.504,0.755,0.42,0.798,0.388,0.461,0.596,0.298,0.745,rock
18.576335,0.102,0.981,0.164,0.597,0.796,0.1,-0.266,-0.873,0.408,0.751,-0.441,0.492,0.788,0.501,0.358,0.724,-0.164,0.67,0.11,0.551,0.827,0.82,-0.186,0.541,0.598,0.717,0.359,0.884,0.059,0.464,0.161,0.913,0.376,0.799,0.4,0.449,0.667,-0.572,0.477,rock
18.576491,0.108,0.976,0.191,0.873,0.436,-0.218,-0.266,-0.873,0.408,0.762,-0.431,0.483,0.655,0.737,0.164,0.732,-0.146,0.665,-0.064,0.706,0.706,0.832,-0.175,0.526,0.41,0.889,0.205,0.893,0.069,0.445,-0.061,0.968,0.242,0.791,0.394,0.469,0.381,-0.889,0.254,rock
18.576621,0.113,0.981,0.156,0.814,0.0,-0.581,-0.266,-0.873,0.408,0.749,-0.426,0.508,0.205,0.957,0.205,0.711,-0.15,0.687,-0.451,0.702,0.551,0.819,-0.167,0.549,0.0,0.986,0.164,0.88,0.079,0.467,-0.313,0.94,0.134,0.807,0.38,0.453,0.141,-0.987,-0.071,rock
18.576757,0.104,0.989,0.108,0.812,-0.101,-0.575,-0.274,-0.879,0.391,0.728,-0.421,0.541,0.088,0.971,0.221,0.68,-0.166,0.714,-0.52,0.705,0.482,0.79,-0.161,0.592,-0.079,0.984,0.157,0.852,0.083,0.517,-0.387,0.916,0.106,0.84,0.371,0.397,0.094,-0.986,-0.141,rock
18.576887,0.115,0.991,0.075,0.763,-0.0,-0.646,-0.274,-0.879,0.391,0.702,-0.423,0.574,0.067,0.94,0.336,0.649,-0.185,0.738,-0.544,0.593,0.593,0.764,-0.162,0.625,-0.114,0.967,0.228,0.831,0.082,0.551,-0.4,0.889,0.222,0.857,0.366,0.363,0.136,-0.953,-0.272,rock
18.577005,0.1,0.992,0.08,0.763,-0.0,-0.646,-0.266,-0.873,0.408,0.7,-0.426,0.574,0.186,0.838,0.512,0.65,-0.184,0.737,-0.396,0.612,0.684,0.767,-0.157,0.622,0.04,0.916,0.398,0.832,0.093,0.547,-0.244,0.905,0.348,0.858,0.355,0.372,0.501,-0.852,-0.15,rock
18.577871,0.121,0.988,0.094,0.763,-0.0,-0.646,-0.266,-0.873,0.408,0.716,-0.416,0.561,0.154,0.617,0.772,0.66,-0.172,0.731,-0.388,0.349,0.853,0.77,-0.156,0.619,0.0,0.75,0.662,0.829,0.089,0.553,-0.226,0.793,0.566,0.86,0.362,0.361,0.692,-0.634,-0.346,rock
18.577997,0.131,0.985,0.115,-0.651,0.759,-0.0,-0.266,-0.873,0.408,0.731,-0.406,0.548,0.108,-0.755,0.647,0.672,-0.154,0.724,-0.072,-0.503,0.862,0.786,-0.147,0.601,0.188,-0.282,0.941,0.843,0.097,0.529,-0.077,0.0,0.997,0.846,0.362,0.391,0.331,0.745,-0.579,rock
18.589969,0.118,0.987,0.113,-0.702,0.702,0.117,-0.266,-0.873,0.408,0.732,-0.409,0.545,0.077,-0.997,0.0,0.679,-0.155,0.718,0.218,-0.873,0.436,0.793,-0.154,0.589,0.169,-0.845,0.507,0.854,0.088,0.513,0.092,-0.552,0.829,0.832,0.372,0.412,0.0,0.942,-0.336,rock
18.629196,0.093,0.987,0.13,-0.766,0.418,0.488,-0.266,-0.873,0.408,0.733,-0.422,0.533,-0.0,-0.88,-0.474,0.689,-0.163,0.706,0.341,-0.936,-0.085,0.795,-0.168,0.582,0.164,-0.983,-0.082,0.857,0.073,0.51,0.108,-0.97,0.216,0.826,0.387,0.409,-0.395,0.903,-0.169,rock
18.673804,0.106,0.989,0.102,-0.836,0.193,0.514,-0.262,-0.868,0.421,0.719,-0.426,0.55,-0.067,-0.798,-0.599,0.676,-0.174,0.716,0.348,-0.87,-0.348,0.787,-0.166,0.595,0.085,-0.936,-0.341,0.852,0.08,0.517,-0.0,-1.0,0.0,0.836,0.373,0.402,-0.507,0.845,-0.169,rock
19.083095,0.109,0.987,0.117,-0.742,0.636,0.212,-0.262,-0.868,0.421,0.727,-0.423,0.541,-0.0,-0.848,-0.53,0.684,-0.162,0.711,0.162,-0.973,0.162,0.8,-0.158,0.579,0.164,-0.986,-0.0,0.865,0.09,0.493,-0.426,-0.64,0.64,0.826,0.366,0.428,-0.453,0.815,-0.362,rock
19.086041,0.125,0.983,0.137,-0.742,0.636,0.212,-0.261,-0.887,0.381,0.742,-0.412,0.529,-0.485,0.728,0.485,0.695,-0.146,0.704,-0.749,0.094,0.656,0.811,-0.148,0.566,-0.424,0.707,0.566,0.872,0.099,0.48,-0.655,0.573,0.492,0.821,0.361,0.443,-0.265,-0.265,-0.927,rock
19.086178,0.137,0.983,0.12,0.293,-0.073,-0.953,-0.261,-0.887,0.381,0.737,-0.404,0.541,-0.597,0.697,0.398,0.684,-0.143,0.716,-0.836,0.193,0.514,0.802,-0.142,0.58,-0.562,0.723,0.402,0.86,0.103,0.5,-0.701,0.584,0.409,0.831,0.359,0.425,-0.082,-0.572,-0.816,rock
19.08632,0.122,0.987,0.106,0.293,-0.073,-0.953,-0.237,-0.883,0.405,0.727,-0.414,0.548,-0.505,0.808,0.303,0.676,-0.161,0.719,-0.809,0.311,0.498,0.789,-0.156,0.594,-0.545,0.778,0.311,0.851,0.089,0.518,-0.692,0.634,0.346,0.838,0.367,0.403,-0.087,-0.612,-0.786,rock
19.086453,0.117,0.986,0.116,0.316,-0.0,-0.949,-0.258,-0.877,0.406,0.72,-0.428,0.546,-0.329,0.768,0.549,0.676,-0.175,0.716,-0.715,0.26,0.65,0.786,-0.167,0.595,-0.324,0.811,0.487,0.85,0.079,0.521,-0.544,0.725,0.423,0.837,0.374,0.399,0.101,-0.704,-0.704,rock
19.086595,0.101,0.988,0.12,0.557,0.239,-0.796,-0.254,-0.878,0.406,0.721,-0.426,0.546,-0.456,0.684,0.57,0.677,-0.172,0.715,-0.754,0.189,0.629,0.788,-0.166,0.593,-0.485,0.728,0.485,0.852,0.079,0.518,-0.629,0.629,0.457,0.834,0.376,0.403,0.092,-0.552,-0.829,rock
19.086724,0.115,0.988,0.106,0.38,0.152,-0.912,-0.254,-0.878,0.406,0.722,-0.419,0.55,-0.359,0.717,0.598,0.674,-0.169,0.719,-0.692,0.208,0.692,0.785,-0.162,0.598,-0.347,0.78,0.52,0.848,0.082,0.524,-0.575,0.639,0.511,0.84,0.374,0.394,0.105,-0.527,-0.843,rock
