time,s1_X,s1_Y,s1_Z,s1_gyro_x,s1_gyro_y,s1_gyro_z,s1_mag_x,s1_mag_y,s1_mag_z,s2_X,s2_Y,s2_Z,s2_gyro_x,s2_gyro_y,s2_gyro_z,s3_X,s3_Y,s3_Z,s3_gyro_x,s3_gyro_y,s3_gyro_z,s4_X,s4_Y,s4_Z,s4_gyro_x,s4_gyro_y,s4_gyro_z,s5_X,s5_Y,s5_Z,s5_gyro_x,s5_gyro_y,s5_gyro_z,s6_X,s6_Y,s6_Z,s6_gyro_x,s6_gyro_y,s6_gyro_z,label
31.003837,0.068,0.879,0.472,0.612,-0.421,-0.669,0.128,-0.951,-0.281,0.665,-0.339,0.665,-0.425,0.897,-0.118,0.755,-0.234,0.613,-0.684,0.707,0.182,0.794,-0.178,0.582,-0.429,0.883,-0.191,0.999,-0.028,0.026,-0.609,0.767,0.203,0.308,0.895,0.323,-0.028,-0.91,0.414,rock
40.159828,0.528,0.075,0.846,-0.978,-0.173,0.115,-0.335,-0.408,-0.849,0.963,0.211,-0.167,-0.0,0.423,-0.906,0.838,0.536,-0.103,-0.577,0.577,-0.577,0.783,0.609,-0.123,-0.468,0.468,-0.749,0.56,0.704,-0.437,-0.816,0.408,-0.408,-0.005,-0.608,0.794,0.496,0.447,0.744,none
24.908694,0.099,0.772,0.627,0.32,0.578,0.751,0.269,-0.9,-0.342,0.77,-0.326,0.548,0.924,-0.099,0.37,0.853,-0.161,0.497,0.896,0.133,0.424,0.883,-0.189,0.43,0.971,0.024,0.24,0.988,-0.01,-0.152,0.923,0.246,-0.295,0.121,0.926,0.358,-0.188,0.835,0.517,rock
6.094432,0.101,-0.215,0.971,0.352,0.704,0.616,0.255,0.1,-0.962,0.794,0.538,0.283,0.863,-0.465,0.199,-0.212,0.797,0.566,0.0,0.048,0.999,-0.108,0.732,0.673,0.267,-0.053,0.962,-0.08,0.869,0.489,0.206,0.309,0.928,-0.451,0.284,0.846,0.145,0.291,0.946,none
30.491073,0.028,0.849,0.528,-0.168,-0.692,-0.702,-0.394,-0.852,-0.344,0.68,-0.393,0.619,-0.83,0.257,-0.495,0.791,-0.272,0.548,-0.905,0.063,-0.421,0.813,-0.246,0.528,-0.916,0.14,-0.376,0.995,-0.087,-0.047,-0.985,-0.039,0.169,0.226,0.937,0.268,-0.005,-0.89,-0.455,rock
25.210457,0.453,0.547,0.704,0.605,-0.37,-0.706,-0.34,-0.797,-0.499,0.985,-0.007,0.17,-0.964,-0.241,-0.112,0.513,0.205,0.834,-0.597,-0.134,-0.791,0.547,-0.022,0.837,-0.427,0.017,-0.904,0.491,0.405,0.771,-0.628,-0.46,-0.628,0.193,-0.14,0.971,-0.9,-0.345,-0.268,none
8.62369,-0.092,0.947,0.307,-0.047,0.981,0.187,0.64,-0.748,0.176,0.859,0.037,-0.51,0.705,0.083,-0.705,0.742,0.227,0.631,0.718,0.191,0.67,0.839,0.064,0.541,0.852,0.047,0.521,0.94,-0.06,0.336,0.857,0.0,0.514,0.884,0.101,0.456,0.873,0.218,0.436,paper
3.09469,-0.003,-0.294,0.956,0.412,-0.082,-0.907,0.179,0.156,-0.971,0.68,0.713,0.17,-0.97,-0.243,0.0,-0.168,0.898,0.406,-0.675,-0.675,-0.3,-0.04,0.875,0.483,-0.629,-0.55,-0.55,-0.143,0.955,0.259,-0.704,-0.704,-0.088,-0.627,0.325,0.708,-0.258,-0.58,-0.773,none
8.647315,-0.172,-0.034,0.984,-0.663,0.715,0.221,0.485,-0.028,-0.874,0.798,0.601,-0.052,-0.921,0.116,-0.372,-0.001,0.838,0.545,-0.237,0.434,-0.869,0.194,0.751,0.631,-0.356,0.573,-0.738,0.358,0.934,0.015,0.987,0.06,0.151,-0.713,0.607,0.352,-0.366,0.826,0.429,none
37.633639,0.076,0.814,0.576,-0.408,-0.816,0.408,0.234,-0.932,-0.276,0.742,-0.317,0.59,0.0,-0.0,-1.0,0.823,-0.166,0.544,-0.667,0.333,-0.667,0.864,-0.167,0.474,-0.196,0.0,-0.981,0.995,0.006,-0.102,-0.857,0.286,-0.429,0.17,0.908,0.383,-0.87,0.097,-0.483,rock
16.215351,0.077,0.756,0.65,0.196,-0.981,0.0,0.436,-0.795,-0.421,0.785,-0.312,0.535,-0.101,0.404,-0.909,0.866,-0.137,0.481,-0.68,0.68,-0.272,0.901,-0.178,0.396,-0.318,0.424,-0.848,0.982,0.007,-0.19,-0.78,0.52,-0.347,0.075,0.92,0.384,-0.921,-0.276,-0.276,rock
16.344578,-0.32,0.452,0.833,0.486,-0.864,0.135,0.775,-0.397,-0.491,0.826,-0.216,-0.521,-0.183,-0.365,0.913,0.916,0.392,-0.088,-0.473,-0.158,0.867,0.907,0.414,-0.079,-0.566,-0.424,0.707,0.729,0.684,-0.04,-0.647,-0.185,0.74,0.054,0.877,0.478,-0.359,-0.598,0.717,none
13.633555,-0.313,0.737,0.6,-0.64,0.426,0.64,0.898,-0.071,-0.435,0.725,-0.645,0.242,0.365,-0.183,-0.913,0.943,-0.326,0.073,-0.0,0.707,-0.707,0.952,0.133,0.275,0.535,0.802,0.267,0.937,0.18,0.301,-0.127,0.635,0.762,0.079,0.964,0.253,-0.873,0.436,-0.218,scissors
10.093216,-0.016,0.837,0.547,0.041,0.81,0.585,0.403,-0.848,-0.345,0.701,-0.422,0.574,0.712,-0.404,0.574,0.818,-0.275,0.505,0.798,-0.249,0.549,0.83,-0.275,0.485,0.826,-0.227,0.516,0.99,-0.102,-0.1,0.999,-0.054,-0.011,0.175,0.949,0.264,0.092,0.957,0.275,rock
17.304917,-0.351,0.444,0.824,-0.64,-0.64,-0.426,0.775,-0.396,-0.492,0.797,-0.352,-0.49,-0.566,0.226,-0.793,0.933,0.324,-0.156,-0.937,0.156,-0.312,0.893,0.438,-0.107,-0.566,0.424,-0.707,0.712,0.698,-0.081,-0.889,0.381,-0.254,0.035,0.892,0.451,-0.796,0.1,-0.597,none
34.263804,0.513,-0.233,0.826,-0.995,-0.105,0.0,-0.363,0.049,-0.931,0.509,0.154,0.847,-0.717,-0.696,-0.042,-0.487,0.455,0.745,0.419,-0.387,0.822,0.087,0.696,0.712,0.865,-0.376,0.332,0.093,0.975,0.203,-0.907,0.249,-0.34,-0.398,0.007,0.918,-0.649,-0.29,0.704,none
46.782397,-0.397,0.243,0.885,-0.695,-0.711,0.109,0.539,-0.445,-0.715,0.629,0.726,-0.278,-0.552,0.832,0.058,-0.103,0.983,0.149,-0.532,0.284,-0.798,-0.049,0.944,0.327,-0.634,0.42,-0.65,0.037,0.908,0.417,-0.673,0.546,-0.499,0.231,0.664,0.711,-0.721,0.645,-0.253,none
7.603772,0.004,0.789,0.614,-0.076,-0.836,-0.543,0.59,-0.545,-0.596,0.755,-0.377,0.536,-0.655,0.376,-0.655,0.856,-0.209,0.472,-0.812,0.252,-0.527,0.875,-0.244,0.418,-0.786,0.237,-0.571,0.983,-0.062,-0.172,-0.995,0.095,-0.042,0.092,0.945,0.315,-0.239,-0.902,-0.359,rock
21.353218,0.321,-0.448,0.835,-0.943,-0.198,-0.268,-0.169,0.276,-0.946,0.654,0.753,0.068,-0.559,0.027,-0.829,-0.025,0.927,0.374,0.155,0.172,-0.973,0.011,0.792,0.61,0.187,0.349,-0.918,-0.114,0.981,-0.156,-0.253,-0.369,-0.894,-0.676,0.037,0.736,-0.187,0.513,-0.838,none
6.011272,0.004,0.886,0.463,-0.485,-0.872,-0.065,0.653,-0.668,-0.357,0.633,-0.379,0.675,-0.356,-0.082,-0.931,0.746,-0.272,0.608,-0.459,-0.031,-0.888,0.781,-0.212,0.587,-0.543,-0.257,-0.8,0.998,-0.06,0.02,-0.854,-0.276,-0.441,0.287,0.908,0.306,-0.636,-0.397,-0.662,rock
5.867119,-0.081,0.946,0.314,-0.894,0.447,-0.0,0.733,-0.677,0.064,0.868,0.042,-0.495,-0.0,0.371,-0.928,0.726,0.227,0.65,-0.667,0.667,0.333,0.831,0.066,0.552,-0.0,0.707,-0.707,0.936,-0.062,0.348,-0.667,0.667,0.333,0.883,0.085,0.462,-0.811,0.324,-0.487,paper
6.09601,0.099,-0.166,0.981,0.905,0.236,-0.354,0.252,0.039,-0.967,0.809,0.53,0.252,0.14,-0.734,0.664,-0.177,0.809,0.56,-0.154,-0.617,0.772,-0.075,0.74,0.669,-0.127,-0.762,0.635,-0.055,0.877,0.478,-0.204,-0.543,0.815,-0.44,0.305,0.844,0.315,-0.81,0.495,none
31.058938,0.363,-0.154,0.919,-0.909,-0.404,0.101,-0.336,-0.123,-0.934,0.598,0.232,0.767,0.857,0.429,0.286,-0.538,0.044,0.842,0.0,0.085,0.996,-0.384,-0.116,0.916,0.474,-0.309,0.824,-0.397,0.071,0.915,0.848,0.121,0.515,-0.376,-0.068,0.924,0.173,0.636,-0.752,none
35.367222,0.519,-0.38,0.766,-0.688,-0.688,-0.229,-0.372,0.201,-0.906,0.428,0.028,0.903,-0.707,-0.707,0.0,-0.61,0.166,0.775,-0.747,0.664,-0.041,0.137,0.985,0.103,-0.349,0.465,-0.814,-0.155,0.963,-0.222,-0.642,0.522,-0.562,-0.644,-0.025,0.765,-0.84,-0.344,0.42,none
31.89569,0.395,-0.24,0.887,-0.867,-0.244,-0.434,-0.291,0.005,-0.957,0.476,0.209,0.854,-0.288,0.922,-0.259,-0.666,-0.002,0.746,-0.61,0.726,0.319,-0.456,-0.155,0.876,0.0,0.167,0.986,-0.478,0.089,0.874,0.206,0.677,0.706,-0.449,0.218,0.867,0.491,-0.115,-0.864,none
14.129047,-0.07,0.968,0.239,0.528,-0.215,-0.821,-0.236,-0.972,0.011,0.819,-0.078,-0.568,-0.556,-0.822,-0.121,0.811,0.141,0.568,-0.107,-0.853,-0.512,0.875,-0.042,0.482,-0.331,-0.745,-0.579,0.947,-0.137,0.292,-0.573,-0.658,-0.488,0.917,0.072,0.393,-0.241,-0.601,-0.762,paper
4.480354,0.031,0.818,0.574,-0.456,0.57,0.684,0.52,-0.793,-0.318,0.719,-0.36,0.595,0.333,-0.667,-0.667,0.816,-0.218,0.535,0.707,-0.707,0.0,0.847,-0.215,0.487,0.686,-0.514,-0.514,0.994,-0.047,-0.095,0.371,0.0,-0.928,0.174,0.929,0.326,-0.688,0.688,-0.229,rock
49.844693,0.668,-0.526,0.526,-0.623,-0.078,0.778,-0.635,0.404,-0.658,0.4,0.341,0.85,0.805,0.346,0.481,-0.701,-0.008,0.713,-0.02,-0.126,0.992,-0.688,-0.104,0.718,0.148,-0.25,0.957,-0.809,-0.268,0.523,0.482,-0.143,0.864,-0.653,-0.449,0.611,0.711,0.117,-0.694,none
27.064362,0.647,0.119,0.753,0.585,0.81,-0.023,-0.542,-0.504,-0.673,0.416,0.654,0.632,-0.93,-0.367,0.016,0.005,0.584,0.812,-0.693,-0.085,-0.716,0.076,0.522,0.849,-0.821,-0.007,-0.571,0.027,0.757,0.653,-0.657,0.563,-0.501,0.265,-0.863,0.43,0.478,0.229,0.848,none
28.505155,0.016,0.875,0.485,0.195,0.803,0.562,-0.499,-0.579,-0.645,0.666,-0.372,0.646,0.771,-0.28,0.572,0.772,-0.253,0.584,0.807,-0.114,0.58,0.804,-0.211,0.557,0.869,-0.102,0.485,0.998,-0.054,-0.012,0.995,0.094,-0.047,0.262,0.915,0.306,0.056,0.914,0.401,rock
16.658421,-0.099,0.736,0.669,-0.389,-0.229,0.892,0.801,-0.26,-0.54,0.808,-0.483,0.338,0.714,-0.112,-0.691,0.971,-0.145,0.189,0.639,0.221,-0.737,0.899,0.019,0.438,0.3,0.808,0.508,0.89,0.052,0.453,0.109,0.765,0.634,0.069,0.887,0.456,-0.854,0.521,0.0,scissors
54.942394,0.704,-0.57,0.423,-0.917,0.393,0.066,-0.667,0.372,-0.645,0.038,0.576,0.817,-0.916,0.14,-0.376,-0.845,-0.249,0.473,0.244,0.18,-0.953,-0.778,-0.479,0.406,0.0,0.394,0.919,-0.748,-0.598,0.288,-0.237,0.047,0.97,-0.708,-0.565,0.423,-0.76,0.228,-0.608,none
9.079072,0.044,0.839,0.542,0.008,0.821,0.571,0.629,-0.431,-0.647,0.701,-0.361,0.615,0.701,-0.436,0.564,0.803,-0.227,0.551,0.805,-0.285,0.52,0.835,-0.214,0.507,0.815,-0.266,0.515,0.996,-0.049,-0.071,0.995,-0.094,-0.017,0.199,0.927,0.317,0.089,0.966,0.243,rock
19.305071,0.297,0.837,-0.46,-0.505,0.808,0.303,0.195,-0.183,0.964,0.1,-0.378,0.92,0.804,-0.402,-0.438,-0.057,-0.491,0.869,0.956,-0.291,-0.042,0.388,-0.907,-0.162,0.426,0.681,0.596,0.787,0.271,0.553,0.683,-0.729,0.046,0.897,0.018,0.442,0.676,0.676,-0.296,none
7.96485,-0.101,0.217,0.971,-0.9,-0.123,-0.419,0.378,-0.386,-0.842,0.881,0.363,-0.302,0.98,0.059,0.192,0.345,0.779,0.524,0.398,-0.112,0.911,0.356,0.698,0.621,0.6,-0.342,0.723,0.124,0.785,0.607,0.931,-0.234,0.282,-0.259,0.388,0.884,0.683,0.194,-0.705,none
5.961306,-0.067,0.833,0.549,-0.234,0.642,0.73,0.642,-0.692,-0.329,0.709,-0.528,0.467,0.728,-0.67,0.146,0.931,-0.208,0.3,0.939,-0.333,0.091,0.925,-0.109,0.365,0.948,0.118,0.296,0.931,-0.092,0.354,0.84,0.218,0.498,0.202,0.854,0.479,-0.134,0.961,0.24,scissors
19.272537,0.08,0.76,0.645,-0.577,-0.577,-0.577,0.426,-0.811,-0.402,0.784,-0.309,0.539,-0.164,0.0,-0.986,0.862,-0.134,0.489,-0.905,0.302,0.302,0.9,-0.174,0.401,-0.302,0.302,-0.905,0.983,0.011,-0.184,-0.845,0.507,-0.169,0.081,0.918,0.389,-0.862,0.123,-0.492,rock
12.725202,-0.175,-0.274,0.945,-0.539,-0.799,0.266,0.417,0.024,-0.908,0.596,0.735,-0.324,0.603,0.62,0.502,0.19,0.876,0.442,0.186,-0.21,0.96,0.251,0.808,0.533,0.666,-0.317,0.675,0.048,0.93,0.365,0.875,-0.14,0.465,-0.664,0.577,0.475,-0.791,-0.01,0.611,none
10.893191,-0.188,0.941,0.282,-0.136,0.912,0.388,0.484,-0.83,0.278,0.828,0.102,-0.551,0.781,0.185,-0.596,0.76,0.3,0.576,0.687,0.377,0.621,0.863,0.13,0.488,0.822,0.2,0.533,0.957,0.012,0.291,0.876,0.138,0.461,0.885,0.184,0.427,0.799,0.309,0.516,paper
8.051569,0.028,0.844,0.536,-0.121,-0.823,-0.555,0.518,-0.511,-0.686,0.694,-0.37,0.617,-0.681,0.328,-0.655,0.798,-0.239,0.553,-0.815,0.202,-0.543,0.83,-0.221,0.512,-0.812,0.179,-0.556,0.996,-0.055,-0.065,-0.999,0.034,-0.026,0.207,0.928,0.311,-0.218,-0.89,-0.401,rock
35.082073,0.131,0.808,0.575,0.514,-0.0,-0.857,0.213,-0.937,-0.275,0.753,-0.268,0.601,-0.87,0.348,-0.348,0.818,-0.117,0.563,-0.889,0.111,0.444,0.874,-0.115,0.472,-0.707,0.707,-0.0,0.994,0.057,-0.095,-0.722,0.619,0.309,0.16,0.885,0.437,-0.64,-0.64,-0.426,rock
31.471005,0.369,-0.151,0.917,-0.873,0.218,-0.436,-0.321,-0.115,-0.94,0.531,0.319,0.785,-0.926,0.128,-0.356,-0.574,0.103,0.812,0.106,0.445,-0.889,-0.387,-0.053,0.92,-0.056,0.617,-0.785,-0.395,0.16,0.905,-0.14,0.652,-0.745,-0.374,-0.045,0.926,0.341,0.876,0.341,none
51.884783,0.682,-0.688,0.249,-0.585,0.691,0.425,-0.754,0.457,-0.473,0.21,0.909,-0.359,0.967,0.081,0.242,-0.047,0.955,-0.292,0.619,-0.197,0.76,-0.051,0.959,-0.28,0.475,-0.713,0.515,-0.346,0.916,-0.204,0.935,-0.14,0.327,-0.811,-0.553,0.19,-0.752,-0.047,0.658,none
33.965164,0.463,-0.079,0.883,0.192,-0.962,0.192,-0.384,-0.183,-0.905,0.492,0.221,0.842,-0.71,-0.608,-0.355,-0.649,0.129,0.75,0.257,-0.77,0.584,-0.276,0.237,0.931,0.423,-0.493,0.761,0.093,0.989,0.118,-0.896,-0.43,0.108,-0.241,0.135,0.961,-0.753,-0.0,-0.659,none
25.252808,0.458,0.512,0.727,-0.341,-0.043,-0.939,-0.376,-0.783,-0.495,0.986,-0.038,0.164,-0.926,-0.282,-0.252,0.528,0.182,0.83,-0.386,-0.097,-0.917,0.581,-0.027,0.814,-0.179,-0.0,-0.984,0.508,0.417,0.754,-0.362,-0.453,-0.815,0.178,-0.121,0.977,-0.958,-0.192,-0.215,none
6.40732,-0.074,0.953,0.295,0.089,0.891,0.445,0.715,-0.69,0.108,0.855,0.026,-0.517,0.778,0.078,-0.623,0.745,0.21,0.633,0.259,0.173,0.95,0.835,0.063,0.547,0.485,0.485,0.728,0.941,-0.086,0.327,0.309,0.206,0.928,0.893,0.077,0.443,0.507,0.169,0.845,paper
31.002383,0.159,0.804,0.572,0.09,-0.905,-0.416,0.019,-0.95,-0.31,0.741,-0.276,0.612,-0.534,0.44,-0.722,0.811,-0.135,0.57,-0.731,0.382,-0.565,0.866,-0.122,0.484,-0.666,0.301,-0.682,0.995,0.048,-0.091,-0.963,0.205,-0.174,0.191,0.89,0.413,-0.427,-0.87,-0.246,rock
25.391104,0.049,0.84,0.54,0.629,0.65,0.426,0.157,-0.929,-0.335,0.731,-0.386,0.563,0.838,0.114,0.533,0.835,-0.226,0.502,0.719,0.252,0.647,0.856,-0.234,0.461,0.889,0.254,0.381,0.991,-0.053,-0.122,0.88,0.468,-0.075,0.17,0.936,0.308,-0.018,0.734,0.679,rock
37.632203,0.088,0.816,0.572,-0.577,-0.577,-0.577,0.177,-0.948,-0.263,0.738,-0.316,0.596,-0.349,0.116,-0.93,0.818,-0.169,0.55,-0.937,0.156,-0.312,0.861,-0.162,0.482,-0.596,0.298,-0.745,0.996,0.01,-0.091,-0.943,0.314,-0.105,0.179,0.905,0.385,-0.793,-0.226,-0.566,rock
2.584776,0.001,-0.273,0.962,-0.487,-0.811,0.324,0.156,0.153,-0.976,0.701,0.696,0.157,-0.123,0.862,-0.492,-0.137,0.903,0.408,-0.818,0.545,0.182,-0.007,0.879,0.477,-0.577,0.808,0.115,-0.109,0.96,0.259,-0.605,0.777,0.173,-0.606,0.351,0.713,-0.946,0.291,-0.145,none
10.220631,-0.164,0.95,0.265,0.29,0.928,-0.232,0.656,-0.668,0.353,0.82,0.066,-0.569,0.487,-0.324,-0.811,0.784,0.258,0.564,0.898,-0.163,0.408,0.877,0.085,0.473,0.92,-0.383,0.077,0.962,-0.035,0.271,0.913,-0.365,0.183,0.902,0.161,0.399,0.909,-0.101,-0.404,paper
9.12866,-0.036,0.932,0.361,-0.453,-0.494,0.742,0.472,-0.872,0.13,0.897,0.018,-0.442,0.206,0.867,0.454,0.696,0.204,0.689,-0.65,0.686,0.325,0.792,0.048,0.609,-0.42,0.84,0.344,0.906,-0.082,0.415,-0.368,0.803,0.468,0.854,0.037,0.519,-0.721,0.541,0.433,paper
26.348444,0.053,0.757,0.652,-0.102,-0.632,-0.768,0.639,-0.564,-0.523,0.811,-0.394,0.433,-0.866,0.337,-0.369,0.948,-0.077,0.31,-0.985,-0.016,-0.172,0.864,-0.139,0.484,-0.803,0.048,-0.594,0.864,-0.084,0.496,-0.819,0.033,-0.573,0.153,0.823,0.546,-0.05,-0.799,-0.599,scissors
20.894802,0.25,0.41,0.877,-0.998,-0.008,0.057,-0.197,-0.587,-0.786,0.991,0.137,-0.006,-0.16,-0.071,-0.984,0.67,0.583,0.46,0.207,0.122,-0.971,0.67,0.421,0.612,0.264,0.413,-0.872,0.594,0.795,-0.119,-0.083,-0.326,-0.942,-0.053,0.345,0.937,-0.159,0.777,-0.61,none
12.577806,-0.101,0.695,0.711,0.749,0.656,0.094,0.719,-0.139,-0.681,0.835,-0.456,0.308,0.772,0.154,0.617,0.985,-0.098,0.14,0.331,0.331,0.883,0.871,0.058,0.488,0.456,-0.684,0.57,0.863,0.063,0.501,0.0,-0.53,0.848,0.01,0.879,0.477,-0.241,0.482,0.843,scissors
2.587628,0.001,-0.285,0.958,-0.487,-0.811,0.324,0.194,0.145,-0.97,0.69,0.706,0.158,-0.123,0.862,-0.492,-0.153,0.906,0.396,-0.784,0.588,0.196,-0.027,0.882,0.471,-0.447,0.894,0.0,-0.13,0.959,0.253,-0.545,0.818,0.182,-0.618,0.341,0.708,-0.937,0.312,-0.156,none
4.480612,0.012,0.8,0.6,-0.456,0.57,0.684,0.514,-0.795,-0.321,0.738,-0.361,0.57,0.518,-0.605,-0.605,0.834,-0.209,0.51,0.754,-0.377,-0.538,0.863,-0.222,0.455,0.543,-0.641,-0.543,0.991,-0.046,-0.128,0.257,-0.411,-0.874,0.138,0.933,0.332,-0.737,0.589,-0.332,rock
17.700901,0.125,0.926,0.355,-0.345,-0.938,0.011,0.621,-0.686,-0.38,0.9,-0.183,-0.396,-0.614,0.564,0.552,0.725,0.028,0.688,-0.863,0.307,-0.402,0.767,-0.137,0.627,-0.767,0.496,-0.406,0.849,-0.237,0.473,-0.772,0.596,-0.221,0.839,-0.114,0.532,-0.916,0.323,-0.237,paper
43.24341,-0.655,0.532,0.537,-0.863,0.263,-0.432,0.812,-0.558,-0.17,0.471,0.005,-0.882,-0.922,-0.177,-0.345,0.702,0.628,-0.336,-0.024,0.052,-0.998,0.621,0.773,-0.128,0.046,0.103,-0.994,0.484,0.871,-0.085,-0.156,0.089,-0.984,0.445,0.859,0.253,-0.756,0.366,0.543,none
0.559905,0.032,0.806,0.591,0.617,-0.772,0.154,0.527,-0.773,-0.353,0.73,-0.358,0.582,-0.233,0.466,-0.854,0.834,-0.198,0.515,-0.616,0.704,-0.352,0.863,-0.214,0.457,-0.186,0.559,-0.808,0.989,-0.041,-0.139,-0.584,0.701,-0.409,0.132,0.942,0.31,-0.981,-0.187,-0.047,rock
55.963655,0.68,-0.596,0.426,0.832,0.0,-0.555,-0.622,0.418,-0.662,-0.052,-0.357,0.933,0.781,-0.488,-0.39,-0.731,-0.648,0.213,-0.07,-0.418,0.906,-0.754,-0.61,0.241,0.206,-0.309,0.928,-0.791,-0.588,0.169,-0.688,0.229,0.688,-0.729,-0.557,0.397,-0.894,-0.0,-0.447,none
6.076934,-0.079,0.949,0.306,-0.447,0.894,0.0,0.715,-0.686,0.136,0.861,0.035,-0.507,0.243,0.0,-0.97,0.734,0.224,0.641,-0.707,0.0,0.707,0.836,0.061,0.545,-0.707,0.707,0.0,0.938,-0.067,0.339,-0.667,0.333,0.667,0.886,0.085,0.456,-1.0,-0.0,0.0,paper
47.393387,0.432,-0.471,0.769,-0.624,-0.768,-0.144,-0.24,0.336,-0.911,0.322,0.523,0.789,-0.798,0.59,-0.124,-0.879,0.204,0.431,-0.485,0.151,-0.862,-0.826,0.13,0.548,-0.567,0.321,-0.759,-0.822,0.102,0.561,-0.582,0.456,-0.673,-0.554,-0.215,0.804,-0.791,0.442,-0.423,none
36.600094,0.551,-0.286,0.784,0.553,-0.614,-0.563,-0.395,0.108,-0.912,0.569,0.095,0.817,0.446,-0.739,0.505,-0.373,0.632,0.679,0.317,-0.347,0.883,-0.19,0.88,0.436,-0.833,-0.43,-0.349,-0.318,0.856,0.407,-0.887,-0.409,-0.215,-0.772,-0.078,0.63,-0.466,-0.877,-0.116,none
17.222225,-0.358,0.448,0.819,-0.816,-0.408,-0.408,0.775,-0.396,-0.492,0.799,-0.353,-0.487,-0.597,0.1,-0.796,0.933,0.326,-0.155,-0.857,0.286,-0.429,0.892,0.44,-0.107,-0.57,0.456,-0.684,0.712,0.698,-0.079,-0.848,0.424,-0.318,0.036,0.89,0.454,-0.88,0.176,-0.44,none
1.579141,-0.016,-0.267,0.964,-0.686,-0.514,0.514,0.2,0.151,-0.968,0.704,0.697,0.138,0.14,0.7,-0.7,-0.132,0.911,0.391,-0.62,0.744,0.248,-0.004,0.885,0.466,-0.275,0.962,0.0,-0.108,0.958,0.267,-0.477,0.858,0.191,-0.595,0.368,0.715,-0.874,0.486,-0.0,none
9.969341,-0.137,0.949,0.283,0.425,0.575,-0.7,0.59,-0.757,0.28,0.846,0.052,-0.53,-0.028,-0.747,-0.664,0.759,0.245,0.603,0.66,-0.739,-0.132,0.853,0.083,0.515,0.537,-0.818,-0.205,0.946,-0.029,0.324,0.352,-0.879,-0.322,0.89,0.13,0.438,0.504,-0.584,-0.637,paper
21.558918,0.309,-0.517,0.798,0.936,0.281,-0.211,-0.257,0.288,-0.923,0.576,0.814,0.068,0.175,-0.262,0.949,-0.127,0.94,0.315,-0.294,-0.436,0.85,-0.09,0.826,0.557,-0.215,-0.622,0.753,-0.21,0.965,-0.159,-0.24,0.023,0.971,-0.728,-0.012,0.685,0.4,-0.812,0.425,none
48.333152,0.805,-0.434,0.404,-0.479,-0.735,-0.479,-0.674,0.346,-0.653,0.207,0.093,0.974,-0.957,0.279,-0.08,-0.769,-0.297,0.565,-0.593,-0.544,-0.593,-0.725,-0.351,0.592,-0.631,-0.368,-0.683,-0.736,-0.395,0.55,-0.624,0.052,-0.78,-0.452,-0.784,0.425,-0.738,0.338,-0.584,none
17.68714,-0.096,0.789,0.607,0.299,0.88,0.37,0.787,-0.338,-0.517,0.792,-0.505,0.343,0.692,-0.43,0.58,0.963,-0.183,0.195,0.842,-0.092,0.531,0.916,-0.021,0.401,0.844,-0.341,0.413,0.916,0.006,0.401,0.832,-0.248,0.496,0.092,0.898,0.429,0.193,0.791,0.58,scissors
43.746224,-0.701,0.501,0.507,0.991,-0.037,-0.128,0.812,-0.568,-0.136,0.216,0.668,-0.713,0.942,-0.199,0.269,0.411,0.858,-0.309,0.049,-0.061,0.997,0.544,0.828,-0.134,0.334,-0.148,0.931,0.145,0.989,0.04,-0.103,-0.135,-0.985,0.535,0.681,0.499,-0.769,-0.598,-0.224,none
23.925965,0.082,0.753,0.653,-0.023,0.752,0.659,0.509,-0.745,-0.431,0.793,-0.311,0.524,0.78,-0.473,0.409,0.871,-0.13,0.473,0.877,-0.263,0.401,0.903,-0.182,0.389,0.863,-0.325,0.388,0.98,0.004,-0.198,0.977,-0.13,-0.169,0.065,0.924,0.378,-0.072,0.979,0.191,rock
6.959313,-0.102,0.938,0.33,-0.089,0.891,0.445,0.651,-0.755,0.083,0.868,0.069,-0.491,0.677,0.29,-0.677,0.722,0.252,0.644,0.218,0.436,0.873,0.825,0.091,0.558,0.651,0.391,0.651,0.933,-0.038,0.357,0.241,0.482,0.843,0.871,0.103,0.48,-0.0,0.707,0.707,paper
16.747368,-0.065,0.734,0.676,-0.344,0.0,0.939,0.754,-0.331,-0.567,0.818,-0.451,0.357,0.786,-0.157,-0.598,0.971,-0.113,0.212,0.759,0.217,-0.614,0.881,0.003,0.474,0.434,0.7,0.567,0.873,0.025,0.488,0.215,0.706,0.675,0.069,0.866,0.496,-0.811,0.579,0.087,scissors
17.300538,0.072,0.753,0.654,0.577,-0.577,-0.577,0.438,-0.79,-0.429,0.79,-0.31,0.529,-0.384,0.512,-0.768,0.869,-0.132,0.476,-0.824,0.549,0.137,0.904,-0.177,0.388,-0.424,0.707,-0.566,0.98,0.008,-0.199,-0.755,0.647,-0.108,0.064,0.921,0.385,-0.905,-0.302,-0.302,rock
1.579671,-0.015,-0.269,0.963,0.832,0.0,-0.555,0.184,0.153,-0.971,0.697,0.703,0.143,-0.707,-0.0,-0.707,-0.143,0.91,0.389,-0.857,-0.0,0.514,-0.014,0.885,0.465,-1.0,0.0,-0.0,-0.119,0.957,0.266,-0.905,0.302,0.302,-0.603,0.36,0.712,-0.937,-0.156,-0.312,none
36.751275,0.558,-0.44,0.703,-0.0,0.707,0.707,-0.427,0.274,-0.861,0.496,-0.048,0.867,-0.881,0.385,0.275,0.289,0.957,-0.007,-0.601,0.601,-0.526,0.359,0.932,0.044,-0.226,0.566,-0.793,-0.057,0.974,-0.221,-0.873,0.436,-0.218,-0.719,-0.221,0.659,-0.97,0.0,-0.243,none
8.105471,0.09,0.169,0.982,-0.811,-0.46,0.363,0.199,-0.34,-0.919,0.928,0.135,-0.347,0.836,0.225,-0.501,0.757,0.64,0.131,0.829,0.463,0.312,0.751,0.65,0.115,0.944,0.101,0.313,0.545,0.838,0.015,0.914,0.21,0.346,-0.45,0.753,0.48,0.341,-0.169,-0.925,none
32.022024,0.055,0.831,0.554,0.549,-0.137,-0.824,0.237,-0.942,-0.237,0.714,-0.341,0.612,-0.53,0.53,-0.662,0.805,-0.201,0.559,-0.889,0.381,0.254,0.845,-0.182,0.503,-0.566,0.707,-0.424,0.997,-0.011,-0.077,-0.796,0.597,0.1,0.216,0.911,0.351,-0.811,-0.487,-0.324,rock
29.470809,0.021,0.795,0.607,-0.905,-0.302,0.302,-0.445,-0.55,-0.707,0.749,-0.356,0.559,-0.206,-0.309,-0.928,0.843,-0.196,0.501,-0.557,-0.371,-0.743,0.87,-0.216,0.444,-0.286,-0.429,-0.857,0.989,-0.036,-0.144,-0.824,-0.137,-0.549,0.127,0.934,0.335,-0.772,0.154,-0.617,rock
10.175465,-0.043,-0.163,0.986,-0.0,0.0,-0.0,0.33,0.064,-0.942,0.559,0.396,0.729,0.049,-0.148,-0.988,-0.638,0.566,0.523,0.183,-0.365,0.913,-0.122,0.691,0.712,0.136,0.272,0.953,0.187,0.546,-0.817,0.852,-0.398,-0.341,-0.696,0.587,0.414,0.208,0.692,-0.692,none
6.45958,-0.108,0.736,0.669,-0.313,0.739,0.597,0.584,-0.746,-0.321,0.791,-0.506,0.344,0.677,-0.721,0.147,0.974,-0.156,0.162,0.921,-0.386,0.045,0.897,0.029,0.441,0.96,0.131,0.247,0.896,0.039,0.442,0.91,0.209,0.358,0.047,0.885,0.464,-0.028,0.98,0.199,scissors
3.970235,0.032,0.816,0.577,0.68,-0.68,-0.272,0.491,-0.808,-0.326,0.726,-0.361,0.585,0.115,0.577,-0.808,0.825,-0.205,0.526,-0.436,0.873,0.218,0.856,-0.211,0.472,-0.0,0.857,-0.514,0.993,-0.038,-0.112,-0.688,0.688,-0.229,0.156,0.927,0.34,-0.845,-0.507,0.169,rock
22.842548,0.032,0.82,0.571,0.0,-0.53,-0.848,0.563,-0.437,-0.701,0.717,-0.358,0.598,-0.69,0.383,-0.614,0.816,-0.214,0.537,-0.967,0.242,-0.081,0.848,-0.213,0.484,-0.786,0.437,-0.437,0.994,-0.04,-0.101,-0.924,0.355,0.142,0.175,0.929,0.327,-0.468,-0.749,-0.468,rock
11.304149,-0.074,0.959,0.275,-0.358,0.295,0.886,0.297,-0.927,0.229,0.841,-0.018,-0.541,0.777,0.63,0.0,0.78,0.183,0.598,-0.04,0.707,0.707,0.86,0.008,0.51,0.209,0.67,0.712,0.943,-0.11,0.313,0.319,0.618,0.718,0.9,0.076,0.428,0.044,0.533,0.845,paper
36.667639,0.551,-0.457,0.698,-0.577,0.577,0.577,-0.419,0.257,-0.871,0.527,-0.059,0.848,-0.921,0.39,-0.0,0.316,0.949,0.013,0.436,0.726,-0.532,0.376,0.925,0.062,0.563,0.811,-0.158,-0.034,0.975,-0.218,0.097,0.679,-0.728,-0.706,-0.205,0.678,-0.556,0.813,-0.171,none
6.537118,-0.074,0.952,0.296,0.169,0.959,0.226,0.686,-0.722,0.09,0.852,0.031,-0.522,0.706,-0.047,-0.706,0.752,0.209,0.625,0.68,0.052,0.732,0.846,0.044,0.532,0.806,-0.0,0.591,0.942,-0.088,0.325,0.791,-0.061,0.609,0.892,0.078,0.445,0.92,0.077,0.383,paper
37.631948,0.08,0.816,0.573,-0.324,-0.811,-0.487,0.218,-0.943,-0.251,0.737,-0.318,0.596,-0.389,0.291,-0.874,0.82,-0.169,0.547,-0.855,0.367,-0.367,0.86,-0.165,0.483,-0.549,0.329,-0.768,0.996,0.007,-0.092,-0.941,0.282,-0.188,0.179,0.906,0.384,-0.808,-0.303,-0.505,rock
12.732107,-0.015,-0.195,0.981,0.407,-0.913,-0.033,0.417,0.024,-0.908,0.747,0.492,-0.447,0.708,0.545,0.45,-0.02,0.913,0.407,0.382,-0.212,0.9,0.257,0.878,0.405,0.718,-0.053,0.695,0.012,0.975,0.222,0.885,-0.125,0.449,-0.649,0.567,0.508,-0.901,-0.09,0.423,none
1.096504,-0.037,-0.302,0.953,0.744,0.62,0.248,0.216,0.157,-0.964,0.676,0.722,0.145,0.667,0.333,-0.667,-0.171,0.913,0.371,-0.487,0.324,0.811,-0.047,0.889,0.456,-0.333,0.667,0.667,-0.153,0.955,0.255,-0.53,0.53,0.662,-0.627,0.345,0.698,-0.986,-0.0,0.164,none
16.677582,-0.075,0.967,0.242,-0.028,-0.966,-0.256,0.838,-0.539,0.083,0.795,-0.086,-0.6,-0.881,0.115,0.46,0.839,0.13,0.528,-0.848,-0.098,-0.522,0.894,-0.059,0.445,-0.808,0.097,-0.582,0.952,-0.151,0.266,-0.932,0.241,-0.271,0.923,0.07,0.378,-0.894,-0.028,-0.447,paper
26.410998,0.021,0.782,0.623,0.083,0.745,0.662,-0.368,-0.892,-0.261,0.758,-0.353,0.549,0.92,-0.383,0.077,0.851,-0.181,0.492,0.841,-0.076,0.535,0.88,-0.21,0.427,0.977,-0.15,0.15,0.986,-0.029,-0.163,0.894,0.268,-0.358,0.108,0.931,0.349,-0.42,0.9,0.12,rock
9.518665,-0.183,0.828,0.53,0.011,-0.787,-0.617,-0.142,-0.909,-0.392,0.71,-0.599,0.37,-0.748,0.499,-0.438,0.94,-0.278,0.197,-0.957,0.158,-0.245,0.955,0.039,0.294,-0.892,0.111,-0.438,0.953,0.071,0.293,-0.899,0.105,-0.425,0.152,0.92,0.36,-0.138,-0.854,-0.501,scissors
22.861612,0.063,0.847,0.528,0.811,0.487,0.324,0.541,-0.415,-0.732,0.687,-0.344,0.64,0.857,0.514,0.0,0.784,-0.221,0.581,0.226,0.566,0.793,0.824,-0.188,0.535,0.762,0.635,0.127,0.999,-0.027,-0.041,0.342,0.912,-0.228,0.238,0.913,0.332,-0.575,0.766,0.287,rock
16.167409,-0.1,0.965,0.243,0.051,-0.938,-0.342,0.784,-0.615,0.085,0.803,-0.058,-0.593,-0.833,0.038,0.551,0.83,0.165,0.532,-0.822,-0.169,-0.544,0.894,-0.022,0.447,-0.844,0.036,-0.535,0.957,-0.113,0.266,-0.931,0.14,-0.337,0.92,0.103,0.379,-0.885,-0.08,-0.459,paper
24.30714,-0.103,0.713,0.694,0.401,0.803,-0.441,0.565,-0.661,-0.494,0.835,-0.459,0.302,-0.19,-0.238,0.952,0.979,-0.116,0.166,-0.021,-0.297,0.955,0.888,0.038,0.459,0.352,-0.923,-0.154,0.876,0.089,0.474,0.384,-0.912,-0.144,0.044,0.889,0.455,0.933,0.151,0.328,scissors
1.688851,0.045,0.801,0.596,-0.254,-0.381,0.889,0.524,-0.773,-0.358,0.742,-0.35,0.571,0.445,-0.089,-0.891,0.837,-0.187,0.514,0.64,0.426,-0.64,0.871,-0.195,0.451,0.447,-0.0,-0.894,0.992,-0.021,-0.125,-0.342,0.228,-0.912,0.126,0.92,0.371,-0.923,0.308,-0.231,rock
11.111493,-0.041,0.805,0.592,0.117,0.883,0.455,-0.257,-0.932,-0.255,0.727,-0.411,0.55,0.665,-0.34,0.665,0.84,-0.251,0.481,0.717,-0.221,0.662,0.852,-0.274,0.446,0.792,-0.125,0.598,0.985,-0.097,-0.141,0.994,0.043,0.101,0.121,0.952,0.28,0.164,0.93,0.328,rock
22.319299,-0.012,0.715,0.699,0.202,-0.942,-0.269,-0.076,-0.892,-0.446,0.853,-0.376,0.362,-0.295,0.541,-0.787,0.974,-0.031,0.224,-0.74,0.476,-0.476,0.843,-0.028,0.537,-0.889,0.444,-0.111,0.84,0.01,0.543,-0.92,0.368,0.138,0.058,0.832,0.552,-0.702,-0.655,-0.281,scissors
14.616857,-0.218,0.746,0.629,-0.349,-0.449,0.823,0.837,-0.144,-0.528,0.758,-0.584,0.292,0.592,0.047,-0.805,0.957,-0.259,0.13,0.416,0.364,-0.833,0.94,0.064,0.335,0.05,0.867,0.496,0.929,0.103,0.355,-0.111,0.776,0.621,0.086,0.936,0.341,-0.95,0.309,-0.044,scissors
7.715654,-0.045,0.245,0.968,-0.962,0.133,-0.237,0.359,-0.519,-0.776,0.912,0.304,-0.275,0.907,0.172,-0.383,0.287,0.746,0.601,0.729,0.359,0.583,0.33,0.671,0.664,0.772,0.008,0.636,0.257,0.726,0.638,0.989,-0.135,0.067,-0.22,0.304,0.927,0.58,0.724,-0.374,none
22.776921,-0.012,0.688,0.726,-0.228,-0.76,-0.608,-0.121,-0.896,-0.427,0.87,-0.363,0.333,-0.682,0.262,-0.682,0.981,-0.005,0.194,-0.947,0.053,-0.316,0.828,0.026,0.561,-0.781,0.279,-0.558,0.82,0.061,0.569,-0.89,0.346,-0.297,0.006,0.832,0.555,-0.481,-0.535,-0.695,scissors
34.217499,0.456,-0.286,0.843,-0.997,-0.081,0.0,-0.369,-0.059,-0.928,0.545,0.105,0.832,-0.914,-0.02,-0.406,-0.411,0.313,0.856,0.309,-0.343,0.887,0.106,0.759,0.643,0.886,-0.233,0.401,0.148,0.969,0.196,-0.868,-0.496,-0.041,-0.382,0.031,0.924,-0.683,0.695,0.224,none
19.784367,0.085,0.768,0.635,-0.183,-0.913,0.365,0.421,-0.795,-0.437,0.779,-0.309,0.545,0.0,0.217,-0.976,0.858,-0.138,0.495,-0.64,0.64,-0.426,0.896,-0.172,0.408,-0.136,0.272,-0.953,0.984,0.012,-0.177,-0.738,0.422,-0.527,0.088,0.918,0.387,-0.928,-0.0,-0.371,rock
1.446632,0.027,0.797,0.603,0.463,0.396,-0.793,0.579,-0.753,-0.312,0.742,-0.358,0.567,-0.704,0.704,0.101,0.838,-0.197,0.509,-0.73,0.332,0.597,0.867,-0.208,0.453,-0.466,0.854,0.233,0.992,-0.036,-0.117,-0.48,0.685,0.548,0.118,0.923,0.366,0.527,-0.738,0.422,rock
8.787245,-0.095,0.942,0.322,-0.198,0.693,0.693,0.615,-0.758,0.218,0.867,0.044,-0.496,0.816,0.384,-0.432,0.728,0.237,0.643,0.249,0.549,0.798,0.828,0.075,0.556,0.548,0.438,0.712,0.934,-0.047,0.353,0.507,0.406,0.761,0.878,0.102,0.468,0.321,0.449,0.834,paper
32.960664,0.448,-0.215,0.868,0.255,-0.963,-0.085,-0.363,-0.037,-0.931,0.511,0.205,0.835,0.545,0.0,0.838,-0.654,0.03,0.756,-0.629,0.073,0.774,-0.341,0.01,0.94,0.449,-0.418,0.79,-0.125,0.781,0.612,0.903,-0.098,0.417,-0.291,0.123,0.949,-0.544,-0.839,0.024,none
37.122744,0.078,0.823,0.563,-0.228,0.342,-0.912,0.21,-0.956,-0.207,0.735,-0.321,0.597,-0.976,0.0,-0.217,0.817,-0.173,0.549,-0.926,-0.168,0.337,0.858,-0.169,0.485,-0.93,0.349,0.116,0.996,0.003,-0.09,-0.763,0.254,0.594,0.179,0.907,0.38,-0.0,-0.447,-0.894,rock
1.579913,-0.011,-0.254,0.967,0.802,-0.535,0.267,0.178,0.13,-0.975,0.698,0.701,0.142,-0.0,0.555,-0.832,-0.142,0.909,0.391,-0.811,0.324,0.487,-0.015,0.883,0.468,-0.555,0.832,0.0,-0.118,0.957,0.265,-0.744,0.62,0.248,-0.602,0.36,0.713,-0.985,0.123,-0.123,none
16.77417,-0.128,0.948,0.292,0.894,0.0,0.447,0.832,-0.555,0.016,0.848,-0.002,-0.53,0.447,-0.0,-0.894,0.78,0.218,0.586,-0.845,-0.169,0.507,0.859,0.039,0.51,-1.0,0.0,-0.0,0.94,-0.054,0.337,-0.843,0.241,0.482,0.883,0.123,0.453,-0.98,-0.14,-0.14,paper
23.782994,0.401,0.118,0.909,-0.035,0.887,0.461,-0.364,-0.438,-0.822,0.913,0.387,0.133,0.944,-0.257,-0.206,0.435,0.638,0.636,0.882,-0.167,0.441,0.424,0.33,0.843,0.938,-0.179,0.298,0.247,0.752,0.611,0.828,0.212,0.52,-0.256,0.162,0.953,0.543,0.513,0.664,none
33.338763,0.475,-0.108,0.873,0.778,0.623,-0.078,-0.412,-0.157,-0.898,0.499,0.214,0.84,0.905,-0.302,-0.302,-0.691,0.08,0.719,-0.275,0.962,-0.0,-0.288,0.191,0.938,-0.68,0.68,-0.272,0.071,0.995,0.075,-0.725,0.242,0.645,-0.277,0.124,0.953,0.492,-0.573,0.655,none
20.350517,0.046,0.762,0.646,-0.187,-0.047,-0.981,0.52,-0.741,-0.425,0.778,-0.334,0.533,-0.991,0.094,-0.094,0.865,-0.161,0.476,-0.973,-0.162,0.162,0.894,-0.203,0.399,-0.973,0.185,0.139,0.982,-0.02,-0.188,-0.789,0.044,0.613,0.075,0.931,0.358,0.368,-0.683,-0.631,rock
25.042063,0.441,0.443,0.781,0.827,-0.426,-0.366,-0.384,-0.74,-0.551,0.973,0.107,0.207,-0.914,-0.058,0.403,0.502,0.324,0.802,-0.994,-0.085,-0.062,0.535,0.085,0.84,-0.975,-0.195,-0.11,0.439,0.528,0.727,-0.932,-0.356,0.068,0.049,-0.057,0.997,-0.653,-0.744,-0.141,none
52.39212,0.705,-0.657,0.269,0.548,-0.685,-0.48,-0.756,0.479,-0.446,0.239,0.896,-0.375,-0.631,0.505,-0.589,-0.017,0.95,-0.312,-0.835,0.264,-0.483,-0.041,0.959,-0.281,-0.873,0.154,-0.462,-0.339,0.918,-0.205,-0.956,0.283,-0.071,-0.78,-0.601,0.173,-0.507,0.253,-0.824,none
12.671314,-0.147,0.711,0.687,0.325,0.921,-0.217,0.739,-0.174,-0.651,0.813,-0.502,0.295,-0.341,-0.398,0.852,0.98,-0.154,0.124,-0.092,-0.37,0.925,0.895,0.071,0.439,0.447,-0.844,-0.298,0.887,0.087,0.454,0.526,-0.818,-0.234,0.026,0.904,0.427,0.923,0.33,0.198,scissors
12.597314,-0.191,0.948,0.254,0.066,0.953,-0.296,0.311,-0.901,0.302,0.804,0.059,-0.592,0.4,-0.3,-0.866,0.802,0.262,0.537,0.958,-0.16,0.239,0.892,0.082,0.444,0.93,-0.349,0.116,0.969,-0.021,0.246,0.903,-0.428,0.048,0.903,0.192,0.384,0.97,-0.146,-0.194,paper
7.167997,0.033,0.634,0.772,0.974,0.202,-0.101,0.288,-0.763,-0.579,0.977,0.034,-0.21,0.233,-0.699,0.676,0.506,0.562,0.654,-0.151,-0.62,0.77,0.569,0.476,0.67,-0.051,-0.747,0.662,0.47,0.589,0.658,-0.036,-0.67,0.742,0.306,0.269,0.913,0.113,-0.926,0.361,none
41.175094,0.104,0.616,0.781,-0.109,0.833,-0.543,0.126,-0.814,-0.567,0.99,-0.034,-0.14,0.148,-0.978,0.148,0.711,0.53,0.463,0.504,-0.793,0.342,0.734,0.455,0.505,0.529,-0.843,0.098,0.593,0.762,0.258,0.749,-0.572,0.335,0.483,-0.08,0.872,0.85,0.087,-0.52,none
22.689751,0.448,0.238,0.861,-0.58,-0.258,0.773,-0.382,-0.598,-0.705,0.946,0.236,0.222,0.269,0.478,-0.836,0.364,0.468,0.805,-0.388,0.887,-0.25,0.387,0.208,0.898,-0.703,0.686,-0.189,0.264,0.643,0.719,-0.828,0.542,-0.143,-0.189,0.048,0.981,-0.782,0.441,0.441,none
5.636214,0.121,-0.221,0.968,-0.241,0.843,-0.482,0.248,0.101,-0.963,0.773,0.555,0.307,0.162,-0.973,-0.162,-0.247,0.789,0.562,-0.14,-0.7,0.7,-0.146,0.723,0.675,0.265,-0.927,0.265,-0.127,0.858,0.498,0.173,-0.605,0.777,-0.47,0.25,0.847,0.667,-0.667,-0.333,none
27.942915,0.084,0.883,0.462,-0.167,0.8,0.577,-0.279,-0.914,-0.295,0.641,-0.328,0.694,0.684,-0.564,0.463,0.735,-0.233,0.636,0.795,-0.388,0.466,0.79,-0.166,0.59,0.794,-0.368,0.484,1.0,-0.017,0.024,0.982,-0.184,-0.041,0.307,0.891,0.335,0.0,0.994,0.108,rock
19.207184,-0.094,0.763,0.639,-0.323,-0.34,0.883,0.754,-0.583,-0.302,0.789,-0.493,0.365,0.69,-0.033,-0.723,0.96,-0.17,0.224,0.567,0.266,-0.78,0.909,-0.014,0.416,0.187,0.85,0.493,0.902,0.03,0.43,0.064,0.802,0.594,0.11,0.885,0.453,-0.898,0.441,-0.0,scissors
31.857984,0.385,-0.265,0.884,-0.254,-0.254,-0.933,-0.291,0.005,-0.957,0.497,0.219,0.84,-0.523,0.847,-0.1,-0.642,0.009,0.766,-0.716,0.689,0.11,-0.449,-0.145,0.882,-0.408,0.544,0.734,-0.449,0.107,0.887,0.0,0.678,0.735,-0.412,0.29,0.864,0.55,-0.12,-0.827,none
37.173823,0.604,-0.429,0.672,-0.95,0.309,-0.047,-0.468,0.242,-0.85,0.64,0.621,0.452,0.892,0.371,-0.257,0.055,0.812,0.581,-0.324,0.232,-0.917,0.129,0.798,0.589,-0.186,0.395,-0.9,-0.229,0.954,0.196,0.273,-0.246,-0.93,-0.669,-0.134,0.731,0.625,0.75,-0.219,none
8.560708,0.107,0.861,0.498,-0.235,-0.704,-0.67,0.452,-0.412,-0.791,0.671,-0.311,0.672,-0.745,0.18,-0.642,0.759,-0.2,0.619,-0.877,0.053,-0.478,0.817,-0.146,0.558,-0.855,0.107,-0.508,1.0,0.012,-0.011,-0.999,-0.026,0.026,0.268,0.89,0.369,-0.253,-0.787,-0.562,rock
18.967803,0.289,0.866,-0.407,0.438,-0.83,0.346,0.281,-0.219,0.934,0.022,-0.358,0.934,-0.854,0.418,-0.311,-0.069,-0.577,0.814,0.251,0.95,-0.188,0.188,-0.912,0.364,-0.954,0.037,-0.298,0.509,0.025,0.86,0.327,-0.848,-0.416,0.969,-0.061,0.24,0.558,0.475,-0.68,none
16.753696,0.076,0.76,0.645,0.0,0.894,0.447,0.422,-0.79,-0.445,0.785,-0.312,0.535,0.436,-0.218,-0.873,0.864,-0.138,0.485,-0.0,0.0,1.0,0.901,-0.178,0.396,0.707,0.0,-0.707,0.982,0.008,-0.19,-0.485,0.728,-0.485,0.074,0.92,0.385,-0.768,0.549,-0.329,rock
9.045,-0.067,0.935,0.348,-0.461,-0.231,0.857,0.533,-0.833,0.147,0.889,0.034,-0.457,0.435,0.836,0.334,0.702,0.228,0.675,-0.514,0.743,0.429,0.803,0.07,0.592,-0.284,0.851,0.441,0.916,-0.056,0.397,-0.169,0.788,0.591,0.862,0.066,0.503,-0.515,0.575,0.636,paper
15.272752,-0.199,-0.18,0.963,0.667,0.741,0.074,0.681,0.207,-0.702,0.721,0.11,-0.685,0.667,0.667,-0.333,0.756,0.496,-0.427,0.174,0.696,0.696,0.738,0.454,-0.498,0.928,0.206,0.309,-0.261,0.718,0.645,0.247,0.247,0.937,-0.708,0.659,0.255,0.914,0.406,0.0,none
25.587596,-0.041,0.671,0.741,-0.087,-0.786,-0.612,0.51,-0.681,-0.525,0.877,-0.376,0.3,-0.513,0.293,-0.807,0.986,-0.017,0.166,-0.898,0.163,-0.408,0.833,0.054,0.55,-0.755,0.42,-0.504,0.816,0.102,0.569,-0.893,0.446,-0.064,-0.016,0.846,0.533,-0.707,-0.424,-0.566,scissors
24.880253,0.012,0.735,0.678,-0.077,0.927,0.367,0.446,-0.782,-0.435,0.799,-0.362,0.48,0.625,-0.542,0.562,0.891,-0.174,0.42,0.715,-0.397,0.576,0.902,-0.244,0.357,0.745,-0.322,0.584,0.971,-0.055,-0.232,0.986,-0.147,0.084,0.031,0.947,0.319,0.114,0.985,0.133,rock
10.174791,-0.035,-0.161,0.986,-0.0,0.0,-0.0,0.345,0.088,-0.935,0.542,0.409,0.734,-0.205,-0.102,-0.973,-0.642,0.568,0.515,0.0,-0.707,0.707,-0.119,0.689,0.715,-0.408,0.816,0.408,0.191,0.549,-0.814,0.959,-0.169,-0.226,-0.692,0.589,0.417,0.117,0.758,-0.642,none
34.178975,0.448,-0.189,0.874,-0.996,0.038,-0.075,-0.353,-0.048,-0.934,0.555,0.144,0.819,-0.889,0.137,-0.438,-0.409,0.216,0.887,0.289,-0.27,0.919,-0.015,0.686,0.728,0.935,-0.109,0.337,0.18,0.978,0.11,-0.84,-0.485,-0.243,-0.431,0.055,0.901,-0.524,0.825,0.21,none
23.358922,0.461,0.177,0.87,-0.239,0.716,0.656,-0.423,-0.508,-0.75,0.922,0.318,0.222,0.915,-0.045,-0.402,0.361,0.54,0.76,0.844,-0.067,0.533,0.361,0.147,0.921,0.902,-0.116,0.416,0.229,0.611,0.758,0.774,0.435,0.46,-0.205,0.066,0.977,0.226,0.793,0.566,none
44.743179,-0.645,0.418,0.64,0.754,0.588,0.294,0.795,-0.488,-0.36,0.359,0.686,-0.633,0.83,-0.556,-0.041,0.241,0.945,-0.222,0.606,-0.318,-0.729,0.315,0.948,-0.035,0.16,-0.191,-0.969,0.448,0.892,-0.057,-0.692,-0.012,-0.722,0.098,0.979,0.176,-0.59,-0.15,0.794,none
32.746534,0.391,-0.226,0.892,-0.655,-0.737,-0.164,-0.304,-0.003,-0.953,0.491,0.224,0.842,-0.707,0.0,-0.707,-0.686,0.024,0.727,0.408,-0.408,0.816,-0.429,-0.014,0.903,0.958,-0.287,0.0,-0.372,0.19,0.909,0.806,-0.105,0.582,-0.381,0.141,0.914,-0.786,-0.437,0.437,none
14.128916,-0.05,0.969,0.242,0.409,-0.237,-0.882,-0.236,-0.972,0.011,0.822,-0.082,-0.564,-0.685,-0.707,-0.177,0.801,0.137,0.583,-0.063,-0.821,-0.568,0.866,-0.044,0.497,-0.272,-0.711,-0.648,0.939,-0.139,0.315,-0.527,-0.632,-0.569,0.908,0.055,0.415,-0.22,-0.559,-0.799,paper
10.379641,-0.151,0.961,0.231,-0.152,0.952,0.266,0.672,-0.676,0.302,0.792,0.03,-0.61,0.717,0.137,-0.683,0.819,0.223,0.529,0.709,0.315,0.63,0.899,0.049,0.436,0.865,0.113,0.489,0.971,-0.075,0.225,0.873,0.087,0.48,0.922,0.144,0.36,0.844,0.298,0.447,paper
14.255604,-0.097,0.505,0.857,-0.436,-0.873,-0.218,0.464,-0.575,-0.673,0.835,-0.522,-0.175,-0.548,-0.226,-0.806,0.964,-0.23,-0.133,-0.615,0.179,-0.768,0.928,-0.208,-0.31,-0.37,0.711,-0.598,0.874,-0.013,-0.486,-0.727,0.454,-0.515,0.509,-0.072,0.858,0.072,0.99,-0.121,none
54.433753,0.727,-0.564,0.391,0.713,0.583,0.389,-0.664,0.407,-0.627,0.165,0.655,0.738,0.895,0.179,-0.409,-0.822,-0.425,0.379,0.082,-0.164,0.983,-0.611,-0.739,0.284,0.321,-0.017,0.947,-0.626,-0.752,0.205,0.082,-0.137,0.987,-0.721,-0.6,0.346,0.667,-0.572,0.477,none
11.752398,-0.042,0.952,0.302,0.408,0.911,-0.063,0.037,-0.992,0.117,0.869,-0.027,-0.494,0.601,-0.45,-0.661,0.747,0.173,0.641,0.773,-0.336,0.538,0.829,0.004,0.559,0.768,-0.501,0.4,0.922,-0.117,0.369,0.712,-0.605,0.356,0.881,0.039,0.471,0.896,-0.428,0.117,paper
4.481259,-0.089,0.95,0.3,0.0,0.707,-0.707,0.731,-0.664,0.158,0.862,0.06,-0.504,-0.218,0.436,-0.873,0.733,0.237,0.637,-0.707,0.707,0.0,0.838,0.075,0.541,-0.267,0.535,-0.802,0.943,-0.051,0.329,-0.596,0.745,0.298,0.89,0.093,0.447,-0.707,0.424,-0.566,paper
3.157108,-0.144,0.749,0.647,0.333,0.667,0.667,0.722,-0.609,-0.328,0.766,-0.54,0.349,0.97,-0.0,-0.243,0.974,-0.179,0.141,0.408,0.408,0.816,0.907,0.032,0.42,0.784,-0.196,0.588,0.91,0.052,0.412,0.12,0.241,0.963,0.056,0.896,0.44,-0.707,0.566,0.424,scissors
16.14857,-0.21,0.767,0.606,-0.275,0.495,0.824,0.871,-0.202,-0.449,0.747,-0.588,0.31,0.828,-0.466,-0.311,0.949,-0.272,0.157,0.981,-0.061,-0.184,0.945,0.04,0.324,0.799,0.4,0.449,0.937,0.083,0.339,0.539,0.49,0.686,0.114,0.934,0.339,-0.556,0.813,0.171,scissors
3.600648,0.068,-0.209,0.975,-0.646,-0.341,-0.682,0.166,0.046,-0.985,0.772,0.601,0.207,-0.846,0.423,-0.325,-0.099,0.833,0.544,-0.196,-0.515,-0.834,0.056,0.803,0.593,-0.419,-0.398,-0.816,-0.046,0.926,0.376,-0.467,-0.51,-0.722,-0.511,0.331,0.793,-0.139,-0.259,-0.956,none
8.645137,0.148,0.111,0.983,-0.778,-0.322,0.54,0.164,-0.324,-0.932,0.949,0.247,-0.195,0.897,0.143,-0.419,0.631,0.735,0.248,0.837,0.508,0.205,0.661,0.723,0.202,0.963,0.18,0.202,0.468,0.883,0.026,0.986,0.029,0.167,-0.632,0.597,0.494,-0.178,-0.037,-0.983,none
41.255952,0.146,0.55,0.823,0.339,0.941,0.0,0.172,-0.793,-0.585,0.991,0.009,-0.131,0.766,-0.575,0.287,0.681,0.572,0.457,0.444,-0.111,0.889,0.694,0.51,0.509,0.507,-0.217,0.834,0.526,0.813,0.25,0.427,0.296,0.854,0.386,-0.15,0.91,0.873,-0.374,-0.312,none
4.140286,0.074,-0.239,0.968,0.705,0.083,-0.705,0.208,0.086,-0.974,0.727,0.639,0.252,-0.824,-0.567,-0.0,-0.175,0.847,0.502,-0.463,-0.869,-0.174,-0.035,0.813,0.581,-0.376,-0.816,-0.439,-0.13,0.917,0.376,-0.503,-0.862,-0.072,-0.541,0.275,0.795,-0.0,-0.707,-0.707,none
21.823741,0.046,0.863,0.503,0.041,-0.815,-0.578,0.561,-0.659,-0.501,0.675,-0.374,0.637,-0.647,0.449,-0.616,0.778,-0.256,0.574,-0.826,0.318,-0.466,0.812,-0.218,0.542,-0.781,0.312,-0.541,0.998,-0.059,-0.033,-0.985,0.174,-0.01,0.247,0.922,0.297,-0.213,-0.937,-0.277,rock
18.533737,0.269,0.887,-0.375,0.873,-0.2,0.444,0.185,-0.349,0.919,0.191,-0.761,0.62,0.864,0.381,0.329,0.304,-0.801,0.516,0.254,0.336,0.907,0.351,-0.889,0.294,0.525,0.219,0.822,0.504,-0.599,0.622,0.47,0.389,0.793,0.884,-0.355,0.304,-0.589,-0.351,0.727,none
13.745985,-0.093,0.51,0.855,-0.549,-0.768,0.329,0.424,-0.596,-0.682,0.808,-0.564,-0.168,-0.302,0.302,-0.905,0.947,-0.286,-0.144,-0.514,0.514,-0.686,0.906,-0.243,-0.347,-0.486,0.0,-0.874,0.861,-0.05,-0.506,-0.83,0.207,-0.518,0.501,-0.08,0.862,-0.873,0.312,0.374,none
20.280477,-0.049,0.777,0.628,0.103,0.694,0.713,0.214,-0.886,-0.411,0.807,-0.456,0.375,0.881,-0.362,0.306,0.964,-0.129,0.23,0.976,-0.009,0.219,0.899,-0.041,0.435,0.817,-0.036,0.575,0.897,-0.009,0.441,0.767,-0.0,0.641,0.109,0.871,0.479,-0.071,0.837,0.543,scissors
2.254527,0.047,0.808,0.587,0.683,0.683,0.256,0.576,-0.764,-0.292,0.734,-0.348,0.583,0.722,0.619,0.309,0.827,-0.192,0.528,0.239,0.557,0.796,0.862,-0.194,0.468,0.645,0.725,0.242,0.994,-0.022,-0.109,0.341,0.936,0.085,0.145,0.92,0.364,-0.329,0.549,0.768,rock
29.50316,0.004,0.76,0.65,-0.061,-0.95,-0.306,-0.481,-0.529,-0.699,0.787,-0.35,0.508,-0.504,0.364,-0.784,0.877,-0.163,0.452,-0.684,0.32,-0.655,0.898,-0.222,0.38,-0.662,0.221,-0.717,0.977,-0.034,-0.212,-0.965,0.122,-0.231,0.05,0.936,0.349,-0.457,-0.831,-0.318,rock
40.709775,0.517,0.075,0.852,0.899,0.364,-0.243,-0.288,-0.439,-0.851,0.87,0.44,0.221,-0.697,-0.294,0.654,0.134,0.738,0.661,-0.906,-0.407,0.118,0.104,0.635,0.766,-0.866,-0.412,-0.284,-0.123,0.825,0.552,-0.926,-0.359,0.113,-0.024,-0.482,0.876,0.392,-0.886,-0.247,none
14.171065,0.027,0.771,0.636,-0.877,-0.199,-0.438,0.446,-0.824,-0.35,0.764,-0.354,0.539,-0.692,-0.51,-0.51,0.858,-0.186,0.479,-0.653,-0.653,-0.384,0.881,-0.222,0.418,-0.803,-0.562,-0.201,0.985,-0.042,-0.169,-0.755,-0.636,0.159,0.096,0.937,0.336,-0.109,-0.146,-0.983,rock
11.557533,-0.141,0.786,0.602,0.096,-0.729,-0.677,0.797,-0.324,-0.51,0.748,-0.553,0.367,-0.777,0.527,-0.345,0.955,-0.223,0.196,-0.974,0.185,-0.134,0.934,0.009,0.356,-0.899,0.009,-0.437,0.931,0.039,0.363,-0.908,-0.0,-0.42,0.121,0.906,0.405,-0.078,-0.893,-0.442,scissors
13.747286,-0.091,0.511,0.855,-0.371,-0.928,-0.0,0.52,-0.582,-0.625,0.815,-0.555,-0.167,-0.318,0.424,-0.848,0.949,-0.281,-0.142,-0.855,0.367,-0.367,0.91,-0.238,-0.341,-0.527,0.738,-0.422,0.866,-0.043,-0.498,-0.829,0.552,-0.092,0.517,-0.083,0.852,-0.933,0.254,-0.254,none
47.293336,0.126,-0.329,0.936,-0.526,-0.849,-0.049,0.095,0.02,-0.995,0.469,0.762,0.447,-0.639,0.754,0.151,-0.734,0.618,0.283,-0.662,0.084,-0.745,-0.681,0.554,0.479,-0.707,0.257,-0.659,-0.646,0.518,0.561,-0.705,0.388,-0.594,-0.411,0.213,0.887,-0.795,0.513,-0.325,none
18.788643,0.092,0.771,0.63,-0.154,-0.772,0.617,0.427,-0.792,-0.435,0.778,-0.31,0.546,0.274,0.069,-0.959,0.857,-0.138,0.497,0.105,0.527,-0.843,0.896,-0.171,0.409,0.152,0.0,-0.988,0.984,0.013,-0.177,-0.523,0.224,-0.822,0.091,0.917,0.389,-0.972,0.057,-0.229,rock
10.091261,0.015,0.639,0.769,0.044,0.756,0.653,0.517,-0.682,-0.517,0.831,-0.384,0.402,0.76,-0.325,0.562,0.929,-0.154,0.336,0.828,-0.156,0.539,0.934,-0.26,0.246,0.86,-0.147,0.488,0.934,-0.05,-0.353,0.998,0.032,-0.048,-0.087,0.946,0.314,0.069,0.927,0.368,rock
23.86105,-0.018,0.817,0.576,0.077,0.739,0.67,0.617,-0.571,-0.542,0.719,-0.393,0.573,0.789,-0.37,0.491,0.828,-0.245,0.504,0.869,-0.175,0.462,0.846,-0.257,0.468,0.885,-0.205,0.419,0.99,-0.086,-0.116,0.991,-0.016,-0.13,0.145,0.948,0.284,-0.023,0.948,0.316,rock
10.105496,-0.003,0.854,0.52,0.144,0.895,0.422,0.403,-0.848,-0.345,0.677,-0.391,0.623,0.649,-0.286,0.704,0.79,-0.261,0.555,0.701,-0.181,0.69,0.817,-0.24,0.525,0.78,-0.085,0.62,0.996,-0.077,-0.052,0.99,0.077,0.121,0.214,0.932,0.293,0.214,0.898,0.385,rock
17.857753,-0.042,0.761,0.648,0.86,-0.248,0.447,0.389,-0.853,-0.348,0.864,-0.493,-0.102,0.152,0.858,0.491,0.981,0.036,0.192,-0.346,0.569,0.746,0.982,0.059,0.179,-0.319,0.23,0.919,0.887,0.409,0.214,-0.438,0.339,0.833,0.38,0.574,0.725,-0.544,-0.463,0.7,none
10.091401,-0.016,0.68,0.733,0.246,0.853,0.461,0.532,-0.735,-0.42,0.824,-0.381,0.419,0.686,-0.243,0.686,0.92,-0.168,0.355,0.734,-0.122,0.668,0.92,-0.272,0.282,0.811,-0.049,0.584,0.949,-0.073,-0.308,0.99,0.116,0.083,-0.053,0.952,0.301,0.186,0.88,0.436,rock
26.41149,0.032,0.81,0.585,0.802,-0.267,-0.535,-0.348,-0.885,-0.311,0.735,-0.353,0.578,-0.267,0.802,-0.535,0.83,-0.197,0.521,-0.717,0.598,0.359,0.861,-0.207,0.464,-0.367,0.855,-0.367,0.992,-0.032,-0.12,-0.656,0.749,0.094,0.151,0.927,0.342,-0.857,-0.514,-0.0,rock
40.152973,0.52,0.174,0.836,0.405,0.867,-0.289,-0.358,-0.434,-0.827,0.966,0.192,-0.173,0.927,-0.265,-0.265,0.847,0.521,-0.109,0.549,-0.137,0.824,0.799,0.588,-0.126,0.793,-0.566,0.226,0.586,0.683,-0.436,0.707,0.0,0.707,0.352,-0.731,0.585,0.33,0.553,0.765,none
51.372101,0.705,-0.598,0.381,-0.815,0.371,-0.445,-0.742,0.385,-0.549,0.143,0.86,0.49,-0.535,-0.535,-0.654,-0.52,0.779,0.351,-0.078,-0.705,-0.705,-0.412,0.847,0.337,0.074,-0.667,-0.741,-0.586,0.739,0.332,-0.101,-0.704,-0.704,-0.672,-0.621,0.404,-0.173,0.605,-0.777,none
13.152199,0.108,0.867,0.487,-0.343,-0.845,-0.411,0.221,-0.962,-0.16,0.681,-0.291,0.672,-0.609,0.13,-0.783,0.764,-0.172,0.622,-0.7,0.056,-0.712,0.826,-0.126,0.549,-0.754,-0.032,-0.657,0.999,0.033,-0.019,-0.974,-0.15,-0.171,0.246,0.882,0.401,-0.357,-0.746,-0.562,rock
6.457612,-0.031,0.836,0.547,-0.316,0.759,0.569,0.634,-0.718,-0.287,0.712,-0.504,0.489,0.652,-0.742,0.157,0.928,-0.185,0.322,0.91,-0.409,0.068,0.914,-0.133,0.384,0.962,0.131,0.24,0.922,-0.113,0.371,0.884,0.227,0.408,0.209,0.836,0.507,-0.064,0.979,0.192,scissors
33.041446,0.05,0.82,0.57,0.087,0.961,-0.262,0.183,-0.927,-0.327,0.726,-0.338,0.598,-0.118,-0.157,0.981,0.817,-0.193,0.544,-0.095,-0.286,0.953,0.851,-0.189,0.49,0.109,0.181,0.977,0.997,-0.02,-0.08,0.507,0.217,0.834,0.183,0.916,0.358,0.788,0.58,0.207,rock
34.976692,0.535,-0.378,0.756,0.092,-0.552,-0.829,-0.394,0.205,-0.896,0.542,0.091,0.835,-0.803,0.411,-0.43,-0.381,0.535,0.754,-0.523,0.065,-0.85,0.242,0.917,0.319,0.624,0.715,-0.316,-0.051,0.993,-0.105,0.487,0.75,-0.448,-0.706,-0.071,0.705,0.302,0.792,-0.531,none
19.783983,0.085,0.774,0.627,-0.236,-0.236,-0.943,0.406,-0.777,-0.482,0.774,-0.308,0.554,-0.885,0.442,-0.147,0.853,-0.14,0.502,-0.87,0.097,0.483,0.894,-0.169,0.415,-0.635,0.762,0.127,0.986,0.013,-0.167,-0.697,0.597,0.398,0.098,0.917,0.387,-0.333,-0.667,-0.667,rock
45.76412,-0.63,0.583,0.513,-0.63,0.709,-0.315,0.691,-0.7,-0.177,0.388,0.686,-0.615,0.319,-0.319,-0.893,0.147,0.989,-0.023,0.59,-0.64,0.492,0.216,0.971,0.098,0.316,-0.451,0.835,0.407,0.903,0.141,-0.306,-0.917,-0.255,0.647,0.725,0.238,-0.846,-0.268,0.461,none
25.838373,-0.043,0.652,0.757,0.034,-0.626,-0.779,0.549,-0.655,-0.519,0.891,-0.363,0.272,-0.871,0.412,-0.269,0.99,0.005,0.138,-0.997,0.045,-0.06,0.824,0.087,0.56,-0.838,-0.062,-0.543,0.805,0.133,0.578,-0.848,-0.077,-0.524,-0.05,0.845,0.533,-0.0,-0.86,-0.51,scissors
19.009747,0.26,0.817,-0.514,0.13,0.609,0.783,0.255,-0.187,0.949,-0.048,-0.39,0.92,-0.74,0.541,-0.399,-0.188,-0.611,0.769,0.441,0.881,0.17,0.389,-0.864,-0.321,-0.876,0.361,-0.321,0.565,0.062,0.823,0.338,-0.897,-0.285,0.944,-0.107,0.311,0.484,0.786,-0.384,none
2.315811,-0.141,0.751,0.645,-0.248,0.744,0.62,0.727,-0.611,-0.313,0.764,-0.539,0.356,0.625,-0.625,-0.469,0.974,-0.178,0.142,0.949,-0.316,0.0,0.909,0.028,0.415,0.857,0.429,0.286,0.912,0.056,0.407,0.226,0.566,0.793,0.057,0.895,0.443,-0.647,0.755,-0.108,scissors
9.212449,-0.015,0.939,0.343,-0.453,-0.494,0.742,0.476,-0.875,0.095,0.894,-0.012,-0.447,-0.0,0.848,0.53,0.712,0.175,0.68,-0.779,0.615,0.123,0.802,0.017,0.597,-0.602,0.787,0.139,0.909,-0.101,0.403,-0.389,0.816,0.428,0.87,0.032,0.491,-0.805,0.523,0.282,paper
32.277603,0.408,-0.245,0.88,0.807,0.073,-0.587,-0.294,0.006,-0.956,0.457,0.225,0.86,0.651,-0.391,0.651,-0.689,0.023,0.724,0.218,0.436,-0.873,-0.456,-0.023,0.89,-0.268,-0.358,-0.894,-0.413,0.166,0.896,-0.479,-0.736,-0.479,-0.378,0.077,0.923,0.037,-0.402,0.915,none
21.756944,-0.244,0.752,0.612,-0.355,-0.142,0.924,0.353,-0.876,-0.329,0.751,-0.599,0.277,0.627,-0.139,-0.766,0.95,-0.282,0.135,0.619,0.309,-0.722,0.947,0.07,0.313,0.394,0.788,0.473,0.934,0.128,0.332,-0.0,0.737,0.676,0.098,0.944,0.315,-0.856,0.514,-0.057,scissors
16.725112,0.088,0.761,0.643,-0.316,0.949,-0.0,0.381,-0.817,-0.433,0.784,-0.306,0.541,-0.447,-0.0,-0.894,0.862,-0.133,0.489,-0.8,-0.0,0.6,0.9,-0.172,0.401,-0.667,0.667,-0.333,0.983,0.012,-0.184,-0.8,0.6,0.0,0.08,0.918,0.389,-0.772,0.154,-0.617,rock
26.857126,0.051,0.781,0.622,0.076,0.666,0.742,0.685,-0.481,-0.548,0.792,-0.401,0.459,0.898,-0.352,0.264,0.936,-0.093,0.34,0.974,0.035,0.226,0.87,-0.177,0.46,0.808,-0.034,0.589,0.877,-0.119,0.466,0.723,0.034,0.69,0.191,0.821,0.539,-0.131,0.832,0.539,scissors
13.746108,-0.096,0.499,0.861,-0.236,-0.943,0.236,0.424,-0.596,-0.682,0.81,-0.563,-0.167,-0.249,0.498,-0.83,0.947,-0.287,-0.143,-0.549,0.824,-0.137,0.906,-0.241,-0.348,-0.53,0.53,-0.662,0.861,-0.049,-0.507,-0.74,0.647,-0.185,0.496,-0.083,0.864,-0.972,-0.075,0.224,none
28.511094,0.538,-0.052,0.841,0.896,-0.398,0.199,-0.528,-0.281,-0.801,0.454,0.564,0.69,0.976,-0.118,0.185,-0.047,0.607,0.794,0.537,-0.279,0.796,0.17,0.625,0.762,0.524,-0.602,0.602,0.011,0.861,0.508,0.444,-0.111,0.889,-0.423,-0.153,0.893,-0.457,-0.335,-0.823,none
3.994955,-0.139,0.763,0.632,0.577,0.577,0.577,0.75,-0.599,-0.28,0.755,-0.546,0.363,0.236,0.236,-0.943,0.967,-0.192,0.165,-0.894,0.447,0.0,0.914,0.015,0.405,-0.577,0.577,0.577,0.915,0.039,0.402,-0.512,0.384,0.768,0.081,0.895,0.438,-0.953,0.272,-0.136,scissors
19.854128,0.088,0.761,0.643,0.0,0.0,-1.0,0.395,-0.796,-0.46,0.784,-0.305,0.54,-0.0,0.141,-0.99,0.862,-0.132,0.49,-0.802,0.535,-0.267,0.901,-0.172,0.399,-0.192,0.192,-0.962,0.983,0.012,-0.185,-0.816,0.408,-0.408,0.075,0.918,0.39,-0.889,0.111,-0.444,rock
0.796042,-0.114,0.948,0.298,-0.859,0.229,-0.458,0.752,-0.648,0.116,0.851,0.082,-0.519,0.056,0.447,-0.893,0.73,0.262,0.631,0.552,0.491,-0.674,0.842,0.105,0.529,0.431,0.269,-0.861,0.95,-0.016,0.312,-0.175,0.526,-0.832,0.874,0.009,0.485,-0.906,-0.291,0.308,paper
19.718174,0.004,0.731,0.682,-0.042,0.545,0.838,0.5,-0.694,-0.518,0.832,-0.394,0.39,0.931,-0.355,-0.089,0.965,-0.059,0.254,0.999,0.048,-0.0,0.855,-0.046,0.516,0.78,0.246,0.575,0.851,-0.016,0.524,0.533,0.328,0.78,0.079,0.831,0.55,-0.465,0.814,0.349,scissors
7.62414,0.008,0.635,0.773,0.885,0.464,0.042,0.288,-0.763,-0.579,0.961,-0.047,-0.272,0.148,-0.984,0.098,0.591,0.503,0.63,-0.0,-0.578,0.816,0.631,0.439,0.639,0.081,-0.725,0.684,0.499,0.59,0.634,-0.084,-0.543,0.836,0.298,0.312,0.902,0.245,-0.552,0.797,none
46.784337,-0.201,-0.008,0.979,-0.522,-0.846,0.112,0.428,-0.246,-0.87,0.636,0.77,0.044,-0.571,0.812,0.12,-0.377,0.893,0.243,-0.614,0.211,-0.761,-0.318,0.84,0.44,-0.696,0.369,-0.616,-0.259,0.802,0.538,-0.729,0.472,-0.496,-0.05,0.504,0.862,-0.78,0.573,-0.25,none
12.834873,0.102,0.864,0.494,-0.092,-0.829,-0.552,0.066,-0.992,-0.111,0.681,-0.306,0.665,-0.721,0.344,-0.601,0.768,-0.184,0.614,-0.875,0.21,-0.437,0.826,-0.138,0.546,-0.83,0.242,-0.502,0.999,0.022,-0.026,-0.992,0.118,0.05,0.245,0.888,0.388,-0.194,-0.901,-0.389,rock
10.027513,-0.123,0.796,0.592,-0.008,-0.551,-0.835,0.349,-0.884,-0.311,0.732,-0.571,0.371,-0.899,0.355,-0.256,0.947,-0.253,0.199,-0.998,-0.04,-0.048,0.944,-0.029,0.328,-0.772,-0.075,-0.631,0.945,-0.01,0.326,-0.781,-0.042,-0.623,0.15,0.911,0.383,0.125,-0.819,-0.56,scissors
23.799195,0.03,0.741,0.671,0.552,-0.092,-0.829,0.54,-0.639,-0.548,0.828,-0.396,0.397,-0.841,0.473,0.263,0.96,-0.066,0.271,-0.818,0.129,0.56,0.86,-0.09,0.502,-0.661,-0.661,-0.356,0.859,-0.046,0.51,-0.733,-0.628,-0.262,0.115,0.833,0.541,0.446,-0.893,-0.064,scissors
9.014573,-0.131,0.785,0.606,0.04,-0.398,-0.916,-0.331,-0.705,-0.627,0.749,-0.541,0.382,-0.854,0.407,-0.325,0.956,-0.214,0.202,-0.991,-0.073,0.11,0.926,-0.008,0.378,-0.698,-0.164,-0.698,0.923,0.015,0.383,-0.804,-0.042,-0.593,0.122,0.896,0.426,0.044,-0.789,-0.613,scissors
29.747013,0.444,-0.058,0.894,-0.087,0.48,0.873,-0.563,-0.262,-0.784,0.495,0.684,0.536,-0.939,-0.341,-0.043,0.021,0.729,0.684,-0.704,0.264,-0.66,0.195,0.739,0.645,-0.322,0.824,-0.466,0.051,0.947,0.316,-0.179,0.824,-0.537,-0.366,-0.072,0.928,-0.051,0.506,0.861,none
8.645399,0.191,0.096,0.977,-0.784,0.015,0.621,0.099,-0.347,-0.933,0.934,0.292,-0.208,-0.069,-0.092,-0.993,0.604,0.766,0.218,0.445,0.178,-0.878,0.653,0.735,0.183,0.418,0.358,-0.835,0.46,0.888,-0.011,0.268,0.117,-0.956,-0.682,0.504,0.53,-0.936,-0.022,-0.352,none
4.565018,0.142,-0.215,0.966,0.133,-0.979,-0.156,0.167,0.084,-0.982,0.76,0.577,0.299,-0.708,0.191,0.68,-0.193,0.784,0.59,-0.917,0.027,-0.399,-0.067,0.742,0.667,-0.839,0.232,-0.492,-0.125,0.869,0.479,-0.938,0.155,-0.31,-0.487,0.263,0.833,-0.731,-0.679,0.07,none
36.101791,0.109,0.821,0.561,0.527,0.843,0.105,0.168,-0.949,-0.266,0.727,-0.312,0.611,0.549,0.137,0.824,0.81,-0.163,0.564,0.076,0.076,0.994,0.86,-0.142,0.491,0.468,0.468,0.749,0.995,0.033,-0.089,0.447,0.716,0.537,0.193,0.893,0.406,0.218,0.873,0.436,rock
18.66773,0.279,0.874,-0.399,0.771,-0.613,-0.173,0.161,-0.299,0.941,0.162,-0.73,0.664,0.845,0.378,0.378,0.277,-0.811,0.516,0.36,0.201,0.911,0.3,-0.912,0.28,0.138,-0.069,0.988,0.504,-0.454,0.735,0.921,-0.119,0.372,0.9,-0.33,0.285,-0.792,-0.608,-0.042,none
28.45164,-0.07,0.807,0.587,0.1,0.819,0.565,-0.479,-0.772,-0.417,0.718,-0.469,0.515,0.737,-0.346,0.581,0.846,-0.305,0.438,0.817,-0.192,0.543,0.837,-0.335,0.433,0.841,-0.179,0.51,0.976,-0.157,-0.154,1.0,-0.006,-0.022,0.117,0.972,0.202,0.104,0.932,0.349,rock
1.085855,-0.133,0.946,0.294,0.514,0.686,0.514,0.771,-0.616,0.163,0.851,0.123,-0.511,0.781,-0.0,-0.625,0.715,0.299,0.632,-0.0,0.275,0.962,0.841,0.136,0.523,0.0,-0.0,1.0,0.958,-0.011,0.285,-0.617,0.154,0.772,0.912,-0.253,0.323,0.365,0.0,-0.931,paper
56.472994,0.693,-0.587,0.419,0.116,0.349,-0.93,-0.639,0.389,-0.664,-0.027,-0.328,0.944,0.638,-0.319,-0.701,-0.735,-0.63,0.251,0.781,-0.488,0.39,-0.757,-0.593,0.274,0.843,-0.482,0.241,-0.74,-0.647,0.182,0.0,-1.0,0.0,-0.661,-0.517,0.544,0.796,-0.537,-0.279,none
21.395936,0.024,0.712,0.702,0.056,-0.759,-0.648,0.516,-0.693,-0.504,0.82,-0.341,0.46,-0.719,0.419,-0.554,0.906,-0.136,0.401,-0.89,0.256,-0.377,0.922,-0.222,0.317,-0.832,0.318,-0.454,0.961,-0.027,-0.274,-0.981,0.176,0.088,-0.017,0.936,0.352,-0.124,-0.943,-0.309,rock
56.982626,0.716,-0.618,0.326,-0.874,-0.486,0.0,-0.629,0.448,-0.635,-0.082,-0.344,0.935,-0.203,0.65,-0.732,-0.694,-0.699,0.171,-0.198,0.725,-0.659,-0.825,-0.544,0.153,-0.291,0.874,-0.389,-0.842,-0.533,0.089,-0.548,0.685,-0.48,-0.003,-0.534,0.845,-0.433,-0.357,-0.828,none
13.109007,-0.219,0.942,0.253,-0.103,0.875,0.473,0.075,-0.977,0.199,0.802,0.092,-0.59,0.839,0.16,-0.52,0.793,0.304,0.528,0.662,0.352,0.662,0.895,0.114,0.431,0.784,0.178,0.595,0.972,0.013,0.237,0.864,0.095,0.495,0.903,0.214,0.372,0.767,0.256,0.589,paper
5.017539,0.05,0.922,0.385,0.426,-0.678,-0.599,0.623,-0.715,-0.318,0.587,-0.368,0.721,-0.543,0.745,-0.388,0.694,-0.287,0.66,-0.8,0.584,-0.138,0.74,-0.189,0.645,-0.632,0.663,-0.401,0.994,-0.048,0.095,-0.838,0.539,0.09,0.375,0.879,0.295,-0.117,-0.988,0.1,rock
11.782069,-0.175,-0.273,0.946,-0.469,-0.625,-0.625,0.525,0.206,-0.826,0.833,0.037,-0.552,0.315,-0.709,-0.63,-0.535,0.713,0.454,-0.667,0.333,-0.667,-0.461,0.609,0.645,-0.302,0.302,0.905,-0.351,0.622,0.7,-0.436,0.218,0.873,-0.878,0.428,0.216,-0.229,0.688,-0.688,none
29.008536,0.026,0.795,0.606,-0.539,0.539,0.647,-0.429,-0.547,-0.719,0.757,-0.344,0.556,0.318,-0.848,-0.424,0.847,-0.18,0.5,0.447,-0.894,0.0,0.875,-0.207,0.437,0.442,-0.885,-0.147,0.989,-0.029,-0.146,0.229,-0.688,-0.688,0.117,0.931,0.347,-0.574,0.646,-0.503,rock
33.132121,0.528,-0.103,0.843,0.94,-0.341,0.0,-0.436,-0.106,-0.894,0.502,0.211,0.839,0.385,0.271,0.882,-0.72,0.085,0.689,-0.512,-0.03,0.858,-0.333,0.186,0.924,0.551,-0.551,0.628,-0.01,0.942,0.335,0.959,0.061,0.277,-0.24,0.058,0.969,0.246,0.969,0.016,none
19.783575,0.099,0.762,0.64,-0.408,-0.408,-0.816,0.361,-0.803,-0.475,0.785,-0.296,0.544,-0.617,0.154,-0.772,0.86,-0.125,0.495,-0.986,0.0,0.164,0.902,-0.158,0.401,-0.743,0.371,-0.557,0.982,0.026,-0.186,-0.919,0.394,0.0,0.081,0.912,0.401,-0.7,-0.14,-0.7,rock
9.581122,0.025,0.782,0.623,-0.047,0.729,0.683,0.608,-0.565,-0.558,0.756,-0.372,0.538,0.776,-0.458,0.433,0.857,-0.205,0.473,0.883,-0.257,0.393,0.877,-0.241,0.416,0.868,-0.313,0.386,0.983,-0.056,-0.177,0.979,-0.123,-0.164,0.095,0.944,0.315,-0.047,0.973,0.226,rock
2.080252,-0.011,-0.259,0.966,-0.0,-1.0,0.0,0.186,0.162,-0.969,0.711,0.688,0.145,-0.218,0.873,-0.436,-0.123,0.905,0.407,-0.912,0.342,0.228,0.007,0.877,0.48,-0.781,0.625,-0.0,-0.098,0.956,0.278,-0.83,0.518,0.207,-0.59,0.365,0.721,-0.981,0.0,-0.196,none
45.344799,-0.742,0.209,0.637,-0.036,0.759,0.65,0.857,-0.408,-0.314,0.518,0.412,-0.75,-0.893,0.035,-0.449,0.353,0.902,-0.247,0.018,0.28,-0.96,0.342,0.923,-0.176,-0.255,0.352,-0.901,0.441,0.893,-0.09,-0.789,0.254,-0.56,-0.1,0.993,-0.06,-0.323,0.219,0.921,none
13.306137,-0.101,0.502,0.859,-0.867,-0.433,0.248,0.473,-0.603,-0.642,0.808,-0.565,-0.165,-0.8,0.0,-0.6,0.953,-0.272,-0.137,-0.0,-0.841,0.541,0.914,-0.247,-0.323,-0.575,-0.812,-0.101,0.864,-0.053,-0.501,-0.545,-0.818,-0.182,0.514,-0.069,0.855,-0.862,0.327,0.387,none
3.6001,-0.008,-0.328,0.945,0.15,0.487,-0.861,0.137,0.098,-0.986,0.621,0.755,0.211,-0.831,-0.554,0.038,-0.263,0.884,0.386,-0.699,-0.579,-0.419,-0.15,0.87,0.47,-0.734,-0.48,-0.48,-0.235,0.943,0.237,-0.776,-0.62,-0.116,-0.672,0.273,0.689,-0.052,-0.931,-0.362,none
21.148142,0.3,-0.211,0.93,-0.98,-0.077,0.185,-0.156,-0.219,-0.963,0.766,0.642,-0.029,-0.198,0.04,-0.979,0.177,0.908,0.379,0.256,0.308,-0.916,0.195,0.751,0.631,0.271,0.601,-0.752,0.055,0.979,-0.195,0.009,-0.093,-0.996,-0.577,0.12,0.808,-0.283,0.84,-0.463,none
12.289692,-0.164,-0.247,0.955,0.905,-0.302,-0.302,0.576,0.248,-0.779,0.822,0.034,-0.569,-0.0,-0.316,-0.949,-0.5,0.733,0.461,-0.561,0.393,0.729,-0.413,0.637,0.65,-0.164,-0.082,0.983,-0.312,0.642,0.701,-0.376,-0.847,-0.376,-0.877,0.429,0.215,-0.333,-0.667,-0.667,none
5.056206,-0.092,0.944,0.316,-0.192,-0.192,0.962,0.728,-0.682,0.077,0.864,0.057,-0.501,0.236,0.943,-0.236,0.728,0.24,0.642,-0.651,0.651,0.391,0.836,0.075,0.544,-0.507,0.845,0.169,0.94,-0.052,0.338,-0.539,0.647,0.539,0.884,0.093,0.458,-0.862,0.492,0.123,paper
16.146875,-0.226,0.751,0.621,0.123,0.862,-0.492,0.88,-0.161,-0.448,0.756,-0.585,0.294,-0.485,-0.485,0.728,0.955,-0.263,0.14,-0.342,-0.228,0.912,0.941,0.063,0.334,0.286,-0.857,-0.429,0.93,0.107,0.352,-0.236,-0.943,0.236,0.093,0.936,0.338,0.316,0.949,0.0,scissors
11.196768,0.18,-0.251,0.951,-0.372,0.757,0.537,0.179,0.129,-0.975,0.899,0.308,-0.313,0.799,-0.596,-0.086,0.163,0.957,0.239,-0.639,0.257,-0.725,-0.02,0.769,0.639,-0.283,0.562,-0.777,0.102,0.951,-0.292,0.931,0.31,-0.191,-0.812,0.354,0.465,0.654,0.294,-0.698,none
11.702683,0.008,0.836,0.549,0.061,-0.941,-0.334,-0.24,-0.94,-0.24,0.702,-0.373,0.607,-0.348,0.348,-0.87,0.806,-0.237,0.543,-0.597,0.38,-0.706,0.834,-0.227,0.503,-0.528,0.176,-0.83,0.995,-0.06,-0.073,-0.908,0.147,-0.393,0.193,0.93,0.314,-0.644,-0.694,-0.322,rock
53.413194,0.726,-0.596,0.342,-0.241,0.963,-0.12,-0.726,0.408,-0.554,0.317,0.938,0.141,-0.948,-0.134,-0.289,-0.23,0.938,0.258,-0.683,-0.005,-0.73,-0.758,0.052,0.651,-0.48,0.257,-0.839,-0.626,-0.724,0.29,-0.517,0.107,-0.849,-0.761,-0.583,0.285,0.384,-0.768,0.512,none
21.757106,-0.24,0.751,0.615,-0.291,-0.145,0.946,0.322,-0.875,-0.361,0.757,-0.592,0.277,0.569,0.0,-0.822,0.953,-0.269,0.137,0.42,0.504,-0.755,0.943,0.075,0.323,0.142,0.855,0.499,0.931,0.129,0.342,-0.166,0.775,0.609,0.09,0.942,0.324,-0.937,0.345,-0.049,scissors
7.115054,0.052,0.537,0.842,0.95,0.044,0.309,0.295,-0.6,-0.744,0.98,0.054,-0.191,0.568,-0.276,0.775,0.444,0.593,0.671,-0.347,-0.305,0.887,0.491,0.517,0.701,-0.157,-0.442,0.883,0.385,0.623,0.681,-0.132,-0.396,0.909,0.207,0.293,0.933,-0.138,-0.848,0.512,none
14.63757,-0.139,0.958,0.25,0.602,-0.301,-0.739,-0.066,-0.983,0.172,0.832,-0.008,-0.555,-0.883,-0.347,0.315,0.795,0.211,0.569,-0.66,-0.517,-0.545,0.878,0.032,0.478,-0.726,-0.307,-0.615,0.956,-0.061,0.286,-0.921,-0.14,-0.363,0.906,0.153,0.395,-0.745,-0.308,-0.591,paper
8.562582,0.113,0.856,0.505,-0.064,0.893,0.446,0.409,-0.426,-0.807,0.68,-0.293,0.672,0.724,-0.634,0.272,0.764,-0.181,0.62,0.667,-0.333,0.667,0.823,-0.136,0.551,0.864,-0.259,0.432,1.0,0.022,-0.017,0.976,0.098,-0.195,0.253,0.888,0.384,-0.298,0.954,0.0,rock
19.809276,0.073,0.769,0.635,0.408,0.408,-0.816,0.425,-0.783,-0.455,0.781,-0.309,0.543,-0.64,0.426,-0.64,0.859,-0.138,0.492,-0.772,0.154,0.617,0.897,-0.178,0.406,-0.535,0.802,-0.267,0.984,0.005,-0.177,-0.772,0.617,0.154,0.085,0.92,0.383,-0.8,0.0,-0.6,rock
31.306874,0.391,-0.169,0.905,-0.864,0.0,-0.504,-0.339,-0.072,-0.938,0.567,0.31,0.764,0.816,0.408,0.408,-0.574,0.099,0.813,0.0,0.447,0.894,-0.399,-0.05,0.916,0.83,-0.207,0.518,-0.395,0.143,0.907,0.972,0.075,0.224,-0.393,-0.072,0.917,-0.0,0.258,-0.966,none
1.209496,-0.118,0.949,0.292,0.913,-0.355,0.203,0.764,-0.636,0.112,0.842,0.116,-0.527,-0.485,-0.728,-0.485,0.728,0.289,0.621,-0.485,-0.485,0.728,0.85,0.126,0.512,-0.0,-0.949,0.316,0.963,-0.025,0.269,-0.588,0.196,0.784,0.93,0.018,0.367,0.201,-0.218,-0.955,paper
33.212989,0.48,-0.129,0.868,0.994,0.078,-0.078,-0.416,-0.102,-0.904,0.465,0.234,0.854,0.0,0.298,0.954,-0.706,0.071,0.704,-0.579,0.331,-0.745,-0.312,0.197,0.93,0.0,-0.707,0.707,0.036,0.994,0.106,0.772,0.346,0.533,-0.28,0.085,0.956,0.9,0.284,0.331,none
29.046978,0.04,0.79,0.612,-0.744,-0.248,0.62,-0.429,-0.547,-0.719,0.757,-0.342,0.557,0.101,-0.404,-0.909,0.847,-0.177,0.502,-0.0,-0.447,-0.894,0.877,-0.203,0.436,0.0,-0.447,-0.894,0.988,-0.023,-0.15,-0.635,-0.127,-0.762,0.118,0.929,0.352,-0.807,0.293,-0.513,rock
22.331455,0.033,0.86,0.51,-0.112,-0.801,-0.588,0.541,-0.551,-0.636,0.68,-0.37,0.633,-0.72,0.314,-0.619,0.784,-0.244,0.571,-0.846,0.184,-0.5,0.817,-0.214,0.535,-0.836,0.191,-0.514,0.998,-0.052,-0.041,-0.999,0.04,0.02,0.236,0.922,0.306,-0.174,-0.9,-0.399,rock
4.757948,-0.083,0.8,0.594,0.467,-0.722,-0.51,0.758,-0.566,-0.324,0.728,-0.541,0.422,-0.542,0.759,-0.361,0.947,-0.213,0.24,-0.88,0.474,0.0,0.926,-0.073,0.371,-0.986,-0.118,-0.118,0.931,-0.048,0.361,-0.997,-0.071,-0.0,0.159,0.876,0.455,-0.345,-0.919,-0.191,scissors
10.027391,-0.169,0.798,0.579,-0.028,-0.689,-0.724,0.283,-0.888,-0.362,0.705,-0.606,0.369,-0.863,0.398,-0.31,0.934,-0.299,0.195,-0.995,0.022,-0.101,0.963,-0.026,0.269,-0.818,-0.015,-0.575,0.959,0.003,0.285,-0.822,-0.0,-0.57,0.173,0.923,0.345,0.052,-0.837,-0.545,scissors
14.127206,-0.008,0.949,0.314,0.443,0.136,-0.886,-0.434,-0.899,-0.056,0.886,-0.057,-0.46,-0.45,-0.727,-0.519,0.727,0.15,0.67,0.295,-0.847,-0.442,0.802,-0.023,0.596,0.109,-0.833,-0.543,0.898,-0.133,0.42,-0.201,-0.803,-0.562,0.863,-0.012,0.504,0.066,-0.561,-0.825,paper
1.932555,-0.142,0.751,0.645,-0.707,0.707,0.0,0.779,-0.546,-0.308,0.762,-0.548,0.345,0.582,0.364,-0.727,0.972,-0.184,0.146,0.287,-0.766,-0.575,0.91,0.028,0.413,0.0,1.0,-0.0,0.914,0.052,0.403,-0.391,0.651,0.651,0.066,0.895,0.441,-0.667,0.572,-0.477,scissors
23.862376,0.034,0.841,0.541,0.085,0.705,0.705,0.534,-0.722,-0.44,0.713,-0.369,0.597,0.844,-0.353,0.403,0.813,-0.227,0.537,0.903,-0.136,0.408,0.842,-0.217,0.493,0.922,-0.206,0.328,0.995,-0.049,-0.089,0.974,0.0,-0.225,0.191,0.93,0.314,-0.116,0.942,0.314,rock
9.016703,-0.167,0.743,0.648,0.132,-0.813,-0.567,-0.292,-0.775,-0.56,0.784,-0.532,0.319,-0.659,0.62,-0.426,0.974,-0.18,0.136,-0.931,0.323,-0.171,0.905,0.071,0.419,-0.95,0.039,-0.31,0.901,0.091,0.425,-0.974,0.037,-0.225,0.044,0.907,0.418,-0.257,-0.89,-0.376,scissors
5.948505,-0.065,0.81,0.582,-0.174,0.725,0.667,0.667,-0.679,-0.307,0.732,-0.512,0.45,0.793,-0.595,0.132,0.943,-0.184,0.278,0.974,-0.202,0.101,0.914,-0.082,0.397,0.903,0.097,0.419,0.919,-0.06,0.389,0.784,0.196,0.588,0.164,0.855,0.491,-0.179,0.927,0.329,scissors
14.127069,0.001,0.947,0.322,0.551,0.451,-0.702,-0.434,-0.899,-0.056,0.894,-0.074,-0.443,-0.104,-0.729,-0.677,0.721,0.134,0.68,0.439,-0.878,-0.188,0.793,-0.029,0.608,0.286,-0.915,-0.286,0.893,-0.142,0.428,-0.072,-0.931,-0.358,0.862,-0.017,0.507,0.167,-0.669,-0.724,paper
22.267109,-0.04,0.789,0.613,-0.13,-0.869,0.478,0.058,-0.886,-0.46,0.783,-0.469,0.409,0.254,0.381,-0.889,0.952,-0.146,0.269,-0.06,0.422,-0.905,0.901,-0.061,0.43,-0.411,0.823,0.392,0.902,-0.019,0.431,-0.526,0.733,0.432,0.149,0.865,0.479,-0.964,-0.189,-0.189,scissors
23.90522,0.334,0.132,0.933,-0.146,0.965,0.218,-0.345,-0.426,-0.836,0.9,0.425,0.098,0.822,-0.527,-0.217,0.421,0.692,0.586,0.92,-0.227,0.32,0.327,0.469,0.82,0.936,-0.189,0.297,0.188,0.819,0.542,0.915,0.074,0.396,-0.285,0.207,0.936,0.703,0.415,0.577,none
18.717498,-0.167,0.956,0.24,0.702,0.117,-0.702,0.915,-0.388,-0.109,0.799,-0.042,-0.6,-0.0,0.0,-1.0,0.839,0.2,0.506,-1.0,0.0,0.0,0.903,0.008,0.431,0.447,0.0,-0.894,0.964,-0.072,0.258,-0.802,0.535,0.267,0.916,0.156,0.37,-0.784,0.196,-0.588,paper
43.725131,-0.685,0.53,0.5,0.957,0.141,-0.253,0.812,-0.568,-0.136,0.358,0.484,-0.798,0.955,-0.132,0.265,0.437,0.858,-0.269,0.191,-0.11,0.975,0.315,0.946,-0.075,0.538,-0.404,0.74,0.132,0.984,0.121,-0.327,-0.136,-0.935,0.513,0.687,0.515,-0.749,-0.584,-0.314,none
52.90735,0.738,-0.6,0.308,-0.371,0.557,-0.743,-0.768,0.392,-0.507,0.298,0.931,-0.211,-0.918,-0.204,-0.34,-0.012,0.993,-0.116,-0.866,-0.321,-0.385,0.027,0.999,-0.024,-0.883,-0.084,-0.462,-0.772,-0.254,0.583,0.537,0.447,0.716,-0.761,-0.604,0.236,-0.254,0.254,-0.933,none
20.803704,0.051,0.766,0.641,-0.485,-0.728,-0.485,0.578,-0.69,-0.435,0.776,-0.336,0.534,-0.477,-0.08,-0.875,0.863,-0.165,0.477,-0.843,-0.105,-0.527,0.892,-0.205,0.403,-0.704,-0.101,-0.704,0.983,-0.022,-0.185,-0.986,-0.0,-0.164,0.08,0.931,0.355,-0.641,-0.285,-0.712,rock
26.181359,0.638,0.253,0.727,-0.396,-0.868,0.3,-0.499,-0.654,-0.569,0.91,0.162,0.382,0.247,0.766,-0.593,0.395,0.313,0.864,0.133,0.977,0.167,0.499,0.219,0.839,0.715,0.695,-0.078,0.415,0.57,0.709,0.842,0.517,-0.153,-0.131,-0.398,0.908,-0.853,0.217,-0.476,none
17.137583,-0.347,0.45,0.823,0.0,0.0,0.0,0.802,-0.365,-0.473,0.807,-0.294,-0.513,0.972,0.074,0.222,0.921,0.365,-0.133,0.607,-0.137,0.783,0.896,0.432,-0.102,-0.696,-0.696,-0.174,0.716,0.694,-0.074,-0.802,0.267,0.535,0.04,0.889,0.456,-0.973,0.162,-0.162,none
56.982455,0.725,-0.598,0.341,-0.932,0.213,0.293,-0.65,0.435,-0.623,-0.074,-0.319,0.945,-0.184,0.761,-0.622,-0.724,-0.668,0.17,-0.062,0.867,-0.495,-0.869,-0.466,0.163,-0.079,0.914,0.397,-0.866,-0.484,0.122,-0.126,0.917,0.379,0.005,-0.483,0.876,-0.118,-0.139,-0.983,none
6.458134,-0.073,0.777,0.625,-0.299,0.808,0.508,0.568,-0.745,-0.349,0.767,-0.495,0.407,0.651,-0.754,0.086,0.961,-0.151,0.232,0.905,-0.426,0.0,0.899,-0.024,0.438,0.948,0.2,0.249,0.901,-0.007,0.433,0.912,0.282,0.298,0.108,0.861,0.497,-0.067,0.989,0.134,scissors
20.326311,-0.038,0.748,0.662,0.0,0.734,0.679,0.214,-0.886,-0.411,0.814,-0.452,0.364,0.844,-0.431,0.319,0.967,-0.122,0.222,0.971,-0.068,0.23,0.896,-0.023,0.444,0.857,-0.05,0.513,0.887,0.01,0.461,0.812,-0.008,0.584,0.088,0.87,0.486,-0.017,0.86,0.51,scissors
15.703039,0.057,0.754,0.654,0.0,-0.832,-0.555,0.431,-0.781,-0.452,0.785,-0.331,0.523,-0.457,0.457,-0.762,0.869,-0.158,0.469,-0.937,0.312,0.156,0.898,-0.203,0.39,-0.514,0.686,-0.514,0.98,-0.017,-0.196,-0.814,0.581,-0.0,0.069,0.931,0.358,-0.857,-0.286,-0.429,rock
23.287665,-0.022,0.726,0.687,-0.092,-0.634,-0.767,0.094,-0.898,-0.429,0.85,-0.392,0.352,-0.883,0.321,-0.341,0.975,-0.041,0.219,-0.984,-0.019,-0.175,0.856,-0.002,0.516,-0.796,0.04,-0.604,0.852,0.039,0.521,-0.804,0.03,-0.593,0.047,0.844,0.534,-0.02,-0.801,-0.598,scissors
52.392266,0.703,-0.661,0.263,0.262,-0.682,-0.682,-0.756,0.479,-0.446,0.234,0.902,-0.362,-0.727,0.553,-0.407,-0.022,0.954,-0.298,-0.873,0.218,-0.436,-0.044,0.963,-0.267,-0.962,0.066,-0.265,-0.34,0.921,-0.189,-0.967,0.252,0.021,-0.778,-0.605,0.17,-0.461,0.202,-0.864,none
9.677673,-0.058,-0.165,0.985,-0.0,0.804,0.594,0.351,0.083,-0.933,0.646,0.361,0.673,-0.732,0.122,-0.671,-0.639,0.56,0.527,0.579,0.671,-0.463,-0.11,0.693,0.713,0.112,0.953,-0.28,0.17,0.569,-0.804,0.316,0.81,-0.494,-0.699,0.569,0.434,-0.611,0.57,0.55,none
4.544939,-0.135,0.747,0.651,0.149,-0.788,-0.597,0.736,-0.585,-0.34,0.768,-0.541,0.343,-0.678,0.596,-0.431,0.97,-0.19,0.151,-0.945,0.295,-0.138,0.909,0.036,0.414,-0.944,0.0,-0.329,0.909,0.053,0.413,-0.967,0.042,-0.252,0.062,0.898,0.436,-0.212,-0.89,-0.403,scissors
2.016075,-0.134,0.754,0.643,-0.667,0.667,0.333,0.755,-0.571,-0.323,0.763,-0.539,0.356,0.619,0.309,-0.722,0.973,-0.178,0.149,0.333,-0.667,-0.667,0.909,0.026,0.416,0.302,0.905,0.302,0.91,0.055,0.411,-0.127,0.635,0.762,0.061,0.893,0.447,-0.766,0.575,-0.287,scissors
37.633904,0.069,0.809,0.583,-0.408,-0.816,0.408,0.182,-0.94,-0.289,0.744,-0.325,0.584,-0.272,0.136,-0.953,0.828,-0.17,0.534,-0.962,0.192,-0.192,0.866,-0.173,0.469,-0.487,0.324,-0.811,0.994,0.001,-0.108,-0.889,0.381,-0.254,0.163,0.911,0.38,-0.843,-0.105,-0.527,rock
10.931394,-0.185,0.943,0.279,-0.218,0.873,0.436,0.484,-0.83,0.278,0.826,0.083,-0.557,0.786,0.202,-0.584,0.77,0.284,0.572,0.656,0.413,0.632,0.866,0.114,0.486,0.796,0.241,0.555,0.957,-0.003,0.289,0.849,0.175,0.499,0.887,0.179,0.425,0.757,0.336,0.561,paper
2.523606,-0.138,0.935,0.325,-0.74,0.647,0.185,0.765,-0.631,0.129,0.868,0.09,-0.489,0.224,0.972,-0.075,0.699,0.293,0.652,-0.408,0.816,0.408,0.82,0.148,0.552,-0.209,0.975,0.07,0.934,0.046,0.353,-0.275,0.881,0.385,0.844,0.217,0.49,-0.324,0.811,0.487,paper
10.175715,-0.055,-0.159,0.986,0.436,0.873,0.218,0.392,0.094,-0.915,0.534,0.426,0.731,0.541,-0.433,-0.721,-0.657,0.572,0.491,0.267,-0.535,0.802,-0.12,0.697,0.707,0.418,-0.488,0.766,0.17,0.532,-0.83,0.854,-0.493,-0.164,-0.71,0.58,0.4,0.57,0.456,-0.684,none
45.254975,-0.709,0.241,0.663,-0.813,-0.565,-0.141,0.857,-0.408,-0.314,0.545,0.15,-0.825,-0.934,0.313,-0.17,0.703,0.622,-0.345,-0.409,0.155,-0.899,0.665,0.651,-0.366,-0.538,0.276,-0.796,0.521,0.83,-0.199,-0.605,0.393,-0.693,-0.281,0.952,-0.117,0.123,-0.023,-0.992,none
12.218569,-0.167,-0.253,0.953,0.447,0.0,0.894,0.554,0.198,-0.809,0.823,0.038,-0.567,0.359,-0.717,-0.598,-0.529,0.728,0.436,-0.45,0.45,0.771,-0.449,0.636,0.628,-0.348,0.348,0.87,-0.338,0.644,0.686,-0.857,-0.286,-0.429,-0.882,0.42,0.215,0.0,-0.555,-0.832,none
5.563089,0.03,0.912,0.408,-0.156,-0.937,-0.312,0.682,-0.656,-0.325,0.594,-0.368,0.715,-0.454,0.162,-0.876,0.703,-0.287,0.65,-0.678,0.178,-0.713,0.744,-0.196,0.639,-0.637,0.034,-0.771,0.994,-0.057,0.091,-0.948,-0.032,-0.316,0.352,0.886,0.3,-0.577,-0.609,-0.545,rock
33.477036,0.073,0.818,0.57,-0.473,0.788,0.394,0.213,-0.944,-0.251,0.729,-0.328,0.6,0.577,-0.808,-0.115,0.814,-0.18,0.552,0.566,-0.707,0.424,0.858,-0.17,0.484,0.68,-0.68,0.272,0.996,0.005,-0.092,0.873,-0.436,-0.218,0.185,0.907,0.379,-0.359,0.862,-0.359,rock
50.864735,0.696,-0.64,0.326,-0.31,0.689,-0.655,-0.752,0.4,-0.524,0.058,0.875,0.48,-0.316,-0.949,0.0,-0.577,0.758,0.305,0.055,-0.997,0.055,-0.484,0.823,0.297,-0.03,-1.0,-0.0,-0.644,0.7,0.307,0.106,-0.994,0.035,-0.693,-0.644,0.325,0.647,-0.185,-0.74,none
13.236198,0.093,0.484,0.87,0.302,0.825,-0.477,-0.141,-0.419,-0.897,0.952,-0.259,-0.162,0.287,-0.003,0.958,0.99,0.133,0.038,0.095,-0.279,0.956,0.993,0.051,-0.108,0.149,-0.34,0.928,0.884,0.211,-0.418,0.48,-0.076,0.874,0.611,-0.055,0.79,0.043,-0.741,-0.671,none
26.412829,0.032,0.825,0.564,0.398,-0.597,-0.697,-0.348,-0.885,-0.311,0.726,-0.354,0.59,-0.518,0.605,-0.605,0.821,-0.208,0.532,-0.878,0.479,0.0,0.852,-0.208,0.481,-0.596,0.681,-0.426,0.994,-0.037,-0.101,-0.83,0.553,0.069,0.172,0.926,0.336,-0.588,-0.784,-0.196,rock
19.717572,0.016,0.749,0.662,-0.236,0.472,0.849,0.547,-0.705,-0.451,0.82,-0.397,0.412,0.919,-0.322,-0.23,0.958,-0.069,0.279,0.986,0.052,-0.156,0.861,-0.078,0.502,0.724,0.362,0.588,0.86,-0.044,0.508,0.494,0.453,0.742,0.105,0.826,0.553,-0.551,0.787,0.276,scissors
6.604456,0.001,0.202,0.979,0.992,0.126,0.013,0.326,-0.326,-0.887,0.888,0.459,0.031,-0.132,-0.987,0.088,0.015,0.756,0.655,-0.443,-0.802,0.401,0.075,0.63,0.773,-0.332,-0.94,-0.083,0.027,0.63,0.776,-0.629,-0.774,-0.073,-0.177,0.373,0.911,-0.689,-0.344,0.638,none
7.991779,-0.098,0.794,0.6,0.139,0.833,0.536,-0.135,-0.863,-0.487,0.761,-0.514,0.396,0.808,-0.464,0.363,0.964,-0.171,0.204,0.972,-0.081,0.223,0.911,0.001,0.413,0.867,-0.069,0.493,0.911,0.024,0.411,0.83,-0.04,0.557,0.095,0.882,0.462,-0.03,0.858,0.513,scissors
47.806016,0.482,-0.484,0.731,-0.403,-0.889,-0.218,-0.351,0.375,-0.858,0.388,0.428,0.816,-0.394,0.775,0.495,-0.864,0.14,0.484,-0.779,0.133,-0.613,-0.809,0.073,0.584,-0.892,0.178,-0.416,-0.818,0.057,0.572,-0.857,0.286,-0.429,-0.565,-0.312,0.764,-0.888,0.098,-0.449,none
52.394093,0.743,-0.623,0.245,-0.642,0.749,-0.161,-0.785,0.398,-0.475,0.253,0.922,-0.294,-0.436,-0.218,0.873,-0.026,0.973,-0.229,-0.574,0.503,0.646,-0.012,0.987,-0.161,-0.606,-0.662,0.441,-0.41,0.907,0.093,-0.927,0.075,-0.366,-0.761,-0.621,0.19,0.416,-0.208,0.885,none
20.228721,-0.042,0.678,0.734,-0.03,0.714,0.699,0.32,-0.844,-0.431,0.865,-0.383,0.324,0.848,-0.44,0.294,0.983,-0.028,0.179,0.977,-0.09,0.195,0.844,0.058,0.534,0.862,-0.016,0.507,0.829,0.094,0.551,0.815,0.033,0.579,-0.013,0.843,0.538,-0.04,0.877,0.478,scissors
11.196568,0.163,-0.264,0.951,-0.447,0.734,0.511,0.147,0.125,-0.981,0.897,0.315,-0.311,0.961,-0.027,-0.276,0.046,0.84,0.541,-0.706,0.164,-0.689,0.092,0.747,0.659,-0.397,0.632,-0.665,0.156,0.981,-0.115,0.686,0.53,-0.499,-0.742,0.459,0.488,0.578,0.256,-0.774,none
28.962369,0.036,0.803,0.594,-0.206,0.977,-0.051,-0.45,-0.541,-0.71,0.74,-0.344,0.578,-0.0,-0.659,0.753,0.831,-0.188,0.524,0.0,-0.569,0.822,0.865,-0.2,0.46,0.162,-0.162,0.973,0.992,-0.024,-0.121,0.552,-0.092,0.829,0.147,0.926,0.348,0.393,0.864,-0.314,rock
31.002889,0.054,0.83,0.556,0.612,-0.421,-0.669,0.099,-0.941,-0.324,0.722,-0.32,0.614,-0.507,0.845,-0.169,0.808,-0.177,0.562,-0.771,0.629,0.101,0.855,-0.163,0.493,-0.542,0.814,-0.209,0.996,0.007,-0.086,-0.7,0.681,0.214,0.197,0.905,0.376,0.023,-0.953,0.302,rock
6.324082,-0.069,0.952,0.298,0.0,1.0,0.0,0.73,-0.675,0.11,0.856,0.022,-0.516,0.445,-0.089,-0.891,0.745,0.208,0.634,0.625,0.0,0.781,0.843,0.044,0.536,0.937,-0.156,0.312,0.941,-0.088,0.326,0.6,0.0,0.8,0.894,0.075,0.442,0.905,0.302,-0.302,paper
12.724833,-0.172,-0.276,0.946,0.98,0.14,-0.14,0.542,0.212,-0.813,0.936,0.069,-0.344,-0.568,0.792,-0.224,-0.107,0.785,0.611,-0.199,-0.159,0.967,0.051,0.682,0.729,0.035,-0.508,0.86,-0.242,0.665,0.706,0.328,-0.668,0.668,-0.671,0.614,0.416,-0.382,-0.455,0.804,none
13.087206,-0.186,0.717,0.671,0.36,0.639,-0.679,0.762,-0.157,-0.628,0.796,-0.535,0.283,-0.571,-0.143,0.809,0.975,-0.191,0.113,-0.388,-0.233,0.892,0.913,0.08,0.4,0.128,-0.895,-0.426,0.902,0.113,0.417,0.053,-0.904,-0.425,0.034,0.921,0.389,0.986,-0.116,0.116,scissors
29.470951,0.004,0.788,0.615,-0.123,-0.862,-0.492,-0.445,-0.55,-0.707,0.754,-0.362,0.549,-0.412,0.082,-0.907,0.85,-0.197,0.488,-0.862,0.123,-0.492,0.873,-0.226,0.431,-0.597,0.1,-0.796,0.987,-0.044,-0.157,-0.95,0.173,-0.259,0.113,0.937,0.329,-0.745,-0.331,-0.579,rock
8.877108,-0.063,0.934,0.351,-0.517,0.318,0.795,0.567,-0.792,0.227,0.882,0.027,-0.47,0.698,0.698,-0.164,0.715,0.221,0.663,-0.04,0.764,0.644,0.814,0.064,0.578,0.22,0.791,0.571,0.923,-0.06,0.379,0.279,0.718,0.638,0.867,0.087,0.49,-0.046,0.683,0.729,paper
7.624661,0.023,0.751,0.659,-0.955,0.281,0.098,0.333,-0.809,-0.484,0.899,0.412,-0.146,-0.793,-0.149,-0.59,0.2,0.747,0.634,-0.136,0.141,-0.981,0.38,0.6,0.704,-0.173,0.31,-0.935,0.581,0.513,0.632,-0.602,0.571,-0.558,0.648,0.31,0.696,-0.129,0.923,0.362,none
15.637047,-0.171,0.72,0.672,0.202,0.979,-0.034,0.79,-0.226,-0.569,0.805,-0.519,0.289,0.152,-0.457,0.876,0.975,-0.179,0.131,0.307,-0.342,0.888,0.907,0.077,0.414,0.69,-0.724,-0.0,0.896,0.102,0.432,0.705,-0.705,0.078,0.039,0.913,0.405,0.707,0.589,0.393,scissors
16.805701,-0.356,0.449,0.819,-0.762,-0.635,-0.127,0.762,-0.403,-0.507,0.804,-0.215,-0.554,-0.11,-0.11,-0.988,0.911,0.395,-0.122,-0.487,-0.324,-0.811,0.898,0.425,-0.112,-0.314,0.105,-0.943,0.715,0.695,-0.079,-0.598,0.359,-0.717,0.039,0.894,0.446,-0.667,0.333,-0.667,none
36.60219,0.578,-0.42,0.7,0.0,0.707,0.707,-0.432,0.266,-0.862,0.541,-0.051,0.84,-0.791,0.378,-0.481,0.387,0.921,-0.038,-0.478,0.388,-0.788,0.365,0.929,0.057,0.161,0.883,-0.441,-0.045,0.978,-0.205,-0.136,0.904,-0.407,-0.687,-0.239,0.686,-0.864,0.115,0.49,none
30.559654,0.114,0.816,0.566,-0.135,-0.9,-0.414,0.065,-0.948,-0.312,0.722,-0.294,0.626,-0.604,0.287,-0.743,0.8,-0.163,0.578,-0.735,0.211,-0.644,0.85,-0.143,0.507,-0.744,0.129,-0.655,0.998,0.022,-0.066,-0.987,0.01,-0.158,0.211,0.899,0.383,-0.366,-0.833,-0.416,rock
52.903715,0.736,-0.602,0.311,-0.095,0.953,-0.286,-0.762,0.39,-0.518,0.319,0.916,-0.244,-0.108,0.647,0.755,0.025,0.988,-0.155,-0.458,-0.229,0.859,0.065,0.995,-0.079,-0.704,-0.352,0.616,-0.767,-0.359,0.532,-0.461,-0.138,-0.876,-0.763,-0.583,0.279,-0.0,-0.581,-0.814,none
5.499307,-0.018,0.913,0.407,0.286,-0.429,-0.857,0.668,-0.681,-0.3,0.583,-0.398,0.708,-0.819,0.565,-0.097,0.701,-0.315,0.64,-0.955,0.275,0.11,0.735,-0.225,0.64,-0.828,0.559,-0.039,0.992,-0.086,0.091,-0.803,0.383,0.456,0.356,0.896,0.267,0.271,-0.959,-0.083,rock
3.912384,-0.126,0.762,0.635,0.707,0.707,0.0,0.75,-0.599,-0.28,0.755,-0.543,0.366,-0.302,0.302,-0.905,0.967,-0.191,0.171,-0.873,0.436,0.218,0.915,0.005,0.403,-1.0,0.0,0.0,0.916,0.028,0.4,-0.68,0.272,0.68,0.087,0.893,0.442,-0.986,0.0,-0.164,scissors
18.70985,0.27,0.879,-0.392,0.597,-0.802,-0.021,0.196,-0.272,0.942,0.121,-0.727,0.676,0.884,0.37,0.286,0.244,-0.823,0.513,0.547,0.259,0.796,0.266,-0.921,0.286,0.538,0.039,0.842,0.494,-0.479,0.725,0.948,-0.007,0.317,0.901,-0.356,0.247,-0.862,-0.506,0.0,none
1.096131,-0.012,-0.302,0.953,-0.588,0.196,0.784,0.177,0.13,-0.976,0.693,0.706,0.148,0.658,0.366,-0.658,-0.152,0.909,0.389,0.168,0.926,0.337,-0.025,0.883,0.468,0.408,0.898,0.163,-0.129,0.955,0.266,-0.0,0.978,0.21,-0.611,0.352,0.709,-0.641,0.712,0.285,none
6.011433,0.001,0.878,0.478,-0.473,-0.867,-0.158,0.653,-0.668,-0.357,0.64,-0.382,0.667,-0.408,-0.024,-0.913,0.752,-0.271,0.601,-0.511,-0.0,-0.86,0.789,-0.214,0.576,-0.583,-0.203,-0.786,0.998,-0.062,0.01,-0.886,-0.246,-0.394,0.275,0.911,0.306,-0.597,-0.478,-0.645,rock
7.624012,0.016,0.631,0.776,-0.597,0.796,-0.1,0.288,-0.763,-0.579,0.965,-0.038,-0.261,-0.426,-0.659,-0.62,0.579,0.507,0.638,0.463,-0.793,0.396,0.63,0.437,0.642,0.612,-0.786,-0.087,0.519,0.576,0.632,0.625,-0.625,0.469,0.309,0.308,0.9,0.63,0.709,0.315,none
18.493941,0.255,0.919,-0.3,0.926,-0.22,0.306,0.188,-0.342,0.921,0.223,-0.778,0.588,0.83,0.388,0.4,0.324,-0.789,0.522,0.254,0.316,0.914,0.362,-0.886,0.29,0.5,0.111,0.859,0.514,-0.614,0.599,0.323,0.391,0.862,0.901,-0.329,0.284,-0.556,-0.426,0.714,none
51.882923,0.732,-0.598,0.326,-0.68,-0.733,0.0,-0.746,0.392,-0.538,0.178,0.976,0.128,0.995,-0.02,0.099,-0.315,0.947,0.058,0.764,-0.02,0.645,-0.245,0.969,0.002,0.834,-0.076,0.547,-0.493,0.869,0.047,0.883,-0.177,0.434,-0.644,-0.683,0.344,-0.89,0.371,0.267,none
42.234935,-0.541,0.698,0.468,-0.924,-0.142,-0.355,0.731,-0.678,-0.078,0.6,-0.296,-0.743,-0.389,-0.291,-0.874,0.936,0.302,-0.181,-0.199,-0.398,-0.896,0.936,0.302,-0.184,0.176,-0.176,-0.968,0.849,0.427,-0.311,-0.331,-0.331,-0.883,0.57,0.661,0.488,-0.298,0.596,-0.745,none
15.702666,0.068,0.756,0.651,-0.348,0.348,-0.87,0.452,-0.796,-0.402,0.783,-0.326,0.53,-0.868,0.0,-0.496,0.866,-0.153,0.476,-0.97,-0.108,0.216,0.897,-0.193,0.398,-0.937,0.312,-0.156,0.982,-0.01,-0.187,-0.883,0.331,0.331,0.078,0.928,0.365,-0.429,-0.286,-0.857,rock
28.387134,-0.023,0.707,0.707,0.267,0.535,-0.802,0.544,-0.719,-0.433,0.855,-0.395,0.336,-0.857,-0.286,0.429,0.978,-0.048,0.204,-0.537,-0.447,0.716,0.856,-0.0,0.517,-0.0,-0.759,-0.651,0.846,0.055,0.53,-0.457,-0.762,-0.457,0.04,0.851,0.524,0.707,0.0,-0.707,scissors
17.473802,-0.355,0.425,0.832,0.611,-0.774,-0.163,0.761,-0.394,-0.515,0.832,-0.326,-0.448,-0.138,0.912,0.387,0.929,0.361,-0.082,-0.854,0.299,0.427,0.879,0.476,-0.007,-0.961,0.227,0.157,0.677,0.736,-0.006,-0.931,0.31,0.191,0.012,0.86,0.51,-0.806,-0.579,0.126,none
11.047526,-0.121,0.769,0.628,-0.129,-0.741,-0.659,0.785,-0.462,-0.414,0.776,-0.519,0.357,-0.797,0.348,-0.494,0.967,-0.181,0.182,-0.963,0.022,-0.27,0.916,0.006,0.402,-0.804,0.177,-0.568,0.912,0.036,0.408,-0.835,0.188,-0.517,0.092,0.897,0.433,-0.123,-0.771,-0.625,scissors
29.547695,-0.018,0.775,0.632,-0.067,-0.918,-0.392,-0.499,-0.528,-0.687,0.788,-0.368,0.494,-0.58,0.312,-0.752,0.883,-0.174,0.436,-0.729,0.243,-0.64,0.896,-0.24,0.374,-0.729,0.159,-0.666,0.975,-0.051,-0.215,-0.985,0.042,-0.168,0.042,0.943,0.331,-0.374,-0.844,-0.385,rock
13.619269,0.041,0.952,0.304,-0.498,0.052,0.865,-0.435,-0.896,-0.088,0.876,-0.101,-0.472,0.845,0.516,0.141,0.739,0.102,0.666,-0.276,0.551,0.787,0.805,-0.076,0.588,-0.045,0.585,0.81,0.89,-0.186,0.416,-0.0,0.573,0.819,0.869,-0.061,0.491,-0.356,0.356,0.864,paper
13.261025,-0.108,0.516,0.85,-0.997,-0.071,0.0,0.473,-0.603,-0.642,0.82,-0.548,-0.168,-0.422,0.527,0.738,0.962,-0.244,-0.125,0.147,-0.589,0.795,0.924,-0.237,-0.299,-0.291,-0.927,0.238,0.871,-0.044,-0.489,0.073,-0.807,0.587,0.535,-0.028,0.845,-0.933,0.024,0.359,none
10.150754,0.019,0.871,0.491,0.245,0.817,0.521,0.405,-0.871,-0.279,0.661,-0.376,0.649,0.727,-0.217,0.651,0.77,-0.26,0.583,0.755,-0.084,0.65,0.801,-0.225,0.555,0.838,-0.042,0.545,0.998,-0.069,-0.013,0.989,0.141,0.033,0.248,0.922,0.299,0.127,0.887,0.444,rock
3.090442,0.004,-0.276,0.961,-0.0,-0.894,0.447,0.165,0.158,-0.974,0.699,0.695,0.167,-0.0,0.949,-0.316,-0.139,0.896,0.422,-0.839,0.28,0.466,-0.008,0.871,0.491,-0.768,0.512,0.384,-0.112,0.957,0.269,-0.745,0.596,0.298,-0.61,0.34,0.716,-0.98,0.178,0.089,none
11.239547,-0.141,-0.233,0.962,-0.518,0.777,0.356,0.447,0.202,-0.871,0.881,0.106,-0.461,0.841,-0.496,-0.216,-0.488,0.69,0.535,0.111,0.977,-0.184,-0.437,0.6,0.67,0.19,0.972,-0.142,-0.196,0.791,0.58,-0.8,0.421,-0.427,-0.837,0.408,0.365,0.342,0.932,-0.124,none
18.217618,-0.205,0.815,0.543,-0.056,0.706,0.706,0.891,-0.373,-0.258,0.706,-0.611,0.359,0.852,-0.476,0.218,0.925,-0.314,0.213,0.976,-0.12,0.179,0.961,-0.009,0.276,0.878,0.019,0.477,0.955,0.048,0.291,0.805,0.078,0.589,0.187,0.925,0.33,-0.112,0.896,0.429,scissors
21.822416,0.028,0.799,0.6,0.094,-0.795,-0.599,0.588,-0.629,-0.509,0.761,-0.349,0.547,-0.648,0.511,-0.565,0.853,-0.186,0.487,-0.828,0.377,-0.414,0.88,-0.219,0.422,-0.765,0.382,-0.519,0.985,-0.04,-0.166,-0.972,0.234,0.009,0.1,0.937,0.335,-0.176,-0.961,-0.213,rock
20.178957,0.198,0.974,-0.108,-0.959,0.25,0.131,0.232,-0.525,0.819,0.38,-0.834,0.4,-0.254,-0.482,-0.839,0.544,-0.686,0.483,0.362,-0.266,-0.894,0.615,-0.788,0.029,0.625,0.256,-0.737,0.837,0.101,0.538,-0.141,-0.857,-0.495,0.921,0.163,0.354,-0.231,0.823,-0.52,none
0.716522,0.036,0.812,0.583,-0.588,-0.784,0.196,0.527,-0.773,-0.353,0.725,-0.355,0.59,-0.336,0.067,-0.94,0.827,-0.204,0.524,-0.69,0.383,-0.614,0.857,-0.215,0.468,-0.253,0.19,-0.949,0.992,-0.041,-0.12,-0.666,0.499,-0.555,0.15,0.935,0.322,-0.979,-0.0,-0.203,rock
37.632573,0.084,0.811,0.579,-0.802,-0.535,0.267,0.242,-0.944,-0.223,0.741,-0.311,0.595,-0.0,-0.0,-1.0,0.82,-0.163,0.548,-0.667,0.333,-0.667,0.864,-0.162,0.477,-0.196,-0.0,-0.981,0.995,0.012,-0.098,-0.857,0.286,-0.429,0.173,0.905,0.39,-0.858,0.191,-0.477,rock
28.595927,0.521,-0.047,0.852,0.772,-0.617,0.154,-0.575,-0.243,-0.781,0.464,0.596,0.655,0.883,-0.378,0.278,-0.025,0.636,0.771,0.374,-0.312,0.873,0.202,0.645,0.737,0.559,-0.385,0.734,0.049,0.877,0.478,0.376,0.188,0.908,-0.351,-0.145,0.925,-0.625,-0.278,-0.729,none
10.738176,0.201,-0.23,0.952,-0.766,-0.607,-0.211,0.158,0.12,-0.98,0.859,0.456,-0.235,0.779,0.528,-0.338,0.38,0.846,0.374,0.707,-0.037,0.707,0.265,0.74,0.618,0.589,0.589,0.554,0.188,0.965,-0.184,0.979,0.11,0.17,-0.749,0.472,0.465,0.5,0.062,-0.864,none
11.342924,-0.07,0.957,0.281,-0.358,0.295,0.886,0.234,-0.944,0.232,0.85,-0.017,-0.527,0.766,0.642,-0.041,0.772,0.184,0.608,0.0,0.717,0.697,0.852,0.014,0.523,0.249,0.685,0.685,0.94,-0.104,0.326,0.36,0.639,0.679,0.9,0.071,0.43,0.066,0.574,0.816,paper
8.831237,-0.082,0.94,0.33,-0.309,0.619,0.722,0.589,-0.783,0.203,0.873,0.045,-0.486,0.774,0.547,-0.319,0.726,0.233,0.647,0.14,0.652,0.745,0.826,0.07,0.559,0.412,0.67,0.618,0.933,-0.059,0.355,0.439,0.585,0.682,0.879,0.093,0.469,0.173,0.636,0.752,paper
13.107776,-0.138,0.981,0.134,-0.207,0.851,0.483,0.21,-0.946,0.248,0.697,-0.039,-0.716,0.806,0.058,-0.59,0.89,0.16,0.426,0.73,0.229,0.644,0.95,-0.055,0.307,0.822,0.057,0.567,0.982,-0.153,0.113,0.897,0.015,0.441,0.958,0.127,0.256,0.852,0.2,0.484,paper
1.207,-0.148,0.766,0.626,0.64,0.426,0.64,0.796,-0.51,-0.326,0.754,-0.562,0.339,0.381,-0.254,-0.889,0.968,-0.196,0.155,0.316,0.0,-0.949,0.912,0.029,0.41,0.348,0.87,0.348,0.916,0.057,0.398,-0.198,0.693,0.693,0.071,0.896,0.437,-0.864,0.432,-0.259,scissors
5.584924,0.148,-0.217,0.965,-0.667,-0.667,-0.333,0.234,0.062,-0.97,0.774,0.553,0.308,-0.196,0.784,-0.588,-0.253,0.779,0.574,-0.688,0.229,0.688,-0.168,0.699,0.695,0.784,0.196,0.588,-0.157,0.824,0.544,0.885,0.147,0.442,-0.442,0.245,0.863,-0.505,0.303,-0.808,none
53.412384,0.739,-0.599,0.31,-0.706,0.471,-0.529,-0.746,0.421,-0.516,0.372,0.919,-0.13,-0.978,0.101,0.182,0.026,0.999,-0.042,-0.957,-0.289,0.008,-0.225,0.929,0.294,-0.726,0.163,-0.668,-0.756,-0.202,0.622,-0.488,0.677,-0.551,-0.745,-0.612,0.265,-0.476,0.417,-0.774,none
11.19825,0.03,-0.321,0.947,0.017,0.979,0.204,0.356,0.194,-0.914,0.846,0.151,-0.512,0.732,-0.414,0.541,-0.384,0.694,0.609,0.65,0.174,-0.74,-0.324,0.67,0.668,-0.032,0.657,-0.753,-0.035,0.971,0.236,-0.939,0.121,-0.321,-0.886,0.316,0.34,0.307,0.911,0.276,none
20.737509,-0.041,0.733,0.679,0.13,0.894,0.428,0.123,-0.913,-0.39,0.837,-0.416,0.355,0.714,-0.444,0.541,0.974,-0.073,0.213,0.847,-0.115,0.52,0.863,0.008,0.505,0.859,-0.292,0.42,0.864,0.016,0.504,0.838,-0.229,0.495,0.05,0.85,0.525,0.189,0.814,0.549,scissors
19.554242,0.289,0.844,-0.453,-0.192,0.192,-0.962,0.181,-0.237,0.954,0.092,-0.368,0.925,-0.873,-0.218,-0.436,-0.063,-0.493,0.868,-0.889,-0.381,0.254,0.379,-0.91,-0.169,-0.447,-0.0,-0.894,0.794,0.25,0.554,-0.667,0.333,0.667,0.909,0.02,0.416,-0.342,-0.228,-0.912,none
32.025341,0.377,-0.313,0.872,-0.447,-0.05,-0.893,-0.331,0.006,-0.944,0.434,0.234,0.87,0.624,0.686,-0.374,-0.722,0.006,0.691,0.0,0.64,0.768,-0.524,-0.024,0.851,0.205,-0.392,0.897,-0.499,0.156,0.853,0.992,-0.124,0.0,-0.457,0.172,0.873,0.198,-0.415,-0.888,none
49.379206,0.713,-0.386,0.585,-0.974,0.112,0.199,-0.665,0.133,-0.735,0.358,0.175,0.917,-0.009,0.622,-0.783,-0.748,-0.016,0.663,0.267,0.823,-0.502,-0.698,-0.036,0.715,0.274,0.862,-0.426,-0.739,-0.055,0.671,0.259,0.925,-0.278,-0.444,-0.658,0.609,0.124,0.976,0.177,none
26.857754,-0.011,0.759,0.651,0.027,0.698,0.716,0.699,-0.502,-0.509,0.815,-0.426,0.393,0.873,-0.389,0.294,0.958,-0.102,0.268,0.976,-0.028,0.216,0.887,-0.082,0.454,0.838,-0.046,0.543,0.884,-0.02,0.467,0.786,0.028,0.618,0.124,0.854,0.506,-0.055,0.855,0.515,scissors
7.993452,-0.114,0.827,0.55,0.01,0.773,0.634,-0.248,-0.818,-0.519,0.706,-0.561,0.431,0.796,-0.482,0.367,0.935,-0.248,0.253,0.966,-0.125,0.228,0.943,-0.06,0.328,0.882,-0.071,0.466,0.946,-0.041,0.323,0.848,-0.041,0.528,0.188,0.889,0.417,-0.01,0.873,0.487,scissors
25.374187,0.43,0.535,0.727,0.444,-0.273,-0.853,-0.377,-0.797,-0.471,0.991,-0.016,0.136,-0.844,-0.537,0.019,0.505,0.231,0.832,-0.496,-0.713,-0.496,0.543,0.051,0.838,-0.365,-0.578,-0.73,0.475,0.472,0.743,-0.661,-0.661,-0.356,0.161,-0.144,0.976,-0.809,-0.568,-0.153,none
15.78533,-0.308,-0.061,0.949,0.944,-0.022,0.33,0.623,0.103,-0.775,0.81,0.011,-0.586,-0.953,0.243,0.182,0.838,0.45,-0.309,-0.933,0.128,-0.335,0.826,0.439,-0.354,-0.976,-0.135,-0.172,0.212,0.926,0.312,0.616,-0.125,0.778,-0.439,0.877,0.194,-0.633,-0.369,0.68,none
4.139599,0.104,-0.228,0.968,-0.143,0.685,-0.714,0.174,0.079,-0.982,0.695,0.667,0.269,-0.46,-0.805,-0.374,-0.211,0.857,0.47,0.408,-0.874,-0.262,-0.068,0.825,0.562,0.283,-0.794,-0.538,-0.156,0.925,0.346,0.19,-0.918,-0.348,-0.567,0.271,0.778,0.769,-0.256,-0.586,none
51.947324,0.706,-0.646,0.289,0.808,-0.505,-0.303,-0.745,0.456,-0.487,0.249,0.888,-0.387,-0.224,0.822,-0.523,0.002,0.947,-0.322,-0.612,0.786,0.087,-0.023,0.955,-0.296,-0.707,0.707,-0.0,-0.328,0.917,-0.226,-0.659,0.725,0.198,-0.789,-0.585,0.187,-0.599,-0.05,-0.799,none
0.124175,-0.182,0.746,0.64,0.179,0.718,0.673,0.783,-0.527,-0.331,0.759,-0.572,0.312,0.837,-0.523,0.157,0.972,-0.201,0.124,0.975,-0.054,0.217,0.909,0.07,0.411,0.831,0.046,0.554,0.915,0.095,0.393,0.648,0.149,0.747,0.046,0.906,0.421,-0.286,0.857,0.429,scissors
37.605082,0.662,-0.434,0.611,0.24,-0.96,-0.144,-0.487,0.289,-0.824,0.648,0.747,-0.146,0.841,0.085,0.535,0.379,0.925,-0.025,0.565,0.025,0.825,0.368,0.92,-0.135,0.72,0.02,0.693,-0.057,0.934,-0.352,0.935,0.194,0.297,-0.624,-0.13,0.771,0.365,0.367,-0.856,none
43.214652,-0.644,0.576,0.503,-0.938,-0.166,-0.304,0.805,-0.578,-0.131,0.537,-0.263,-0.801,-0.923,-0.236,-0.304,0.801,0.499,-0.332,-0.392,0.182,-0.902,0.667,0.737,-0.112,0.357,0.0,-0.934,0.526,0.845,-0.098,0.342,0.0,-0.94,0.401,0.893,0.206,-0.987,0.144,-0.072,none
26.411372,0.028,0.809,0.587,0.469,0.625,0.625,-0.348,-0.885,-0.311,0.727,-0.354,0.588,0.667,0.333,-0.667,0.823,-0.205,0.53,-0.0,0.447,0.894,0.855,-0.207,0.475,0.436,0.873,-0.218,0.993,-0.033,-0.11,-0.162,0.973,-0.162,0.162,0.927,0.339,-0.832,0.555,0.0,rock
20.802089,0.044,0.769,0.638,-0.439,-0.376,-0.816,0.583,-0.704,-0.407,0.771,-0.342,0.538,-0.835,-0.119,-0.537,0.859,-0.173,0.482,-0.92,-0.307,-0.245,0.887,-0.208,0.412,-0.959,-0.069,-0.274,0.984,-0.027,-0.175,-0.954,-0.179,0.239,0.09,0.933,0.348,-0.188,-0.439,-0.878,rock
13.597641,-0.285,0.733,0.617,0.223,0.836,-0.502,0.852,-0.131,-0.506,0.738,-0.626,0.251,-0.349,-0.419,0.838,0.95,-0.301,0.085,-0.209,-0.262,0.942,0.948,0.109,0.3,0.398,-0.852,-0.341,0.933,0.156,0.323,0.287,-0.933,-0.215,0.073,0.957,0.282,0.967,0.081,0.242,scissors
3.030581,-0.138,0.755,0.641,0.487,0.811,0.324,0.734,-0.585,-0.346,0.765,-0.537,0.356,0.894,-0.0,-0.447,0.973,-0.177,0.149,0.0,0.316,0.949,0.906,0.028,0.422,0.667,-0.333,0.667,0.909,0.051,0.413,-0.14,0.14,0.98,0.059,0.893,0.446,-0.845,0.507,0.169,scissors
7.031386,0.083,0.8,0.594,0.408,-0.408,-0.816,0.594,-0.579,-0.559,0.745,-0.312,0.589,-0.527,0.422,-0.738,0.828,-0.159,0.538,-0.949,0.316,-0.0,0.875,-0.164,0.456,-0.684,0.456,-0.57,0.991,0.015,-0.129,-0.894,0.447,0.0,0.144,0.911,0.386,-0.615,-0.615,-0.492,rock
5.075874,0.141,-0.176,0.974,0.349,0.93,-0.116,0.17,0.034,-0.985,0.778,0.547,0.308,0.839,-0.466,0.28,-0.237,0.769,0.593,0.802,-0.267,0.535,-0.145,0.685,0.714,0.915,-0.286,0.286,-0.146,0.816,0.559,0.671,-0.563,0.483,-0.426,0.252,0.869,0.971,-0.088,-0.221,none
23.862509,0.03,0.839,0.544,0.059,0.74,0.67,0.534,-0.722,-0.44,0.711,-0.377,0.593,0.799,-0.393,0.455,0.813,-0.234,0.533,0.869,-0.202,0.452,0.839,-0.225,0.495,0.885,-0.236,0.401,0.995,-0.057,-0.087,0.989,-0.037,-0.146,0.192,0.933,0.303,-0.045,0.961,0.271,rock
29.982421,-0.056,0.899,0.434,-0.211,-0.782,-0.587,-0.607,-0.664,-0.436,0.615,-0.448,0.649,-0.748,0.226,-0.624,0.751,-0.339,0.567,-0.825,0.078,-0.559,0.76,-0.284,0.584,-0.858,0.077,-0.508,0.991,-0.135,0.019,-0.997,-0.081,0.019,0.284,0.934,0.218,-0.148,-0.862,-0.485,rock
18.189621,-0.203,0.807,0.555,0.0,0.77,0.638,0.903,-0.358,-0.239,0.716,-0.597,0.361,0.868,-0.445,0.222,0.93,-0.298,0.216,0.978,-0.111,0.178,0.955,-0.02,0.294,0.867,0.022,0.498,0.953,0.036,0.301,0.776,0.086,0.625,0.18,0.923,0.34,-0.124,0.892,0.435,scissors
3.725593,-0.087,0.953,0.291,-0.275,0.962,0.0,0.772,-0.611,0.175,0.862,0.051,-0.504,0.503,0.503,-0.704,0.735,0.234,0.636,0.391,0.651,0.651,0.842,0.074,0.534,0.728,0.485,0.485,0.948,-0.05,0.315,0.367,0.855,0.367,0.897,0.106,0.43,0.124,0.992,0.0,paper
13.086835,-0.169,0.719,0.674,0.333,0.699,-0.633,0.745,-0.134,-0.653,0.8,-0.525,0.291,-0.466,-0.254,0.847,0.976,-0.18,0.121,-0.244,-0.348,0.905,0.91,0.068,0.408,0.229,-0.878,-0.42,0.902,0.09,0.422,0.264,-0.88,-0.396,0.038,0.916,0.4,0.99,0.0,0.141,scissors
21.246891,-0.127,0.758,0.64,0.11,0.988,-0.11,0.175,-0.922,-0.346,0.797,-0.501,0.336,0.069,-0.553,0.83,0.966,-0.172,0.196,0.314,-0.496,0.81,0.909,0.027,0.415,0.699,-0.699,-0.15,0.897,0.073,0.435,0.761,-0.637,-0.124,0.089,0.895,0.437,0.79,0.562,0.246,scissors
24.880847,0.045,0.702,0.711,-0.077,0.927,0.367,0.371,-0.807,-0.46,0.816,-0.346,0.463,0.663,-0.497,0.559,0.901,-0.146,0.408,0.745,-0.322,0.584,0.916,-0.228,0.331,0.784,-0.261,0.563,0.965,-0.035,-0.259,0.997,-0.064,0.042,0.003,0.94,0.341,0.077,0.978,0.192,rock
39.736503,0.543,0.122,0.831,0.243,-0.97,0.0,-0.369,-0.407,-0.835,0.957,0.219,-0.191,-0.081,0.967,-0.242,0.83,0.544,-0.125,-0.564,0.776,0.282,0.773,0.619,-0.138,-0.473,0.867,0.158,0.553,0.703,-0.446,-0.656,0.716,0.239,0.327,-0.656,0.68,-0.981,0.196,0.0,none
19.473984,0.285,0.84,-0.461,0.196,0.0,-0.981,0.178,-0.239,0.955,0.093,-0.37,0.925,-0.243,0.0,-0.97,-0.055,-0.496,0.866,-0.873,-0.436,0.218,0.387,-0.906,-0.173,-0.707,0.707,0.0,0.796,0.251,0.551,-0.762,0.127,0.635,0.908,0.028,0.418,-0.154,-0.617,-0.772,none
3.70442,-0.133,0.766,0.629,0.0,-1.0,0.0,0.733,-0.592,-0.336,0.758,-0.543,0.362,-0.302,0.302,-0.905,0.969,-0.188,0.163,-0.962,0.192,-0.192,0.912,0.015,0.41,-0.802,0.535,-0.267,0.914,0.034,0.405,-0.816,0.408,0.408,0.079,0.894,0.44,-0.911,-0.13,-0.391,scissors
4.584834,0.084,-0.192,0.978,-0.359,0.598,-0.717,0.23,0.036,-0.972,0.819,0.502,0.278,-0.565,-0.602,-0.565,-0.165,0.73,0.663,0.833,-0.489,-0.259,-0.077,0.622,0.779,0.836,-0.456,-0.304,-0.091,0.76,0.643,0.64,-0.64,-0.426,-0.382,0.319,0.867,0.63,-0.265,-0.73,none
44.233462,-0.86,0.35,0.371,-0.936,0.045,-0.349,0.806,-0.572,-0.155,0.411,0.252,-0.876,0.152,0.963,-0.224,0.81,0.49,-0.322,0.661,0.573,-0.485,0.761,0.532,-0.371,0.75,0.381,-0.541,0.509,0.854,-0.106,0.975,0.214,0.065,0.067,0.905,0.42,0.809,0.373,-0.454,none
43.72359,-0.683,0.512,0.521,-0.188,0.878,0.439,0.82,-0.548,-0.163,0.37,0.56,-0.741,-0.668,0.095,-0.738,0.272,0.924,-0.269,0.055,0.277,-0.959,0.281,0.957,-0.068,-0.252,0.359,-0.899,0.33,0.944,0.021,-0.856,0.269,-0.44,0.533,0.715,0.453,-0.945,-0.325,0.031,none
9.155754,-0.076,-0.045,0.996,0.259,-0.95,-0.173,0.527,-0.028,-0.85,0.747,0.641,0.177,-0.978,-0.057,0.199,-0.201,0.819,0.538,-0.214,-0.562,0.799,0.141,0.78,0.609,0.261,-0.616,0.743,0.303,0.943,0.14,-0.661,-0.618,0.426,-0.591,0.695,0.411,-0.817,-0.135,0.561,none
32.026203,0.072,0.829,0.555,0.927,-0.265,0.265,0.325,-0.922,-0.212,0.716,-0.326,0.617,-0.375,0.656,-0.656,0.805,-0.19,0.562,-0.8,0.6,-0.0,0.844,-0.176,0.507,-0.477,0.667,-0.572,0.998,-0.009,-0.063,-0.778,0.623,-0.078,0.195,0.91,0.366,-0.83,-0.518,-0.207,rock
0.751019,-0.104,0.953,0.283,-0.937,0.11,-0.331,0.752,-0.647,0.127,0.857,0.109,-0.504,0.08,0.598,-0.797,0.72,0.271,0.638,0.576,0.618,-0.535,0.843,0.097,0.529,0.58,0.425,-0.695,0.956,-0.049,0.29,0.242,0.725,-0.645,0.887,0.038,0.46,-0.944,-0.255,0.208,paper
11.110949,-0.016,0.84,0.543,0.096,0.8,0.592,-0.115,-0.971,-0.21,0.699,-0.402,0.591,0.74,-0.349,0.574,0.812,-0.259,0.523,0.812,-0.187,0.552,0.835,-0.254,0.487,0.849,-0.17,0.501,0.992,-0.085,-0.098,0.999,0.008,-0.033,0.169,0.943,0.288,0.072,0.936,0.344,rock
44.234801,-0.762,0.254,0.595,-0.824,-0.527,-0.209,0.833,-0.426,-0.353,0.661,0.254,-0.706,-0.708,0.492,-0.508,0.442,0.884,-0.151,-0.337,0.281,-0.899,0.422,0.904,0.062,-0.515,0.644,-0.566,0.58,0.778,-0.24,0.922,0.199,0.334,0.03,0.984,0.178,0.248,0.06,-0.967,none
14.617488,-0.157,0.737,0.657,-0.306,-0.331,0.892,0.83,-0.133,-0.542,0.785,-0.533,0.315,0.67,0.024,-0.742,0.967,-0.202,0.156,0.528,0.369,-0.765,0.92,0.046,0.39,0.153,0.814,0.56,0.91,0.075,0.408,-0.046,0.74,0.671,0.074,0.914,0.399,-0.924,0.383,0.023,scissors
27.946032,-0.016,0.844,0.536,-0.012,0.725,0.689,-0.353,-0.868,-0.351,0.69,-0.403,0.602,0.778,-0.432,0.457,0.802,-0.272,0.532,0.882,-0.237,0.407,0.816,-0.264,0.514,0.869,-0.284,0.405,0.993,-0.103,-0.062,0.984,-0.099,-0.149,0.207,0.943,0.259,-0.023,0.967,0.252,rock
0.032603,-0.103,0.941,0.323,0.995,-0.052,0.087,0.747,-0.662,0.053,0.861,0.156,-0.484,0.131,-0.919,0.372,0.69,0.281,0.667,-0.267,-0.877,0.4,0.813,0.13,0.568,-0.289,-0.867,0.405,0.957,-0.074,0.281,-0.408,-0.795,0.449,0.83,-0.166,0.533,-0.597,-0.702,0.388,paper
16.678155,-0.109,0.955,0.277,0.0,-0.894,-0.447,0.823,-0.561,0.09,0.836,-0.037,-0.548,-0.894,0.447,-0.0,0.798,0.185,0.573,-0.97,-0.0,-0.243,0.87,0.005,0.494,-0.843,0.241,-0.482,0.944,-0.086,0.317,-0.936,0.341,0.085,0.896,0.108,0.43,-0.92,0.077,-0.383,paper
6.838209,-0.093,0.942,0.322,-0.177,0.828,0.532,0.708,-0.689,0.156,0.865,0.065,-0.497,0.798,0.249,-0.549,0.726,0.249,0.641,0.444,0.444,0.778,0.83,0.086,0.551,0.732,0.305,0.61,0.936,-0.045,0.35,0.673,0.306,0.673,0.878,0.104,0.467,0.647,0.404,0.647,paper
7.477854,-0.229,0.695,0.681,-0.0,0.725,0.689,0.017,-0.887,-0.461,0.799,-0.556,0.229,0.825,-0.462,0.326,0.981,-0.19,0.026,0.982,-0.09,0.165,0.892,0.198,0.405,0.862,-0.03,0.505,0.879,0.208,0.429,0.82,-0.008,0.572,-0.051,0.931,0.36,-0.052,0.867,0.496,scissors
18.242457,0.134,0.991,0.014,0.963,-0.047,0.265,0.247,-0.766,0.593,0.605,-0.792,0.08,0.585,0.313,0.748,0.799,-0.519,0.305,-0.044,0.192,0.98,0.814,-0.574,0.089,0.018,-0.088,0.996,0.888,-0.282,0.365,0.21,0.079,0.974,0.868,0.022,0.497,-0.283,-0.485,0.828,none
19.226077,-0.039,0.978,0.205,-0.265,0.56,0.785,0.881,-0.459,-0.114,0.769,-0.194,-0.609,0.882,0.41,-0.231,0.866,0.061,0.496,0.352,0.577,0.737,0.9,-0.129,0.416,0.53,0.445,0.721,0.948,-0.196,0.249,0.612,0.412,0.675,0.94,0.048,0.339,0.399,0.41,0.82,paper
15.131804,-0.089,0.745,0.661,0.05,0.893,0.447,0.756,-0.21,-0.62,0.802,-0.482,0.353,0.64,-0.64,0.426,0.969,-0.148,0.199,0.789,-0.316,0.526,0.899,-0.008,0.437,0.931,-0.233,0.279,0.894,0.015,0.448,0.86,-0.161,0.484,0.085,0.883,0.462,0.098,0.934,0.344,scissors
1.500424,-0.145,0.758,0.636,0.174,0.696,0.696,0.735,-0.604,-0.308,0.753,-0.559,0.348,0.667,-0.333,-0.667,0.965,-0.194,0.177,0.0,0.707,-0.707,0.913,0.024,0.406,0.64,0.426,0.64,0.918,0.05,0.393,-0.111,0.444,0.889,0.081,0.9,0.429,-0.824,0.549,0.137,scissors
3.494701,-0.142,0.756,0.638,0.485,-0.728,-0.485,0.764,-0.579,-0.285,0.761,-0.544,0.353,-0.384,0.512,-0.768,0.971,-0.187,0.149,-0.868,0.496,-0.0,0.911,0.025,0.411,-0.962,0.192,-0.192,0.913,0.048,0.406,-0.905,0.302,0.302,0.068,0.898,0.435,-0.855,-0.367,-0.367,scissors
2.080388,-0.007,-0.253,0.967,0.615,-0.615,0.492,0.203,0.146,-0.968,0.709,0.69,0.147,0.164,0.986,-0.0,-0.128,0.904,0.407,-0.786,0.437,0.437,0.004,0.878,0.479,-0.598,0.717,0.359,-0.1,0.957,0.274,-0.667,0.667,0.333,-0.594,0.363,0.717,-0.997,0.083,-0.0,none
25.915284,0.035,0.842,0.538,0.054,0.795,0.604,-0.011,-0.965,-0.261,0.703,-0.353,0.618,0.754,-0.364,0.547,0.8,-0.219,0.559,0.837,-0.195,0.512,0.834,-0.204,0.513,0.856,-0.202,0.476,0.997,-0.04,-0.064,0.998,-0.017,-0.058,0.201,0.922,0.33,0.048,0.947,0.318,rock
10.60138,0.008,0.878,0.478,0.087,0.801,0.592,0.242,-0.952,-0.188,0.646,-0.37,0.668,0.769,-0.295,0.567,0.756,-0.263,0.599,0.825,-0.13,0.55,0.794,-0.216,0.568,0.873,-0.129,0.471,0.998,-0.064,-0.001,0.996,0.062,-0.062,0.259,0.918,0.3,0.045,0.916,0.398,rock
9.211244,-0.042,-0.086,0.995,-0.769,-0.488,0.414,0.368,-0.046,-0.929,0.756,0.566,0.329,-0.896,0.435,-0.085,-0.178,0.802,0.57,-0.839,0.544,-0.023,0.346,0.819,0.457,0.576,-0.082,0.813,0.341,0.928,-0.15,0.933,-0.17,0.318,-0.491,0.648,0.582,-0.656,0.348,0.67,none
9.517074,-0.162,0.808,0.567,0.105,-0.8,-0.59,-0.27,-0.834,-0.481,0.737,-0.566,0.369,-0.705,0.569,-0.424,0.951,-0.237,0.198,-0.944,0.244,-0.22,0.934,0.039,0.354,-0.928,0.081,-0.363,0.936,0.059,0.348,-0.93,0.073,-0.359,0.123,0.911,0.393,-0.177,-0.884,-0.434,scissors
31.511653,0.132,0.86,0.493,-0.168,-0.976,-0.135,0.177,-0.948,-0.265,0.699,-0.257,0.667,-0.34,0.255,-0.905,0.768,-0.136,0.626,-0.547,0.322,-0.773,0.833,-0.102,0.544,-0.502,0.118,-0.857,0.998,0.053,-0.016,-0.891,0.084,-0.446,0.243,0.872,0.426,-0.706,-0.597,-0.38,rock
10.619525,-0.215,0.715,0.665,0.146,-0.761,-0.632,0.732,-0.604,-0.315,0.8,-0.548,0.246,-0.738,0.585,-0.337,0.98,-0.186,0.063,-0.962,0.237,-0.134,0.902,0.157,0.402,-0.928,-0.008,-0.373,0.893,0.176,0.414,-0.925,-0.016,-0.38,-0.014,0.929,0.371,-0.106,-0.911,-0.399,scissors
4.990947,-0.031,0.862,0.506,0.305,-0.556,-0.773,0.51,-0.753,-0.416,0.693,-0.392,0.606,-0.721,0.626,-0.297,0.802,-0.259,0.539,-0.908,0.407,-0.104,0.822,-0.251,0.512,-0.782,0.56,-0.275,0.994,-0.089,-0.063,-0.884,0.395,0.25,0.201,0.937,0.285,0.066,-0.997,-0.044,rock
3.170562,-0.088,0.957,0.276,-0.162,-0.973,0.162,0.765,-0.623,0.162,0.847,0.04,-0.529,0.316,0.0,0.949,0.747,0.233,0.622,-0.777,-0.173,0.605,0.856,0.068,0.513,-0.928,0.206,0.309,0.954,-0.048,0.295,-0.786,0.328,0.524,0.897,0.13,0.423,-0.95,-0.173,0.259,paper
31.512067,0.053,0.856,0.514,-0.27,-0.924,-0.27,0.178,-0.953,-0.245,0.679,-0.361,0.639,-0.527,-0.24,-0.815,0.778,-0.238,0.582,-0.678,-0.283,-0.678,0.814,-0.196,0.547,-0.72,-0.332,-0.609,0.999,-0.034,-0.024,-0.921,-0.358,-0.153,0.258,0.91,0.324,-0.485,-0.291,-0.825,rock
14.255732,-0.092,0.497,0.863,-0.436,-0.873,-0.218,0.445,-0.598,-0.666,0.866,-0.474,-0.161,-0.479,0.124,-0.869,0.983,-0.158,-0.096,-0.508,0.364,-0.781,0.954,-0.147,-0.261,-0.407,0.617,-0.673,0.887,0.06,-0.459,-0.724,0.462,-0.512,0.538,-0.074,0.84,0.319,0.932,0.172,none
10.686953,0.111,-0.127,0.986,-0.827,-0.556,0.083,0.184,0.052,-0.981,0.877,0.428,-0.218,0.984,0.18,0.008,0.355,0.86,0.367,0.545,-0.074,0.835,0.314,0.743,0.591,-0.124,0.074,0.99,0.266,0.879,-0.397,-0.985,-0.126,-0.114,-0.648,0.5,0.575,-0.1,0.94,-0.327,none
15.272221,-0.211,-0.25,0.945,0.501,-0.358,-0.788,0.672,0.255,-0.696,0.702,0.066,-0.709,-0.725,0.181,-0.665,0.757,0.457,-0.467,-0.867,0.248,-0.433,0.733,0.432,-0.526,-0.759,-0.0,-0.651,-0.291,0.754,0.589,-0.965,0.037,-0.26,-0.701,0.679,0.217,0.108,-0.379,-0.919,none
38.622761,0.524,-0.31,0.794,0.987,0.162,0.0,-0.369,0.126,-0.921,0.591,0.611,0.527,0.663,-0.73,-0.166,-0.275,0.645,0.713,-0.823,-0.069,-0.563,-0.208,0.647,0.733,-0.849,0.041,-0.528,-0.35,0.721,0.598,-0.958,0.034,-0.286,-0.55,0.002,0.835,-0.785,-0.385,0.485,none
25.122365,0.455,0.496,0.74,0.707,-0.527,-0.471,-0.386,-0.788,-0.48,0.979,0.02,0.204,-0.975,-0.133,0.176,0.518,0.221,0.826,-0.907,-0.065,-0.416,0.565,-0.017,0.825,-0.868,-0.063,-0.492,0.505,0.418,0.755,-0.886,-0.432,-0.17,0.169,-0.095,0.981,-0.668,-0.668,-0.328,none
20.515769,0.258,0.766,0.589,-0.721,0.495,0.484,-0.128,-0.956,-0.265,0.934,-0.34,0.113,-0.107,-0.412,-0.905,0.841,0.114,0.529,0.472,-0.216,-0.855,0.851,-0.03,0.524,0.589,0.253,-0.767,0.872,0.49,0.018,-0.434,-0.591,-0.68,0.409,0.337,0.848,-0.104,0.98,-0.167,none
0.200041,-0.097,0.951,0.293,-0.566,0.707,0.424,0.797,-0.592,0.123,0.847,0.116,-0.519,0.873,0.436,0.218,0.727,0.248,0.64,0.164,0.082,0.983,0.839,0.095,0.535,0.518,-0.207,0.83,0.964,-0.097,0.247,0.85,0.261,0.458,0.85,-0.213,0.481,0.651,0.651,-0.391,paper
25.711351,0.46,0.618,0.637,-0.982,-0.188,-0.0,-0.331,-0.859,-0.39,0.988,-0.102,0.113,-0.787,0.43,-0.443,0.542,0.118,0.832,-0.21,0.502,-0.839,0.605,-0.076,0.792,-0.167,0.648,-0.743,0.56,0.281,0.779,-0.442,0.343,-0.829,0.317,-0.32,0.893,-0.699,0.619,-0.359,none
14.127732,-0.065,0.959,0.275,0.433,-0.018,-0.901,-0.342,-0.94,-0.002,0.848,-0.06,-0.527,-0.633,-0.71,-0.307,0.761,0.172,0.625,0.18,-0.845,-0.503,0.851,-0.013,0.525,-0.109,-0.764,-0.636,0.932,-0.099,0.349,-0.379,-0.682,-0.625,0.892,0.074,0.446,-0.089,-0.536,-0.84,paper
20.225127,0.223,0.974,-0.049,-0.964,0.257,0.072,0.101,-0.847,0.521,0.432,-0.813,0.39,-0.206,-0.473,-0.857,0.573,-0.637,0.515,0.421,-0.262,-0.868,0.639,-0.762,0.102,0.583,0.25,-0.773,0.833,0.121,0.54,-0.04,-0.902,-0.431,0.913,0.157,0.377,-0.148,0.838,-0.526,none
4.419518,-0.163,0.725,0.669,0.138,-0.802,-0.581,0.741,-0.589,-0.323,0.784,-0.538,0.31,-0.68,0.563,-0.469,0.978,-0.173,0.115,-0.947,0.277,-0.162,0.898,0.081,0.433,-0.928,0.073,-0.366,0.893,0.098,0.438,-0.962,0.072,-0.264,0.022,0.902,0.431,-0.244,-0.852,-0.463,scissors
46.782666,-0.351,0.096,0.932,-0.815,-0.566,0.124,0.477,-0.321,-0.818,0.61,0.78,-0.141,-0.629,0.657,-0.416,-0.236,0.961,0.145,-0.274,0.367,-0.889,-0.187,0.921,0.341,-0.406,0.543,-0.735,-0.135,0.885,0.446,-0.391,0.694,-0.605,0.056,0.609,0.791,-0.415,0.86,-0.297,none
23.48381,0.43,0.171,0.887,-0.256,0.711,0.654,-0.412,-0.484,-0.772,0.909,0.355,0.22,0.936,-0.138,-0.322,0.361,0.589,0.723,0.878,-0.102,0.468,0.29,0.296,0.91,0.925,-0.026,0.378,0.164,0.712,0.683,0.807,0.404,0.431,-0.215,0.112,0.97,0.419,0.68,0.602,none
12.13181,0.017,0.846,0.533,-0.085,-0.923,-0.376,-0.165,-0.97,-0.177,0.696,-0.372,0.614,-0.573,0.334,-0.748,0.8,-0.234,0.552,-0.745,0.265,-0.612,0.834,-0.216,0.508,-0.718,0.191,-0.67,0.996,-0.049,-0.073,-0.985,0.078,-0.156,0.2,0.926,0.321,-0.392,-0.832,-0.392,rock
17.700395,0.013,0.928,0.373,-0.304,-0.949,0.083,0.732,-0.643,-0.227,0.896,-0.069,-0.438,-0.538,0.586,0.606,0.732,0.15,0.664,-0.869,0.358,-0.341,0.801,-0.016,0.599,-0.781,0.539,-0.314,0.891,-0.112,0.441,-0.772,0.622,-0.132,0.846,0.019,0.533,-0.933,0.337,-0.13,paper
27.87736,-0.007,0.724,0.69,-0.6,0.0,-0.8,0.533,-0.703,-0.471,0.842,-0.395,0.367,-0.617,-0.154,-0.772,0.969,-0.06,0.239,-0.894,-0.447,-0.0,0.861,-0.047,0.507,-0.492,0.123,-0.862,0.855,0.002,0.518,-0.845,0.507,-0.169,0.081,0.845,0.529,-0.635,0.127,-0.762,scissors
20.226891,0.031,0.684,0.729,0.082,0.752,0.654,0.493,-0.754,-0.434,0.869,-0.339,0.36,0.842,-0.421,0.337,0.973,0.009,0.229,0.959,-0.069,0.274,0.818,-0.01,0.574,0.846,-0.114,0.521,0.809,0.012,0.588,0.785,-0.033,0.618,0.013,0.808,0.589,-0.033,0.851,0.524,scissors
53.923062,0.72,-0.586,0.371,0.843,0.482,-0.241,-0.673,0.388,-0.63,0.285,0.928,0.24,0.927,-0.062,0.371,-0.383,0.848,0.366,0.767,0.307,0.563,-0.8,-0.198,0.567,0.407,-0.094,0.908,-0.59,-0.751,0.295,0.507,-0.169,0.845,-0.753,-0.569,0.33,-0.14,-0.7,-0.7,none
55.454296,0.676,-0.597,0.432,0.824,0.549,-0.137,-0.631,0.445,-0.635,-0.06,-0.382,0.922,0.869,-0.463,-0.174,-0.724,-0.659,0.205,-0.044,-0.394,0.918,-0.739,-0.63,0.239,0.235,-0.411,0.881,-0.786,-0.594,0.169,-0.12,-0.241,0.963,-0.733,-0.553,0.397,-0.617,-0.772,-0.154,none
42.703486,-0.534,0.699,0.476,-0.92,0.381,-0.095,0.726,-0.681,-0.102,0.59,-0.273,-0.76,0.07,-0.209,-0.975,0.918,0.344,-0.199,-0.277,-0.085,-0.957,0.909,0.377,-0.177,-0.409,0.118,-0.905,0.804,0.519,-0.289,-0.639,0.019,-0.769,0.577,0.672,0.463,0.578,0.697,0.425,none
1.094204,-0.011,-0.307,0.952,-0.422,0.738,0.527,0.21,0.185,-0.96,0.678,0.72,0.15,0.686,0.514,-0.514,-0.172,0.911,0.374,-0.53,0.53,0.662,-0.051,0.887,0.458,-0.218,0.873,0.436,-0.159,0.952,0.262,-0.492,0.615,0.615,-0.626,0.337,0.703,-0.963,0.241,0.12,none
12.176479,-0.151,0.956,0.253,0.254,0.624,-0.739,0.267,-0.93,0.254,0.806,0.03,-0.591,-0.114,-0.592,-0.798,0.804,0.232,0.548,0.762,-0.584,-0.279,0.889,0.053,0.455,0.628,-0.701,-0.338,0.965,-0.065,0.252,0.419,-0.759,-0.498,0.913,0.144,0.382,0.597,-0.39,-0.701,paper
50.353682,0.638,-0.676,0.369,-0.376,-0.806,0.457,-0.703,0.474,-0.53,0.065,0.898,0.435,0.842,0.115,-0.526,-0.555,0.789,0.262,0.964,0.139,0.228,-0.47,0.85,0.24,0.979,0.116,0.167,-0.633,0.726,0.269,0.959,0.192,0.208,-0.748,-0.583,0.317,-0.958,0.039,0.283,none
32.532023,0.072,0.853,0.516,-0.0,-0.949,0.316,0.241,-0.93,-0.278,0.696,-0.329,0.638,0.061,0.184,-0.981,0.786,-0.202,0.585,-0.182,0.545,-0.818,0.828,-0.172,0.533,-0.065,0.196,-0.978,0.999,-0.01,-0.036,-0.638,0.319,-0.701,0.237,0.902,0.36,-0.97,-0.108,-0.216,rock
28.039099,0.518,-0.056,0.853,0.986,0.0,0.164,-0.534,-0.218,-0.817,0.535,0.444,0.719,0.911,-0.391,-0.13,-0.046,0.517,0.855,0.219,-0.219,0.951,0.171,0.539,0.825,0.437,-0.437,0.786,0.028,0.799,0.601,0.145,0.291,0.946,-0.386,-0.098,0.917,-0.734,-0.342,-0.587,none
9.929578,-0.124,0.948,0.293,0.495,0.566,-0.66,0.574,-0.799,0.18,0.859,0.056,-0.509,-0.0,-0.73,-0.683,0.745,0.247,0.619,0.664,-0.741,-0.102,0.85,0.07,0.523,0.555,-0.807,-0.202,0.944,-0.047,0.327,0.364,-0.869,-0.336,0.889,0.117,0.443,0.551,-0.577,-0.603,paper
18.303925,-0.16,0.954,0.253,0.668,0.246,-0.703,0.893,-0.426,-0.144,0.82,-0.033,-0.572,-0.285,-0.89,-0.356,0.82,0.21,0.533,0.192,-0.962,-0.192,0.889,0.022,0.457,0.038,-0.94,-0.338,0.957,-0.061,0.285,-0.29,-0.912,-0.29,0.906,0.154,0.394,0.076,-0.76,-0.646,paper
33.670656,0.467,-0.103,0.878,0.667,0.667,-0.333,-0.393,-0.187,-0.9,0.506,0.208,0.837,0.147,-0.442,-0.885,-0.66,0.064,0.748,0.483,-0.87,-0.097,-0.316,0.153,0.936,-0.485,0.728,0.485,0.089,0.993,0.083,-0.807,-0.513,0.293,-0.246,0.142,0.959,-0.384,-0.768,-0.512,none
27.367025,-0.082,0.641,0.763,0.052,0.732,0.68,0.493,-0.749,-0.443,0.895,-0.374,0.242,0.854,-0.427,0.296,0.994,-0.004,0.107,0.967,-0.066,0.246,0.822,0.131,0.554,0.854,-0.064,0.516,0.801,0.177,0.572,0.792,0.016,0.61,-0.077,0.854,0.515,-0.032,0.877,0.479,scissors
22.942219,0.455,0.277,0.846,-0.625,0.781,0.0,-0.417,-0.602,-0.681,0.934,0.241,0.262,0.885,0.147,-0.442,0.377,0.467,0.8,0.945,-0.033,0.326,0.383,0.12,0.916,-0.253,0.507,-0.824,0.292,0.561,0.774,-0.364,0.582,-0.727,-0.102,0.064,0.993,0.0,0.789,-0.614,none
9.155341,-0.191,-0.096,0.977,0.99,0.141,0.0,0.501,-0.014,-0.865,0.765,0.64,0.076,-0.967,-0.103,0.232,-0.314,0.797,0.516,-0.052,-0.557,0.829,-0.081,0.764,0.64,0.131,-0.787,0.603,0.198,0.971,0.131,-0.901,-0.367,0.233,-0.649,0.663,0.373,-0.664,-0.476,0.576,none
21.313263,-0.003,0.709,0.706,0.244,-0.855,-0.458,0.472,-0.748,-0.466,0.813,-0.358,0.459,-0.475,0.581,-0.66,0.903,-0.157,0.399,-0.753,0.53,-0.39,0.916,-0.239,0.322,-0.619,0.484,-0.619,0.962,-0.043,-0.269,-0.916,0.381,-0.127,-0.007,0.943,0.333,-0.42,-0.897,-0.14,rock
14.765266,-0.172,-0.115,0.978,-0.664,0.73,-0.164,0.475,-0.178,-0.862,0.822,-0.026,-0.569,-0.245,-0.936,-0.253,0.84,0.401,-0.367,0.257,-0.824,-0.505,0.785,0.466,-0.409,0.767,-0.11,-0.632,0.061,0.95,0.307,-0.725,0.065,-0.686,-0.49,0.696,0.525,0.738,0.433,-0.517,none
11.70486,-0.161,-0.261,0.952,-0.78,0.347,-0.52,0.527,0.196,-0.827,0.852,0.06,-0.521,0.27,-0.765,0.585,-0.53,0.709,0.464,0.88,-0.474,0.0,-0.448,0.61,0.654,0.738,-0.527,-0.422,-0.344,0.656,0.672,-0.819,0.174,-0.546,-0.871,0.414,0.264,0.34,0.918,0.204,none
33.041693,0.052,0.827,0.559,0.364,0.869,-0.336,0.187,-0.952,-0.243,0.725,-0.332,0.604,-0.037,-0.037,0.999,0.811,-0.192,0.552,-0.06,-0.12,0.991,0.847,-0.187,0.498,0.198,0.33,0.923,0.997,-0.023,-0.072,0.525,0.394,0.755,0.19,0.914,0.357,0.745,0.51,0.431,rock
16.16832,-0.095,0.964,0.25,0.03,-0.945,-0.325,0.82,-0.553,0.147,0.809,-0.052,-0.585,-0.841,0.076,0.535,0.829,0.162,0.535,-0.825,-0.13,-0.55,0.894,-0.027,0.448,-0.834,0.072,-0.547,0.956,-0.127,0.265,-0.924,0.182,-0.336,0.919,0.096,0.381,-0.894,-0.041,-0.447,paper
10.027256,-0.152,0.83,0.538,-0.028,-0.689,-0.724,0.239,-0.919,-0.314,0.683,-0.616,0.391,-0.825,0.416,-0.382,0.923,-0.316,0.22,-0.982,0.053,-0.18,0.968,-0.036,0.249,-0.84,0.055,-0.54,0.967,-0.0,0.256,-0.848,0.068,-0.526,0.202,0.92,0.336,-0.028,-0.834,-0.551,scissors
25.50095,0.438,0.586,0.682,0.731,-0.526,-0.434,-0.353,-0.835,-0.422,0.99,-0.038,0.139,-0.731,-0.187,0.656,0.526,0.198,0.827,-0.928,-0.363,0.081,0.593,0.003,0.805,-0.922,-0.384,-0.051,0.554,0.391,0.735,-0.93,-0.365,0.055,0.253,-0.191,0.948,-0.794,-0.592,-0.14,none
55.963531,0.681,-0.597,0.423,-0.943,0.236,0.236,-0.622,0.418,-0.662,-0.062,-0.373,0.926,0.857,-0.286,-0.429,-0.722,-0.661,0.204,-0.309,-0.206,0.928,-0.745,-0.626,0.23,-0.0,-0.141,0.99,-0.786,-0.598,0.16,-0.686,0.514,0.514,-0.728,-0.558,0.398,-0.913,0.183,-0.365,none
6.604047,0.022,0.198,0.98,0.945,0.306,-0.111,0.294,-0.229,-0.928,0.881,0.464,0.089,-0.438,-0.891,-0.118,-0.03,0.775,0.631,-0.544,-0.828,-0.136,0.058,0.667,0.743,-0.557,-0.438,-0.706,0.031,0.755,0.655,-0.877,-0.252,-0.41,-0.192,0.444,0.875,-0.128,-0.35,0.928,none
18.717624,-0.159,0.961,0.227,-0.7,0.14,0.7,0.896,-0.434,-0.089,0.793,-0.055,-0.606,0.42,0.755,-0.504,0.847,0.186,0.498,-0.089,0.891,0.445,0.907,-0.008,0.421,0.276,0.921,0.276,0.965,-0.088,0.248,0.074,0.892,0.446,0.922,0.146,0.358,-0.432,0.864,0.259,paper
32.232788,0.408,-0.245,0.88,0.286,-0.095,-0.953,-0.294,0.006,-0.956,0.464,0.22,0.858,-0.229,-0.688,-0.688,-0.677,0.024,0.736,0.359,0.598,-0.717,-0.443,-0.027,0.896,-0.0,-0.091,-0.996,-0.41,0.169,0.896,-0.155,-0.736,-0.659,-0.346,0.097,0.933,-0.211,-0.969,-0.126,none
11.743766,-0.175,-0.237,0.956,0.236,0.943,0.236,0.525,0.206,-0.826,0.838,0.051,-0.543,0.437,-0.786,-0.437,-0.539,0.709,0.456,0.816,0.408,0.408,-0.469,0.613,0.636,0.0,0.707,0.707,-0.349,0.622,0.701,-0.136,0.272,0.953,-0.877,0.42,0.234,-0.358,0.894,-0.268,none
34.516166,0.484,-0.381,0.788,-0.99,-0.099,-0.099,-0.395,0.141,-0.908,0.5,0.112,0.859,-0.528,0.342,-0.777,-0.204,0.654,0.729,0.766,-0.192,0.613,0.25,0.878,0.409,0.206,0.309,-0.928,0.039,0.968,0.246,-0.615,0.492,-0.615,-0.349,0.073,0.934,-0.774,0.163,0.611,none
15.657423,-0.15,0.962,0.228,0.084,-0.964,-0.253,0.586,-0.735,0.34,0.791,-0.009,-0.612,-0.781,0.101,0.617,0.836,0.206,0.508,-0.861,-0.118,-0.495,0.906,0.02,0.423,-0.87,0.081,-0.487,0.969,-0.076,0.236,-0.938,0.195,-0.286,0.922,0.14,0.362,-0.914,-0.056,-0.401,paper
11.0813,-0.128,0.76,0.637,0.187,-0.683,-0.706,0.765,-0.431,-0.478,0.769,-0.528,0.361,-0.78,0.564,-0.271,0.965,-0.187,0.186,-0.975,0.22,-0.042,0.918,0.014,0.395,-0.908,-0.086,-0.411,0.912,0.046,0.407,-0.918,-0.096,-0.384,0.091,0.898,0.431,-0.033,-0.928,-0.371,scissors
17.236894,0.076,0.767,0.637,0.555,0.0,-0.832,0.43,-0.8,-0.418,0.78,-0.315,0.54,-0.408,0.408,-0.816,0.861,-0.143,0.488,-0.811,0.324,0.487,0.898,-0.181,0.402,-0.436,0.873,-0.218,0.983,0.003,-0.182,-0.7,0.7,0.14,0.083,0.921,0.379,-0.8,-0.0,-0.6,rock
36.103221,0.126,0.778,0.616,-0.154,0.976,0.154,0.171,-0.952,-0.254,0.781,-0.252,0.571,0.256,-0.683,0.683,0.841,-0.087,0.534,0.267,-0.535,0.802,0.896,-0.112,0.429,0.498,-0.249,0.83,0.987,0.065,-0.144,0.8,0.0,0.6,0.11,0.886,0.45,0.14,0.98,-0.14,rock
1.581643,-0.011,-0.267,0.964,-0.894,-0.0,0.447,0.187,0.173,-0.967,0.699,0.7,0.145,0.196,0.588,-0.784,-0.139,0.909,0.393,-0.811,0.487,0.324,-0.011,0.883,0.469,-0.447,0.894,-0.0,-0.117,0.957,0.266,-0.62,0.744,0.248,-0.603,0.36,0.712,-0.93,0.349,-0.116,none
7.625417,-0.017,0.665,0.747,-0.961,0.263,0.089,0.361,-0.722,-0.591,0.925,0.294,-0.24,-0.715,0.087,-0.694,0.491,0.636,0.595,-0.002,0.286,-0.958,0.617,0.479,0.624,-0.123,0.485,-0.866,0.664,0.463,0.587,-0.411,0.785,-0.463,0.443,0.305,0.843,-0.015,0.919,0.394,none
3.116938,-0.139,0.753,0.643,0.333,0.667,0.667,0.723,-0.603,-0.336,0.762,-0.542,0.355,0.943,-0.236,-0.236,0.973,-0.181,0.146,0.485,0.485,0.728,0.91,0.025,0.413,0.784,-0.196,0.588,0.911,0.048,0.41,0.0,0.243,0.97,0.061,0.896,0.44,-0.707,0.566,0.424,scissors
22.229597,0.187,0.301,0.935,0.827,-0.503,-0.252,-0.065,-0.578,-0.813,0.984,0.154,-0.092,-0.26,0.715,0.65,0.64,0.618,0.456,-0.884,0.255,0.391,0.664,0.495,0.561,-0.804,0.144,0.577,0.547,0.837,0.031,-0.849,0.293,0.439,-0.116,0.411,0.904,-0.763,-0.647,0.0,none
20.802471,0.044,0.763,0.645,-0.504,-0.42,-0.755,0.509,-0.745,-0.431,0.776,-0.342,0.53,-0.772,-0.07,-0.632,0.864,-0.169,0.474,-0.951,-0.219,-0.219,0.893,-0.21,0.399,-0.923,-0.0,-0.385,0.982,-0.028,-0.187,-0.989,-0.066,0.132,0.076,0.934,0.35,-0.358,-0.501,-0.788,rock
11.261475,-0.085,0.957,0.277,-0.329,0.285,0.9,0.268,-0.939,0.214,0.846,-0.009,-0.534,0.779,0.627,0.022,0.772,0.195,0.605,-0.061,0.695,0.716,0.854,0.028,0.52,0.195,0.672,0.715,0.943,-0.09,0.321,0.309,0.619,0.722,0.898,0.088,0.432,0.023,0.528,0.849,paper
10.685552,-0.067,-0.207,0.976,0.286,-0.745,-0.602,0.36,0.032,-0.932,0.759,0.641,-0.112,0.939,-0.205,0.277,0.084,0.885,0.458,0.14,-0.46,0.877,0.005,0.851,0.525,0.454,-0.651,0.608,0.155,0.698,-0.699,-0.939,0.223,0.26,-0.715,0.458,0.529,-0.526,-0.82,-0.227,none
3.201385,-0.137,0.749,0.648,0.267,0.802,0.535,0.722,-0.609,-0.328,0.767,-0.538,0.348,0.832,0.0,-0.555,0.974,-0.177,0.14,0.0,0.707,0.707,0.905,0.034,0.423,0.667,-0.333,0.667,0.908,0.058,0.416,-0.136,0.272,0.953,0.054,0.896,0.441,-0.885,0.442,0.147,scissors
40.664195,0.521,0.063,0.851,0.688,0.717,-0.115,-0.337,-0.36,-0.87,0.908,0.414,0.061,-0.975,-0.034,-0.22,0.341,0.82,0.46,-0.666,0.039,-0.745,0.316,0.744,0.589,-0.653,0.155,-0.741,0.035,0.949,0.315,-0.835,-0.023,-0.55,-0.059,-0.506,0.861,0.97,-0.052,-0.236,none
11.134285,-0.12,0.955,0.271,-0.287,0.575,0.766,0.374,-0.899,0.226,0.835,0.021,-0.549,0.845,0.511,-0.156,0.776,0.225,0.589,0.131,0.633,0.763,0.862,0.058,0.503,0.367,0.573,0.733,0.952,-0.059,0.302,0.463,0.507,0.727,0.898,0.126,0.421,0.218,0.484,0.847,paper
6.753497,-0.093,0.946,0.312,-0.046,0.911,0.41,0.692,-0.711,0.129,0.864,0.056,-0.5,0.774,0.163,-0.611,0.732,0.238,0.639,0.597,0.322,0.735,0.832,0.077,0.55,0.802,0.189,0.566,0.937,-0.052,0.346,0.772,0.154,0.617,0.881,0.097,0.463,0.759,0.316,0.569,paper
21.312255,0.107,0.731,0.674,-0.18,-0.961,0.21,0.517,-0.702,-0.49,0.799,-0.29,0.527,-0.081,0.216,-0.973,0.872,-0.11,0.477,-0.251,0.408,-0.878,0.913,-0.16,0.375,-0.248,0.083,-0.965,0.977,0.027,-0.211,-0.755,0.108,-0.647,0.051,0.913,0.404,-0.845,-0.449,-0.29,rock
23.797192,0.039,0.757,0.653,-0.139,-0.633,-0.762,0.492,-0.739,-0.46,0.816,-0.395,0.422,-0.887,0.258,-0.382,0.952,-0.075,0.298,-0.973,-0.098,-0.208,0.868,-0.134,0.478,-0.747,0.089,-0.658,0.871,-0.087,0.484,-0.769,0.09,-0.633,0.143,0.828,0.541,-0.023,-0.746,-0.666,scissors
20.73739,-0.019,0.713,0.701,0.132,0.756,0.641,0.123,-0.913,-0.39,0.852,-0.391,0.347,0.816,-0.374,0.442,0.977,-0.045,0.207,0.922,-0.017,0.386,0.846,0.022,0.533,0.826,-0.178,0.535,0.837,0.049,0.545,0.779,-0.133,0.613,0.028,0.841,0.541,0.049,0.818,0.573,scissors
4.81232,-0.081,0.948,0.308,0.0,0.0,-1.0,0.753,-0.637,0.163,0.861,0.053,-0.506,-0.302,0.302,-0.905,0.735,0.232,0.637,-0.949,0.316,0.0,0.841,0.064,0.537,-0.667,0.333,-0.667,0.942,-0.062,0.33,-0.937,0.312,0.156,0.888,0.094,0.449,-0.862,0.123,-0.492,paper
25.893656,-0.039,0.684,0.728,-0.047,-0.612,-0.789,0.627,-0.602,-0.494,0.872,-0.387,0.301,-0.888,0.326,-0.326,0.985,-0.031,0.169,-0.988,-0.033,-0.154,0.849,0.04,0.526,-0.79,0.022,-0.612,0.839,0.083,0.537,-0.801,0.0,-0.598,-0.001,0.854,0.52,-0.0,-0.807,-0.591,scissors
35.452063,0.526,-0.351,0.775,0.97,-0.0,0.243,-0.358,0.177,-0.917,0.438,0.026,0.898,0.572,-0.667,-0.477,-0.621,0.178,0.764,-0.71,0.474,0.521,0.121,0.984,0.128,-0.754,0.377,-0.538,-0.16,0.966,-0.205,-0.802,0.566,-0.189,-0.647,-0.033,0.762,-0.816,-0.082,0.572,none
18.152696,0.098,0.967,0.234,0.984,0.026,0.177,0.257,-0.943,0.211,0.693,-0.718,-0.062,0.181,0.258,0.949,0.905,-0.342,0.253,-0.42,0.148,0.895,0.908,-0.382,0.174,-0.294,-0.153,0.943,0.935,-0.054,0.35,-0.35,0.087,0.933,0.743,0.244,0.624,-0.18,-0.595,0.783,none
55.453043,0.681,-0.602,0.417,0.975,-0.209,-0.07,-0.627,0.415,-0.659,-0.063,-0.427,0.902,0.763,-0.646,-0.029,-0.678,-0.708,0.199,-0.054,-0.457,0.888,-0.702,-0.678,0.217,0.217,-0.507,0.834,-0.769,-0.62,0.155,-0.147,-0.662,0.735,-0.732,-0.565,0.381,-0.599,-0.798,-0.067,none
11.557144,-0.164,0.798,0.58,0.187,-0.716,-0.673,0.804,-0.335,-0.492,0.74,-0.566,0.364,-0.755,0.585,-0.297,0.951,-0.241,0.192,-0.969,0.232,-0.083,0.941,0.01,0.337,-0.922,-0.043,-0.384,0.939,0.038,0.341,-0.921,-0.06,-0.384,0.133,0.913,0.386,-0.068,-0.924,-0.376,scissors
0.536393,-0.159,0.744,0.649,-0.451,0.631,0.631,0.785,-0.546,-0.293,0.761,-0.563,0.322,0.468,-0.749,-0.468,0.972,-0.193,0.136,0.745,-0.596,-0.298,0.906,0.054,0.42,0.87,0.483,0.097,0.913,0.075,0.402,0.426,0.681,0.596,0.052,0.899,0.434,-0.523,0.822,-0.224,scissors
29.22639,0.508,-0.015,0.861,-0.1,0.796,0.597,-0.554,-0.243,-0.796,0.503,0.632,0.59,0.308,-0.923,-0.231,0.043,0.674,0.737,0.784,-0.588,-0.196,0.255,0.68,0.687,0.615,0.492,-0.615,0.106,0.908,0.405,0.309,0.928,-0.206,-0.349,-0.132,0.928,-0.743,0.371,0.557,none
29.13933,0.523,-0.018,0.852,0.248,0.744,0.62,-0.557,-0.27,-0.786,0.487,0.632,0.603,0.857,-0.286,-0.429,0.027,0.67,0.742,0.436,0.218,0.873,0.246,0.677,0.693,0.7,0.7,0.14,0.097,0.905,0.414,0.095,0.953,0.286,-0.349,-0.144,0.926,-0.8,0.0,0.6,none
13.087344,-0.204,0.719,0.664,0.38,0.633,-0.675,0.784,-0.143,-0.604,0.789,-0.548,0.278,-0.628,-0.097,0.772,0.973,-0.207,0.106,-0.438,-0.199,0.877,0.917,0.094,0.389,0.136,-0.904,-0.407,0.906,0.121,0.406,0.0,-0.905,-0.426,0.037,0.927,0.373,0.976,-0.183,0.122,scissors
18.281127,0.141,0.989,-0.033,0.941,-0.111,0.321,0.247,-0.766,0.593,0.525,-0.842,0.124,0.689,0.36,0.629,0.726,-0.599,0.338,0.086,0.232,0.969,0.737,-0.66,0.144,0.136,-0.03,0.99,0.834,-0.344,0.431,0.311,0.146,0.939,0.886,-0.06,0.459,-0.329,-0.437,0.837,none
15.785718,-0.284,0.119,0.951,0.897,0.249,0.365,0.639,-0.048,-0.767,0.755,-0.016,-0.656,0.161,0.33,0.93,0.813,0.468,-0.346,-0.461,0.353,0.814,0.804,0.486,-0.342,-0.658,0.295,0.692,0.383,0.923,0.041,0.675,-0.085,0.733,-0.367,0.834,0.412,0.021,-0.351,0.936,none
12.643843,0.104,0.885,0.455,-0.0,-0.861,-0.509,0.025,-0.977,-0.214,0.647,-0.309,0.697,-0.601,0.401,-0.692,0.736,-0.204,0.645,-0.808,0.301,-0.507,0.799,-0.135,0.586,-0.749,0.274,-0.603,1.0,0.019,0.022,-0.983,0.161,-0.089,0.298,0.877,0.376,-0.32,-0.885,-0.339,rock
7.966888,-0.007,0.343,0.939,-0.543,-0.751,0.376,0.324,-0.369,-0.871,0.924,0.33,-0.193,0.959,0.233,-0.164,0.434,0.808,0.398,0.72,0.012,0.693,0.503,0.748,0.434,0.803,0.004,0.596,0.391,0.865,0.315,0.833,0.16,0.529,-0.198,0.709,0.677,0.663,0.003,-0.748,none
45.253502,-0.732,0.37,0.572,-0.753,-0.188,-0.631,0.869,-0.442,-0.223,0.473,-0.068,-0.879,-0.858,0.434,-0.275,0.77,0.43,-0.471,-0.672,0.262,-0.693,0.678,0.527,-0.512,-0.549,0.695,-0.464,0.511,0.818,-0.263,-0.524,0.751,-0.402,0.068,0.987,0.142,0.513,0.132,-0.848,none
9.60765,-0.182,0.833,0.522,-0.011,-0.746,-0.666,0.037,-0.923,-0.382,0.675,-0.624,0.393,-0.795,0.454,-0.403,0.921,-0.322,0.219,-0.973,0.106,-0.207,0.969,0.001,0.247,-0.865,0.081,-0.496,0.97,0.021,0.242,-0.869,0.085,-0.488,0.199,0.922,0.333,-0.074,-0.844,-0.531,scissors
36.878042,0.607,-0.312,0.731,0.882,0.149,0.446,-0.425,0.261,-0.867,0.687,0.425,0.589,0.942,-0.301,0.149,0.221,0.964,0.148,-0.981,0.036,-0.189,0.312,0.944,0.11,-0.927,0.051,-0.371,-0.076,0.988,-0.136,-0.851,0.513,0.117,-0.649,-0.18,0.739,-0.523,-0.042,0.851,none
23.23114,0.476,0.157,0.866,-0.941,-0.196,0.275,-0.413,-0.523,-0.746,0.915,0.306,0.262,-0.047,0.521,-0.852,0.335,0.526,0.782,-0.174,0.869,-0.463,0.299,0.164,0.94,-0.204,0.967,-0.153,0.172,0.613,0.771,-0.049,0.988,-0.148,-0.199,0.053,0.979,-0.505,0.781,-0.367,none
