time,s1_X,s1_Y,s1_Z,s1_gyro_x,s1_gyro_y,s1_gyro_z,s1_mag_x,s1_mag_y,s1_mag_z,s2_X,s2_Y,s2_Z,s2_gyro_x,s2_gyro_y,s2_gyro_z,s2_mag_x,s2_mag_y,s2_mag_z,s3_X,s3_Y,s3_Z,s3_gyro_x,s3_gyro_y,s3_gyro_z,s3_mag_x,s3_mag_y,s3_mag_z,s4_X,s4_Y,s4_Z,s4_gyro_x,s4_gyro_y,s4_gyro_z,s4_mag_x,s4_mag_y,s4_mag_z,s5_X,s5_Y,s5_Z,s5_gyro_x,s5_gyro_y,s5_gyro_z,s5_mag_x,s5_mag_y,s5_mag_z,s6_X,s6_Y,s6_Z,s6_gyro_x,s6_gyro_y,s6_gyro_z,s6_mag_x,s6_mag_y,s6_mag_z,label
0.032603,-0.103,0.941,0.323,0.995,-0.052,0.087,0.747,-0.662,0.053,0.861,0.156,-0.484,0.131,-0.919,0.372,,,,0.69,0.281,0.667,-0.267,-0.877,0.4,,,,0.813,0.13,0.568,-0.289,-0.867,0.405,,,,0.957,-0.074,0.281,-0.408,-0.795,0.449,,,,0.83,-0.166,0.533,-0.597,-0.702,0.388,,,,paper
0.076786,-0.095,0.948,0.303,0.989,-0.106,0.106,0.762,-0.644,0.071,0.87,0.14,-0.473,-0.091,-0.908,0.409,,,,0.707,0.256,0.659,-0.338,-0.863,0.375,,,,0.835,0.096,0.541,-0.367,-0.855,0.367,,,,0.967,-0.112,0.228,-0.514,-0.686,0.514,,,,0.877,-0.211,0.431,-0.655,-0.509,0.558,,,,paper
0.115646,-0.114,0.953,0.282,0.381,0.889,0.254,0.762,-0.644,0.071,0.849,0.132,-0.512,0.447,-0.894,-0.0,,,,0.732,0.251,0.634,-0.0,-0.707,0.707,,,,0.843,0.095,0.53,0.139,-0.766,0.627,,,,0.967,-0.108,0.232,0.0,-0.753,0.659,,,,0.852,-0.196,0.486,-0.59,-0.499,0.635,,,,paper
0.161653,-0.109,0.945,0.309,0.796,0.597,0.1,0.797,-0.592,0.123,0.862,0.136,-0.488,0.889,-0.381,0.254,,,,0.708,0.263,0.656,-0.156,-0.312,0.937,,,,0.83,0.105,0.547,0.205,-0.41,0.889,,,,0.964,-0.1,0.246,0.398,-0.199,0.896,,,,0.856,-0.216,0.469,-0.579,-0.331,0.745,,,,paper
0.200041,-0.097,0.951,0.293,-0.566,0.707,0.424,0.797,-0.592,0.123,0.847,0.116,-0.519,0.873,0.436,0.218,,,,0.727,0.248,0.64,0.164,0.082,0.983,,,,0.839,0.095,0.535,0.518,-0.207,0.83,,,,0.964,-0.097,0.247,0.85,0.261,0.458,,,,0.85,-0.213,0.481,0.651,0.651,-0.391,,,,paper
0.246896,-0.093,0.951,0.296,0.333,0.667,0.667,0.723,-0.674,0.151,0.854,0.111,-0.508,0.758,0.487,0.433,,,,0.733,0.237,0.638,0.053,0.316,0.947,,,,0.855,0.065,0.515,0.475,-0.237,0.848,,,,0.966,-0.114,0.233,0.876,0.138,0.461,,,,0.841,-0.197,0.504,0.553,0.352,-0.755,,,,paper
0.284674,-0.107,0.952,0.286,0.384,0.512,0.768,0.723,-0.674,0.151,0.861,0.135,-0.491,0.635,0.499,0.59,,,,0.707,0.264,0.657,0.046,0.41,0.911,,,,0.82,0.127,0.558,0.532,-0.177,0.828,,,,0.959,-0.065,0.275,0.912,0.14,0.386,,,,0.836,-0.193,0.514,0.241,0.097,-0.966,,,,paper
0.331123,-0.096,0.95,0.296,-0.707,-0.707,-0.0,0.75,-0.655,0.094,0.848,0.103,-0.52,0.743,0.371,0.557,,,,0.726,0.243,0.643,0.358,0.072,0.931,,,,0.845,0.08,0.529,0.64,-0.151,0.753,,,,0.961,-0.087,0.264,0.954,0.249,0.166,,,,0.838,-0.164,0.52,0.062,0.124,-0.99,,,,paper
0.370088,-0.095,0.953,0.287,1.0,0.0,-0.0,0.758,-0.64,0.126,0.842,0.097,-0.53,0.921,-0.369,-0.123,,,,0.738,0.238,0.631,0.376,-0.47,0.799,,,,0.843,0.094,0.529,0.57,-0.38,0.728,,,,0.962,-0.078,0.262,0.956,-0.042,0.291,,,,0.846,-0.159,0.508,-0.176,-0.44,-0.88,,,,paper
0.414988,-0.088,0.951,0.295,0.707,0.707,0.0,0.743,-0.66,0.109,0.862,0.1,-0.497,0.831,-0.147,-0.537,,,,0.737,0.233,0.634,0.627,-0.289,0.723,,,,0.854,0.066,0.516,0.725,-0.229,0.649,,,,0.965,-0.099,0.244,0.982,0.103,0.155,,,,0.856,-0.156,0.493,0.106,0.035,-0.994,,,,paper
0.453785,-0.102,0.953,0.284,-0.162,0.973,0.162,0.743,-0.66,0.109,0.851,0.094,-0.517,0.896,-0.117,-0.428,,,,0.727,0.252,0.639,0.561,-0.262,0.785,,,,0.847,0.089,0.524,0.677,-0.206,0.706,,,,0.962,-0.078,0.261,0.969,0.04,0.242,,,,0.839,-0.144,0.525,0.085,-0.028,-0.996,,,,paper
0.498956,-0.099,0.952,0.288,0.83,-0.518,0.207,0.743,-0.66,0.109,0.869,0.104,-0.484,0.946,-0.167,-0.278,,,,0.71,0.26,0.655,0.398,-0.199,0.896,,,,0.836,0.097,0.54,0.611,-0.163,0.774,,,,0.958,-0.062,0.28,0.913,0.203,0.355,,,,0.849,-0.133,0.512,0.275,0.118,-0.954,,,,paper
0.538431,-0.091,0.955,0.282,0.702,-0.702,0.117,0.729,-0.676,0.107,0.856,0.105,-0.506,0.953,0.073,-0.293,,,,0.728,0.25,0.638,0.473,0.068,0.878,,,,0.846,0.086,0.527,0.734,0.056,0.677,,,,0.959,-0.067,0.275,0.887,0.444,0.127,,,,0.874,-0.124,0.47,0.345,0.078,-0.935,,,,paper
0.583475,-0.106,0.954,0.28,-0.857,0.286,-0.429,0.716,-0.69,0.103,0.86,0.096,-0.502,0.675,0.3,-0.675,,,,0.728,0.25,0.638,0.885,0.442,0.147,,,,0.848,0.082,0.524,0.962,0.275,-0.0,,,,0.962,-0.074,0.262,0.633,0.575,-0.518,,,,0.86,-0.032,0.51,0.527,0.009,-0.85,,,,paper
0.625089,-0.103,0.952,0.288,-0.937,-0.156,-0.312,0.716,-0.69,0.103,0.854,0.096,-0.511,0.61,0.271,-0.745,,,,0.729,0.255,0.635,0.864,0.432,0.259,,,,0.851,0.081,0.518,0.967,0.242,0.081,,,,0.962,-0.074,0.262,0.673,0.673,-0.306,,,,0.811,0.025,0.584,0.404,-0.256,-0.878,,,,paper
0.666394,-0.105,0.952,0.286,0.404,-0.909,-0.101,0.726,-0.676,0.129,0.861,0.099,-0.499,0.445,0.371,-0.815,,,,0.72,0.263,0.642,0.7,0.7,0.14,,,,0.841,0.096,0.532,0.896,0.398,-0.199,,,,0.959,-0.056,0.279,0.47,0.873,-0.134,,,,0.867,0.065,0.493,-0.156,-0.517,-0.842,,,,paper
0.708506,-0.095,0.954,0.285,-0.429,-0.857,-0.286,0.744,-0.659,0.111,0.853,0.097,-0.512,0.108,0.647,-0.755,,,,0.734,0.254,0.629,0.564,0.776,-0.282,,,,0.852,0.081,0.516,0.725,0.544,-0.423,,,,0.959,-0.056,0.278,0.352,0.755,-0.553,,,,0.888,0.055,0.456,-0.814,-0.457,-0.357,,,,paper
0.751019,-0.104,0.953,0.283,-0.937,0.11,-0.331,0.752,-0.647,0.127,0.857,0.109,-0.504,0.08,0.598,-0.797,,,,0.72,0.271,0.638,0.576,0.618,-0.535,,,,0.843,0.097,0.529,0.58,0.425,-0.695,,,,0.956,-0.049,0.29,0.242,0.725,-0.645,,,,0.887,0.038,0.46,-0.944,-0.255,0.208,,,,paper
0.796042,-0.114,0.948,0.298,-0.859,0.229,-0.458,0.752,-0.648,0.116,0.851,0.082,-0.519,0.056,0.447,-0.893,,,,0.73,0.262,0.631,0.552,0.491,-0.674,,,,0.842,0.105,0.529,0.431,0.269,-0.861,,,,0.95,-0.016,0.312,-0.175,0.526,-0.832,,,,0.874,0.009,0.485,-0.906,-0.291,0.308,,,,paper
0.831637,-0.118,0.948,0.296,0.447,0.0,-0.894,0.791,-0.591,0.158,0.861,0.106,-0.497,-0.262,0.087,-0.961,,,,0.707,0.287,0.646,0.087,0.262,-0.961,,,,0.834,0.125,0.537,0.062,0.124,-0.99,,,,0.953,-0.016,0.303,-0.709,0.253,-0.658,,,,0.901,-0.011,0.434,-0.835,-0.322,0.446,,,,paper
0.872878,-0.126,0.947,0.297,-0.867,0.248,-0.433,0.755,-0.652,0.069,0.844,0.108,-0.526,-0.458,0.229,-0.859,,,,0.734,0.279,0.619,0.0,0.468,-0.884,,,,0.855,0.108,0.508,-0.078,0.35,-0.933,,,,0.962,-0.036,0.271,-0.726,0.341,-0.598,,,,0.875,-0.052,0.482,-0.784,-0.361,0.504,,,,paper
0.912854,-0.093,0.946,0.311,-0.867,0.248,-0.433,0.758,-0.64,0.126,0.846,0.107,-0.522,-0.0,-0.507,-0.862,,,,0.735,0.273,0.621,0.138,-0.208,-0.968,,,,0.861,0.092,0.501,-0.212,-0.042,-0.976,,,,0.959,-0.028,0.283,-0.882,-0.237,-0.407,,,,0.913,-0.132,0.385,-0.702,-0.435,0.563,,,,paper
0.959938,-0.115,0.949,0.294,0.137,0.824,-0.549,0.758,-0.64,0.126,0.86,0.116,-0.496,0.101,-0.253,-0.962,,,,0.723,0.278,0.633,0.623,0.078,-0.778,,,,0.845,0.118,0.522,0.164,-0.0,-0.986,,,,0.961,-0.03,0.274,-0.664,-0.258,-0.701,,,,0.931,-0.203,0.304,-0.665,-0.464,0.586,,,,paper
0.995287,-0.119,0.949,0.292,-0.108,0.97,-0.216,0.771,-0.616,0.163,0.862,0.11,-0.495,0.365,-0.183,-0.913,,,,0.723,0.274,0.634,0.816,0.408,-0.408,,,,0.848,0.112,0.518,-0.0,0.316,-0.949,,,,0.962,-0.034,0.272,-0.963,-0.12,-0.241,,,,0.918,-0.225,0.327,-0.614,-0.566,0.55,,,,paper
1.039726,-0.117,0.946,0.302,-0.588,0.784,-0.196,0.771,-0.616,0.163,0.855,0.119,-0.505,0.349,0.116,-0.93,,,,0.718,0.288,0.633,0.688,0.688,0.229,,,,0.845,0.123,0.52,0.696,0.174,-0.696,,,,0.96,-0.02,0.28,-0.873,0.218,-0.436,,,,0.921,-0.233,0.313,-0.241,-0.482,-0.843,,,,paper
1.085855,-0.133,0.946,0.294,0.514,0.686,0.514,0.771,-0.616,0.163,0.851,0.123,-0.511,0.781,-0.0,-0.625,,,,0.715,0.299,0.632,-0.0,0.275,0.962,,,,0.841,0.136,0.523,0.0,-0.0,1.0,,,,0.958,-0.011,0.285,-0.617,0.154,0.772,,,,0.912,-0.253,0.323,0.365,0.0,-0.931,,,,paper
1.124675,-0.124,0.946,0.301,0.985,-0.123,-0.123,0.797,-0.593,0.113,0.853,0.135,-0.505,0.154,-0.617,-0.772,,,,0.708,0.305,0.637,0.365,-0.183,0.913,,,,0.839,0.141,0.525,0.243,-0.97,-0.0,,,,0.956,0.002,0.294,-0.905,-0.302,0.302,,,,0.906,-0.17,0.388,0.417,-0.061,-0.907,,,,paper
1.169035,-0.128,0.948,0.292,0.913,-0.355,0.203,0.797,-0.593,0.113,0.855,0.13,-0.502,-0.0,-0.992,0.124,,,,0.705,0.306,0.639,-0.371,-0.557,0.743,,,,0.836,0.144,0.529,-0.39,-0.781,0.488,,,,0.959,-0.007,0.284,-0.737,-0.164,0.655,,,,0.93,-0.036,0.367,0.335,-0.188,-0.923,,,,paper
1.209496,-0.118,0.949,0.292,0.913,-0.355,0.203,0.764,-0.636,0.112,0.842,0.116,-0.527,-0.485,-0.728,-0.485,,,,0.728,0.289,0.621,-0.485,-0.485,0.728,,,,0.85,0.126,0.512,-0.0,-0.949,0.316,,,,0.963,-0.025,0.269,-0.588,0.196,0.784,,,,0.93,0.018,0.367,0.201,-0.218,-0.955,,,,paper
1.254045,-0.121,0.951,0.286,0.953,-0.28,0.112,0.764,-0.636,0.112,0.847,0.124,-0.517,0.625,-0.625,-0.469,,,,0.727,0.291,0.622,0.101,-0.404,0.909,,,,0.853,0.122,0.508,0.309,-0.619,0.722,,,,0.963,-0.021,0.268,0.482,-0.241,0.843,,,,0.952,0.048,0.302,0.085,-0.235,-0.968,,,,paper
1.299821,-0.128,0.949,0.289,0.953,-0.28,0.112,0.757,-0.646,0.101,0.844,0.103,-0.526,0.937,-0.156,-0.312,,,,0.725,0.288,0.626,0.0,-0.091,0.996,,,,0.85,0.125,0.512,0.432,-0.259,0.864,,,,0.964,-0.023,0.264,0.667,-0.133,0.733,,,,0.948,0.042,0.315,0.231,0.196,-0.953,,,,paper
1.33816,-0.125,0.95,0.286,0.832,-0.535,0.149,0.757,-0.646,0.101,0.845,0.123,-0.521,0.745,-0.596,0.298,,,,0.721,0.297,0.626,-0.287,-0.215,0.933,,,,0.846,0.136,0.515,0.073,-0.293,0.953,,,,0.96,-0.005,0.281,0.425,-0.053,0.904,,,,0.933,0.161,0.323,0.321,0.223,-0.92,,,,paper
1.380437,-0.114,0.954,0.276,0.796,-0.597,0.1,0.757,-0.646,0.101,0.85,0.12,-0.513,1.0,-0.0,0.0,,,,0.722,0.293,0.627,-0.287,0.0,0.958,,,,0.849,0.128,0.513,0.1,-0.0,0.995,,,,0.962,-0.019,0.271,0.426,0.304,0.852,,,,0.917,0.207,0.341,0.333,0.252,-0.908,,,,paper
1.426067,-0.11,0.954,0.279,0.552,-0.797,0.245,0.785,-0.603,0.143,0.847,0.12,-0.519,0.981,-0.196,0.0,,,,0.72,0.295,0.628,-0.259,-0.173,0.95,,,,0.848,0.126,0.515,0.108,-0.216,0.97,,,,0.96,-0.019,0.281,0.215,0.287,0.933,,,,0.911,0.223,0.348,0.255,0.306,-0.917,,,,paper
1.470496,-0.105,0.957,0.272,0.555,-0.832,0.0,0.796,-0.583,0.164,0.843,0.111,-0.525,0.365,0.183,-0.913,,,,0.732,0.281,0.621,-0.196,-0.0,0.981,,,,0.855,0.115,0.505,0.688,-0.229,0.688,,,,0.963,-0.033,0.266,0.424,0.566,0.707,,,,0.919,0.233,0.318,-0.169,-0.101,-0.98,,,,paper
1.510344,-0.113,0.956,0.272,0.832,-0.555,0.0,0.745,-0.649,0.156,0.844,0.1,-0.526,0.408,0.408,-0.816,,,,0.734,0.274,0.621,-0.0,0.371,0.928,,,,0.853,0.114,0.509,0.557,0.371,0.743,,,,0.963,-0.026,0.27,0.272,0.68,0.68,,,,0.912,0.243,0.331,-0.098,-0.344,-0.934,,,,paper
1.554684,-0.109,0.956,0.273,0.492,-0.615,0.615,0.784,-0.601,0.155,0.847,0.115,-0.519,0.64,0.64,-0.426,,,,0.728,0.286,0.623,-0.265,0.265,0.927,,,,0.851,0.121,0.511,0.169,0.507,0.845,,,,0.961,-0.024,0.275,0.333,0.667,0.667,,,,0.911,0.247,0.33,-0.666,-0.555,-0.499,,,,paper
1.594306,-0.114,0.955,0.272,0.236,-0.943,0.236,0.733,-0.661,0.161,0.838,0.11,-0.535,0.707,0.0,-0.707,,,,0.736,0.284,0.614,-0.371,0.0,0.928,,,,0.856,0.115,0.504,0.236,0.236,0.943,,,,0.961,-0.024,0.275,0.196,0.588,0.784,,,,0.906,0.248,0.342,-0.86,-0.43,0.276,,,,paper
1.639851,-0.113,0.955,0.274,0.667,0.333,-0.667,0.765,-0.626,0.151,0.843,0.117,-0.525,0.0,0.124,-0.992,,,,0.734,0.284,0.617,1.0,-0.0,0.0,,,,0.855,0.117,0.505,0.97,-0.0,-0.243,,,,0.962,-0.023,0.271,0.577,0.577,-0.577,,,,0.91,0.24,0.339,-0.814,-0.309,0.491,,,,paper
1.685618,-0.113,0.954,0.277,-0.926,0.337,-0.168,0.765,-0.626,0.151,0.839,0.092,-0.536,0.272,0.136,-0.953,,,,0.744,0.269,0.612,0.949,0.316,-0.0,,,,0.861,0.105,0.498,0.784,0.196,-0.588,,,,0.964,-0.022,0.263,0.514,0.514,-0.686,,,,0.936,0.198,0.292,-0.758,-0.24,0.606,,,,paper
1.724456,-0.103,0.957,0.272,-0.894,0.447,-0.0,0.772,-0.617,0.151,0.848,0.108,-0.519,0.811,0.324,-0.487,,,,0.725,0.288,0.625,-0.218,0.436,0.873,,,,0.851,0.121,0.512,0.408,0.816,0.408,,,,0.961,-0.012,0.277,0.0,0.894,0.447,,,,0.945,0.167,0.283,-0.722,-0.127,0.68,,,,paper
1.766271,-0.105,0.955,0.276,-0.889,0.381,0.254,0.772,-0.617,0.151,0.842,0.1,-0.53,0.745,0.596,-0.298,,,,0.738,0.276,0.615,-0.272,0.68,0.68,,,,0.861,0.105,0.498,0.0,0.894,0.447,,,,0.964,-0.024,0.265,-0.156,0.937,0.312,,,,0.937,0.16,0.311,-0.595,0.278,0.754,,,,paper
1.808193,-0.106,0.956,0.275,-0.64,0.64,0.426,0.757,-0.625,0.19,0.843,0.114,-0.526,0.762,0.457,-0.457,,,,0.734,0.286,0.616,0.0,0.625,0.781,,,,0.857,0.117,0.502,0.728,0.485,0.485,,,,0.963,-0.019,0.267,0.192,0.962,0.192,,,,0.936,0.159,0.314,-0.277,0.83,0.484,,,,paper
1.852679,-0.125,0.953,0.276,-0.64,0.64,0.426,0.791,-0.6,0.122,0.835,0.108,-0.539,0.717,0.359,-0.598,,,,0.742,0.286,0.607,0.514,0.514,0.686,,,,0.862,0.118,0.492,0.962,0.192,0.192,,,,0.964,-0.007,0.264,0.617,0.772,-0.154,,,,0.932,0.17,0.32,0.132,0.991,0.0,,,,paper
1.891165,-0.125,0.953,0.274,-0.514,0.686,-0.514,0.765,-0.617,0.186,0.838,0.105,-0.536,0.862,0.123,-0.492,,,,0.741,0.284,0.609,0.549,0.137,0.824,,,,0.861,0.116,0.495,0.857,-0.286,0.429,,,,0.965,-0.009,0.264,0.772,0.617,0.154,,,,0.932,0.17,0.32,0.371,0.928,0.0,,,,paper
1.936158,-0.109,0.955,0.277,-0.707,0.566,-0.424,0.757,-0.645,0.103,0.846,0.106,-0.522,0.793,0.226,-0.566,,,,0.729,0.287,0.622,0.651,0.391,0.651,,,,0.856,0.116,0.504,0.99,0.0,0.141,,,,0.962,-0.013,0.273,0.843,0.482,-0.241,,,,0.932,0.159,0.325,0.506,0.853,-0.126,,,,paper
1.974775,-0.113,0.952,0.285,-0.656,0.375,-0.656,0.79,-0.594,0.153,0.843,0.091,-0.531,0.943,0.105,-0.314,,,,0.736,0.282,0.616,0.651,0.391,0.651,,,,0.856,0.119,0.503,0.889,0.111,0.444,,,,0.963,-0.011,0.268,0.913,0.365,-0.183,,,,0.938,0.171,0.302,0.677,0.719,-0.155,,,,paper
2.019514,-0.134,0.949,0.285,-0.686,0.514,-0.514,0.79,-0.594,0.153,0.843,0.104,-0.527,0.996,-0.091,0.0,,,,0.726,0.296,0.621,0.095,0.286,0.953,,,,0.852,0.129,0.507,0.535,0.267,0.802,,,,0.959,0.01,0.284,0.585,0.668,0.46,,,,0.91,0.207,0.36,0.781,0.564,-0.269,,,,paper
2.062193,-0.138,0.949,0.285,-0.625,0.781,0.0,0.79,-0.594,0.153,0.843,0.105,-0.528,0.784,-0.196,-0.588,,,,0.727,0.297,0.62,-0.391,0.13,0.911,,,,0.85,0.133,0.51,0.192,0.192,0.962,,,,0.955,0.021,0.297,0.3,0.675,0.675,,,,0.879,0.233,0.416,0.75,0.644,-0.154,,,,paper
2.10447,-0.134,0.951,0.28,0.905,0.302,-0.302,0.765,-0.625,0.156,0.841,0.101,-0.531,0.302,-0.302,-0.905,,,,0.732,0.289,0.617,-0.625,-0.0,0.781,,,,0.855,0.122,0.504,-0.707,0.0,0.707,,,,0.958,0.009,0.288,-0.384,0.512,0.768,,,,0.875,0.247,0.417,0.714,0.68,-0.17,,,,paper
2.14833,-0.123,0.953,0.277,0.943,-0.236,-0.236,0.791,-0.589,0.167,0.844,0.098,-0.528,0.154,-0.617,-0.772,,,,0.731,0.289,0.618,-0.333,-0.667,0.667,,,,0.854,0.121,0.506,-0.302,-0.905,0.302,,,,0.958,0.002,0.286,-0.857,-0.0,0.514,,,,0.876,0.249,0.414,0.568,0.821,0.063,,,,paper
2.187022,-0.125,0.955,0.268,0.816,-0.408,-0.408,0.758,-0.636,0.145,0.824,0.074,-0.562,0.442,-0.885,0.147,,,,0.755,0.274,0.596,-0.514,-0.514,0.686,,,,0.874,0.1,0.475,-0.615,-0.492,0.615,,,,0.966,-0.01,0.257,-0.704,-0.088,0.704,,,,0.891,0.25,0.379,-0.433,0.248,0.867,,,,paper
2.233462,-0.157,0.952,0.264,0.87,0.348,0.348,0.758,-0.636,0.145,0.824,0.115,-0.555,0.885,-0.442,0.147,,,,0.752,0.3,0.587,-0.552,-0.345,0.759,,,,0.876,0.122,0.466,-0.453,-0.362,0.815,,,,0.971,0.006,0.24,-0.503,-0.072,0.862,,,,0.891,0.263,0.37,-0.485,0.032,0.874,,,,paper
2.272179,-0.141,0.952,0.271,0.0,0.857,0.514,0.764,-0.63,0.139,0.822,0.112,-0.558,0.97,-0.243,-0.0,,,,0.756,0.293,0.585,-0.566,-0.162,0.808,,,,0.876,0.116,0.468,-0.436,-0.218,0.873,,,,0.97,-0.008,0.242,-0.308,0.231,0.923,,,,0.908,0.227,0.352,-0.237,0.434,0.869,,,,paper
2.311415,-0.097,0.959,0.268,-0.0,0.965,-0.263,0.764,-0.63,0.139,0.829,0.089,-0.552,0.37,-0.092,-0.925,,,,0.764,0.259,0.592,0.312,0.156,0.937,,,,0.883,0.067,0.465,0.845,-0.169,0.507,,,,0.97,-0.065,0.232,0.384,0.512,0.768,,,,0.913,0.185,0.363,0.292,0.62,0.729,,,,paper
2.355836,-0.09,0.956,0.278,-0.514,0.845,-0.147,0.776,-0.621,0.105,0.849,0.07,-0.524,0.254,0.254,-0.933,,,,0.742,0.251,0.621,0.854,0.488,0.183,,,,0.859,0.075,0.507,0.968,0.242,-0.061,,,,0.957,-0.045,0.288,0.878,0.473,-0.068,,,,0.89,0.181,0.419,0.229,0.725,0.649,,,,paper
2.401605,-0.111,0.946,0.305,-0.636,0.755,-0.159,0.779,-0.613,0.132,0.874,0.083,-0.48,0.096,0.574,-0.813,,,,0.704,0.274,0.656,0.639,0.767,-0.064,,,,0.833,0.111,0.542,0.717,0.598,-0.359,,,,0.945,-0.007,0.327,0.532,0.828,-0.177,,,,0.884,0.178,0.432,-0.073,0.913,0.402,,,,paper
2.439814,-0.123,0.95,0.287,-0.975,0.222,0.0,0.764,-0.633,0.124,0.845,0.072,-0.53,0.06,0.84,-0.54,,,,0.738,0.262,0.622,0.287,0.933,0.215,,,,0.853,0.098,0.512,0.374,0.873,-0.312,,,,0.952,-0.013,0.305,0.174,0.985,0.0,,,,0.877,0.193,0.441,-0.037,0.955,0.294,,,,paper
2.485969,-0.115,0.948,0.296,-0.74,0.647,0.185,0.765,-0.625,0.156,0.853,0.097,-0.512,0.374,0.686,-0.624,,,,0.721,0.285,0.632,0.382,0.841,0.382,,,,0.845,0.117,0.521,0.531,0.834,-0.152,,,,0.951,-0.003,0.309,0.312,0.937,0.156,,,,0.878,0.189,0.44,0.144,0.912,0.384,,,,paper
2.523606,-0.138,0.935,0.325,-0.74,0.647,0.185,0.765,-0.631,0.129,0.868,0.09,-0.489,0.224,0.972,-0.075,,,,0.699,0.293,0.652,-0.408,0.816,0.408,,,,0.82,0.148,0.552,-0.209,0.975,0.07,,,,0.934,0.046,0.353,-0.275,0.881,0.385,,,,0.844,0.217,0.49,-0.324,0.811,0.487,,,,paper
2.570784,-0.144,0.948,0.282,0.1,-0.796,0.597,0.765,-0.631,0.129,0.841,0.12,-0.527,0.254,0.381,0.889,,,,0.727,0.308,0.613,-0.877,0.195,0.439,,,,0.855,0.131,0.502,-0.824,0.495,0.275,,,,0.954,0.012,0.299,-0.701,0.482,0.526,,,,0.872,0.198,0.448,-0.953,0.095,0.286,,,,paper
2.609532,-0.124,0.952,0.281,0.078,-0.778,0.623,0.765,-0.631,0.129,0.841,0.091,-0.533,0.085,0.513,0.854,,,,0.752,0.27,0.601,-0.881,0.235,0.411,,,,0.871,0.096,0.482,-0.808,0.559,0.186,,,,0.965,-0.024,0.262,-0.717,0.493,0.493,,,,0.897,0.195,0.396,-0.936,0.0,0.351,,,,paper
2.652366,-0.139,0.945,0.295,0.078,-0.778,0.623,0.752,-0.64,0.161,0.837,0.118,-0.534,-0.0,0.914,0.406,,,,0.731,0.303,0.612,-0.776,0.564,0.282,,,,0.85,0.138,0.508,-0.587,0.807,0.073,,,,0.951,0.018,0.309,-0.584,0.701,0.409,,,,0.871,0.189,0.454,-0.913,-0.0,0.409,,,,paper
2.698059,-0.118,0.949,0.293,0.688,-0.688,-0.229,0.757,-0.649,0.081,0.849,0.105,-0.518,-0.684,-0.456,0.57,,,,0.73,0.286,0.62,-0.857,-0.514,0.0,,,,0.851,0.117,0.512,-0.923,-0.231,-0.308,,,,0.954,-0.006,0.301,-0.985,-0.0,0.174,,,,0.884,0.17,0.434,-0.923,-0.244,0.298,,,,paper
2.745436,-0.084,0.955,0.286,0.0,0.894,-0.447,0.757,-0.649,0.081,0.837,0.052,-0.545,-0.267,-0.535,-0.802,,,,0.762,0.23,0.605,-0.688,-0.688,0.229,,,,0.871,0.056,0.488,-0.784,-0.196,-0.588,,,,0.961,-0.066,0.269,-0.97,0.108,0.216,,,,0.905,0.136,0.403,-0.867,-0.128,0.482,,,,paper
2.782485,-0.102,0.944,0.312,0.0,0.949,0.316,0.771,-0.63,0.094,0.866,0.067,-0.495,0.588,0.196,-0.784,,,,0.718,0.258,0.646,-0.588,0.196,0.784,,,,0.836,0.1,0.539,-0.408,0.816,0.408,,,,0.944,-0.018,0.331,-0.651,0.391,0.651,,,,0.879,0.134,0.457,-0.804,-0.042,0.593,,,,paper
2.82405,-0.129,0.938,0.321,0.154,-0.772,0.617,0.771,-0.63,0.094,0.865,0.089,-0.493,-0.0,0.371,0.928,,,,0.712,0.281,0.644,-0.931,0.072,0.358,,,,0.831,0.126,0.541,-0.941,0.282,0.188,,,,0.942,0.006,0.336,-0.809,0.311,0.498,,,,0.876,0.142,0.46,-0.931,-0.089,0.355,,,,paper
2.869479,-0.138,0.948,0.288,0.368,-0.882,0.294,0.771,-0.622,0.137,0.836,0.097,-0.54,-0.391,-0.13,0.911,,,,0.75,0.275,0.602,-0.927,-0.265,0.265,,,,0.862,0.107,0.495,-0.983,-0.082,0.164,,,,0.96,-0.02,0.279,-0.881,0.059,0.47,,,,0.899,0.14,0.414,-0.958,-0.282,0.056,,,,paper
2.913893,-0.111,0.954,0.278,0.535,-0.267,-0.802,0.771,-0.63,0.094,0.83,0.08,-0.552,-0.667,-0.667,-0.333,,,,0.764,0.256,0.592,-0.845,-0.507,0.169,,,,0.874,0.078,0.48,-0.816,-0.408,-0.408,,,,0.963,-0.045,0.266,-0.963,0.12,0.241,,,,0.904,0.129,0.407,-0.83,-0.207,-0.518,,,,paper
2.953471,-0.103,0.954,0.282,0.824,0.137,-0.549,0.757,-0.632,0.164,0.843,0.053,-0.536,0.0,-0.832,-0.555,,,,0.75,0.24,0.616,-0.0,-0.894,0.447,,,,0.858,0.078,0.508,0.0,-0.981,0.196,,,,0.954,-0.039,0.298,-0.913,-0.365,0.183,,,,0.897,0.126,0.425,-0.503,-0.704,-0.503,,,,paper
2.998567,-0.117,0.95,0.291,0.98,0.14,-0.14,0.764,-0.635,0.113,0.85,0.074,-0.521,-0.0,-0.832,-0.555,,,,0.733,0.263,0.627,-0.762,-0.457,0.457,,,,0.846,0.101,0.523,-0.97,-0.243,-0.0,,,,0.951,-0.02,0.308,-0.936,0.0,0.351,,,,0.89,0.132,0.436,-0.704,-0.503,-0.503,,,,paper
3.041095,-0.117,0.952,0.283,0.862,-0.123,-0.492,0.764,-0.635,0.113,0.839,0.074,-0.539,-0.169,-0.845,-0.507,,,,0.756,0.251,0.604,-0.535,-0.802,0.267,,,,0.866,0.082,0.494,-0.507,-0.845,-0.169,,,,0.959,-0.038,0.28,-0.912,-0.342,0.228,,,,0.901,0.138,0.411,-0.647,-0.539,-0.539,,,,paper
3.086681,-0.1,0.955,0.28,0.625,0.625,-0.469,0.779,-0.608,0.152,0.844,0.067,-0.532,0.228,-0.342,-0.912,,,,0.751,0.248,0.612,0.485,-0.728,0.485,,,,0.86,0.08,0.503,0.6,-0.8,0.0,,,,0.956,-0.039,0.29,-0.802,-0.267,0.535,,,,0.899,0.132,0.419,-0.667,-0.667,-0.333,,,,paper
3.131361,-0.101,0.947,0.305,0.0,0.894,-0.447,0.744,-0.659,0.113,0.866,0.066,-0.495,0.0,-0.243,-0.97,,,,0.717,0.258,0.647,-0.408,-0.408,0.816,,,,0.832,0.101,0.546,-0.707,0.0,-0.707,,,,0.941,-0.014,0.337,-0.784,0.196,0.588,,,,0.884,0.125,0.45,-0.928,0.0,-0.371,,,,paper
3.170562,-0.088,0.957,0.276,-0.162,-0.973,0.162,0.765,-0.623,0.162,0.847,0.04,-0.529,0.316,0.0,0.949,,,,0.747,0.233,0.622,-0.777,-0.173,0.605,,,,0.856,0.068,0.513,-0.928,0.206,0.309,,,,0.954,-0.048,0.295,-0.786,0.328,0.524,,,,0.897,0.13,0.423,-0.95,-0.173,0.259,,,,paper
3.214757,-0.121,0.953,0.279,0.089,-0.178,0.98,0.751,-0.643,0.147,0.846,0.083,-0.527,0.68,0.68,0.272,,,,0.746,0.264,0.611,-0.697,0.348,0.627,,,,0.857,0.098,0.506,-0.605,0.605,0.518,,,,0.957,-0.026,0.289,-0.471,0.529,0.706,,,,0.899,0.141,0.414,-0.778,0.078,0.623,,,,paper
3.257434,-0.14,0.948,0.285,-0.178,-0.089,0.98,0.751,-0.648,0.125,0.84,0.088,-0.535,0.111,0.889,0.444,,,,0.746,0.269,0.61,-0.834,0.449,0.321,,,,0.856,0.107,0.506,-0.688,0.688,0.229,,,,0.954,-0.009,0.3,-0.595,0.595,0.541,,,,0.892,0.145,0.427,-0.828,0.177,0.532,,,,paper
3.297082,-0.103,0.952,0.287,0.298,-0.596,0.745,0.751,-0.648,0.125,0.845,0.095,-0.526,-0.371,0.928,-0.0,,,,0.745,0.264,0.612,-0.839,0.466,0.28,,,,0.857,0.093,0.506,-0.707,0.707,-0.0,,,,0.956,-0.037,0.291,-0.593,0.659,0.462,,,,0.903,0.118,0.414,-0.776,0.282,0.564,,,,paper
3.337023,-0.095,0.955,0.28,-0.981,-0.0,-0.196,0.751,-0.648,0.125,0.843,0.06,-0.534,-0.768,0.329,-0.549,,,,0.746,0.247,0.618,-0.667,0.667,-0.333,,,,0.857,0.077,0.51,-0.537,0.447,-0.716,,,,0.956,-0.055,0.289,-0.843,0.527,0.105,,,,0.909,0.112,0.401,-0.615,0.492,0.615,,,,paper
3.382806,-0.113,0.954,0.278,-0.696,0.696,-0.174,0.739,-0.658,0.145,0.844,0.078,-0.531,-0.802,0.267,-0.535,,,,0.748,0.257,0.612,-0.647,0.539,-0.539,,,,0.85,0.1,0.518,-0.473,0.473,-0.743,,,,0.953,-0.026,0.302,-0.759,0.651,-0.0,,,,0.897,0.123,0.424,-0.212,0.742,0.636,,,,paper
3.427139,-0.118,0.951,0.285,0.302,0.302,-0.905,0.739,-0.658,0.145,0.839,0.073,-0.54,-0.857,-0.0,-0.514,,,,0.754,0.251,0.607,-0.962,0.0,-0.275,,,,0.863,0.079,0.499,-0.61,0.271,-0.745,,,,0.957,-0.037,0.288,-0.928,0.309,0.206,,,,0.893,0.127,0.432,-0.651,0.391,0.651,,,,paper
3.465984,-0.097,0.954,0.285,0.577,0.577,-0.577,0.77,-0.623,0.136,0.842,0.063,-0.535,-0.0,-0.371,-0.928,,,,0.755,0.237,0.611,-0.577,-0.577,0.577,,,,0.86,0.068,0.506,-0.447,-0.0,-0.894,,,,0.955,-0.048,0.294,-0.707,0.0,0.707,,,,0.898,0.111,0.425,-0.535,0.267,0.802,,,,paper
3.518124,-0.088,0.955,0.284,0.333,0.667,0.667,0.77,-0.623,0.136,0.853,0.053,-0.519,0.588,0.196,-0.784,,,,0.74,0.236,0.63,-0.442,0.147,0.885,,,,0.85,0.073,0.521,-0.267,0.535,0.802,,,,0.952,-0.051,0.303,-0.384,0.512,0.768,,,,0.9,0.103,0.423,-0.577,0.577,0.577,,,,paper
3.549834,-0.104,0.955,0.278,-0.507,0.169,0.845,0.759,-0.632,0.16,0.845,0.08,-0.529,0.686,0.514,-0.514,,,,0.743,0.258,0.618,-0.424,0.566,0.707,,,,0.852,0.095,0.515,-0.218,0.873,0.436,,,,0.954,-0.036,0.299,-0.248,0.744,0.62,,,,0.896,0.116,0.428,-0.696,0.696,0.174,,,,paper
3.591547,-0.128,0.95,0.285,0.0,0.707,0.707,0.723,-0.682,0.11,0.836,0.082,-0.543,0.802,0.267,-0.535,,,,0.753,0.259,0.605,-0.442,0.147,0.885,,,,0.86,0.093,0.501,-0.267,0.535,0.802,,,,0.958,-0.035,0.285,-0.384,0.512,0.768,,,,0.899,0.121,0.422,-0.937,0.312,0.156,,,,paper
3.633945,-0.098,0.955,0.281,0.0,0.707,0.707,0.744,-0.659,0.111,0.833,0.068,-0.549,0.398,0.199,-0.896,,,,0.76,0.243,0.602,0.7,0.14,0.7,,,,0.868,0.063,0.493,0.919,-0.0,0.394,,,,0.959,-0.063,0.276,0.802,0.535,0.267,,,,0.911,0.099,0.4,0.236,0.943,-0.236,,,,paper
3.678838,-0.097,0.952,0.291,-0.202,0.942,-0.269,0.771,-0.629,0.102,0.853,0.066,-0.518,0.418,0.07,-0.906,,,,0.738,0.244,0.629,0.889,0.111,0.444,,,,0.844,0.084,0.529,0.961,-0.087,0.262,,,,0.947,-0.04,0.318,0.973,0.162,0.162,,,,0.893,0.103,0.438,0.845,0.507,-0.169,,,,paper
3.725593,-0.087,0.953,0.291,-0.275,0.962,0.0,0.772,-0.611,0.175,0.862,0.051,-0.504,0.503,0.503,-0.704,,,,0.735,0.234,0.636,0.391,0.651,0.651,,,,0.842,0.074,0.534,0.728,0.485,0.485,,,,0.948,-0.05,0.315,0.367,0.855,0.367,,,,0.897,0.106,0.43,0.124,0.992,0.0,,,,paper
3.76457,-0.091,0.953,0.29,-0.796,0.239,0.557,0.778,-0.619,0.108,0.851,0.054,-0.523,0.531,0.758,-0.379,,,,0.742,0.239,0.626,0.07,0.772,0.632,,,,0.849,0.073,0.524,0.394,0.788,0.473,,,,0.95,-0.051,0.308,0.277,0.83,0.484,,,,0.898,0.105,0.428,0.077,0.92,0.383,,,,paper
3.806638,-0.114,0.95,0.29,-0.614,0.383,0.69,0.757,-0.641,0.126,0.852,0.072,-0.519,0.564,0.776,-0.282,,,,0.738,0.257,0.624,-0.137,0.824,0.549,,,,0.846,0.09,0.526,0.218,0.873,0.436,,,,0.949,-0.03,0.313,0.13,0.844,0.52,,,,0.892,0.118,0.436,-0.074,0.892,0.446,,,,paper
3.849045,-0.116,0.949,0.292,-0.675,0.3,0.675,0.772,-0.616,0.156,0.847,0.074,-0.526,0.514,0.836,-0.193,,,,0.744,0.251,0.619,-0.183,0.854,0.488,,,,0.852,0.085,0.517,0.193,0.902,0.386,,,,0.952,-0.039,0.305,0.114,0.852,0.511,,,,0.893,0.115,0.435,-0.134,0.873,0.47,,,,paper
3.893361,-0.099,0.95,0.295,-0.504,0.42,0.755,0.738,-0.658,0.149,0.852,0.066,-0.519,0.596,0.745,-0.298,,,,0.737,0.248,0.629,-0.139,0.766,0.627,,,,0.843,0.087,0.531,0.224,0.822,0.523,,,,0.948,-0.04,0.314,0.181,0.725,0.665,,,,0.889,0.109,0.445,-0.173,0.777,0.605,,,,paper
3.933093,-0.106,0.952,0.289,-0.656,0.094,0.749,0.723,-0.68,0.121,0.856,0.066,-0.513,0.566,0.808,-0.162,,,,0.732,0.249,0.634,-0.267,0.802,0.535,,,,0.84,0.089,0.535,0.08,0.875,0.477,,,,0.945,-0.035,0.325,0.121,0.787,0.605,,,,0.887,0.105,0.449,-0.347,0.78,0.52,,,,paper
3.976948,-0.102,0.949,0.299,-0.647,0.108,0.755,0.759,-0.633,0.152,0.86,0.061,-0.507,0.555,0.832,-0.0,,,,0.731,0.245,0.636,-0.441,0.735,0.515,,,,0.839,0.086,0.538,-0.089,0.891,0.445,,,,0.944,-0.033,0.328,-0.139,0.766,0.627,,,,0.885,0.111,0.452,-0.514,0.686,0.514,,,,paper
4.019586,-0.112,0.947,0.301,-0.282,-0.188,0.941,0.723,-0.684,0.096,0.858,0.068,-0.509,0.488,0.781,0.39,,,,0.727,0.255,0.637,-0.639,0.511,0.575,,,,0.836,0.096,0.541,-0.514,0.686,0.514,,,,0.943,-0.025,0.332,-0.409,0.584,0.701,,,,0.884,0.111,0.455,-0.758,0.379,0.531,,,,paper
4.058108,-0.109,0.948,0.299,-0.1,-0.597,0.796,0.723,-0.684,0.096,0.855,0.078,-0.513,0.349,0.814,0.465,,,,0.733,0.255,0.631,-0.762,0.457,0.457,,,,0.843,0.091,0.53,-0.616,0.704,0.352,,,,0.948,-0.032,0.318,-0.532,0.599,0.599,,,,0.888,0.109,0.447,-0.864,0.314,0.393,,,,paper
4.104371,-0.094,0.95,0.298,-0.154,-0.617,0.772,0.746,-0.646,0.163,0.853,0.067,-0.518,0.218,0.873,0.436,,,,0.74,0.245,0.627,-0.848,0.318,0.424,,,,0.844,0.081,0.531,-0.762,0.635,0.127,,,,0.947,-0.041,0.32,-0.655,0.492,0.573,,,,0.888,0.1,0.449,-0.962,0.192,0.192,,,,paper
4.143298,-0.084,0.95,0.3,0.64,-0.64,0.426,0.687,-0.722,0.082,0.855,0.062,-0.515,0.707,0.707,-0.0,,,,0.74,0.235,0.63,-0.772,0.154,0.617,,,,0.846,0.068,0.529,-0.802,0.535,0.267,,,,0.947,-0.061,0.315,-0.667,0.333,0.667,,,,0.892,0.087,0.443,-1.0,0.0,-0.0,,,,paper
4.187154,-0.09,0.947,0.309,0.408,0.408,-0.816,0.687,-0.722,0.082,0.864,0.062,-0.5,-0.192,-0.192,-0.962,,,,0.726,0.242,0.643,-0.707,-0.707,0.0,,,,0.835,0.08,0.545,0.0,-0.447,-0.894,,,,0.942,-0.047,0.332,-0.943,0.236,0.236,,,,0.889,0.093,0.449,-0.625,0.0,-0.781,,,,paper
4.226948,-0.089,0.946,0.313,-0.236,0.236,-0.943,0.735,-0.67,0.099,0.865,0.052,-0.499,-0.236,0.236,-0.943,,,,0.729,0.237,0.642,-0.894,0.447,0.0,,,,0.835,0.075,0.544,-0.408,0.408,-0.816,,,,0.942,-0.048,0.333,-0.811,0.487,0.324,,,,0.887,0.101,0.451,-0.745,0.298,-0.596,,,,paper
4.270903,-0.085,0.947,0.309,-0.905,-0.302,0.302,0.735,-0.67,0.099,0.866,0.048,-0.498,-0.333,0.667,-0.667,,,,0.728,0.232,0.645,-0.873,0.436,0.218,,,,0.835,0.071,0.546,-0.688,0.688,-0.229,,,,0.94,-0.05,0.339,-0.717,0.598,0.359,,,,0.881,0.096,0.463,-0.857,0.429,-0.286,,,,paper
4.30975,-0.082,0.95,0.302,-0.333,-0.667,0.667,0.744,-0.655,0.132,0.863,0.045,-0.503,-0.447,0.894,-0.0,,,,0.732,0.227,0.643,-0.927,0.265,0.265,,,,0.836,0.067,0.545,-0.928,0.371,-0.0,,,,0.941,-0.056,0.335,-0.781,0.39,0.488,,,,0.887,0.09,0.453,-0.985,0.123,-0.123,,,,paper
4.350602,-0.078,0.949,0.305,0.302,-0.905,0.302,0.735,-0.673,0.079,0.86,0.051,-0.508,0.0,0.894,-0.447,,,,0.734,0.23,0.639,-0.857,0.286,0.429,,,,0.84,0.065,0.539,-0.894,0.447,0.0,,,,0.944,-0.062,0.325,-0.778,0.444,0.444,,,,0.89,0.085,0.447,-0.953,0.136,-0.272,,,,paper
4.393076,-0.087,0.949,0.304,0.302,-0.905,0.302,0.724,-0.677,0.129,0.862,0.052,-0.505,-0.0,0.316,-0.949,,,,0.732,0.234,0.64,-0.873,0.218,0.436,,,,0.838,0.071,0.541,-0.816,0.408,-0.408,,,,0.942,-0.054,0.33,-0.762,0.457,0.457,,,,0.887,0.094,0.451,-0.885,0.147,-0.442,,,,paper
4.434799,-0.091,0.948,0.306,0.577,-0.577,-0.577,0.712,-0.699,0.062,0.862,0.053,-0.505,-0.0,0.316,-0.949,,,,0.732,0.232,0.64,-0.873,0.218,0.436,,,,0.839,0.07,0.54,-0.816,0.408,-0.408,,,,0.943,-0.056,0.329,-0.762,0.457,0.457,,,,0.887,0.094,0.451,-0.911,0.13,-0.391,,,,paper
4.481259,-0.089,0.95,0.3,0.0,0.707,-0.707,0.731,-0.664,0.158,0.862,0.06,-0.504,-0.218,0.436,-0.873,,,,0.733,0.237,0.637,-0.707,0.707,0.0,,,,0.838,0.075,0.541,-0.267,0.535,-0.802,,,,0.943,-0.051,0.329,-0.596,0.745,0.298,,,,0.89,0.093,0.447,-0.707,0.424,-0.566,,,,paper
4.518019,-0.09,0.947,0.309,-0.873,0.218,-0.436,0.728,-0.681,0.077,0.863,0.05,-0.503,-0.192,0.192,-0.962,,,,0.729,0.234,0.644,-0.707,0.707,0.0,,,,0.834,0.075,0.547,-0.0,0.555,-0.832,,,,0.94,-0.047,0.338,-0.667,0.667,0.333,,,,0.883,0.099,0.458,-0.745,0.298,-0.596,,,,paper
4.564582,-0.092,0.946,0.31,-0.408,-0.816,0.408,0.728,-0.681,0.077,0.868,0.056,-0.493,-0.302,0.905,-0.302,,,,0.723,0.237,0.649,-0.889,0.381,0.254,,,,0.832,0.078,0.55,-0.696,0.696,-0.174,,,,0.939,-0.042,0.341,-0.631,0.631,0.451,,,,0.883,0.102,0.459,-0.943,0.314,-0.105,,,,paper
4.603334,-0.094,0.949,0.302,-0.348,-0.87,0.348,0.713,-0.696,0.086,0.861,0.064,-0.505,-0.192,0.962,-0.192,,,,0.733,0.239,0.637,-0.808,0.577,0.115,,,,0.842,0.073,0.534,-0.549,0.824,-0.137,,,,0.945,-0.054,0.321,-0.579,0.745,0.331,,,,0.89,0.101,0.444,-0.87,0.483,-0.097,,,,paper
4.648235,-0.093,0.946,0.311,-0.816,-0.408,-0.408,0.713,-0.696,0.086,0.858,0.064,-0.509,-0.426,0.64,-0.64,,,,0.733,0.241,0.636,-0.8,0.6,-0.0,,,,0.838,0.078,0.541,-0.426,0.64,-0.64,,,,0.941,-0.047,0.336,-0.62,0.744,0.248,,,,0.882,0.094,0.462,-0.855,0.367,-0.367,,,,paper
4.687003,-0.083,0.947,0.31,-0.816,-0.408,-0.408,0.735,-0.673,0.087,0.865,0.046,-0.5,-0.6,-0.0,-0.8,,,,0.729,0.23,0.645,-0.816,-0.408,-0.408,,,,0.835,0.066,0.546,-0.535,-0.267,-0.802,,,,0.94,-0.057,0.337,-0.811,0.487,0.324,,,,0.883,0.092,0.46,-0.814,-0.0,-0.581,,,,paper
4.731112,-0.085,0.949,0.303,-0.0,-0.316,-0.949,0.735,-0.673,0.087,0.864,0.05,-0.5,-0.688,0.229,-0.688,,,,0.728,0.237,0.644,-0.832,0.0,-0.555,,,,0.836,0.073,0.544,-0.371,0.0,-0.928,,,,0.94,-0.053,0.337,-0.894,0.447,0.0,,,,0.886,0.095,0.454,-0.796,0.1,-0.597,,,,paper
4.767448,-0.093,0.948,0.306,0.267,-0.802,-0.535,0.753,-0.637,0.163,0.86,0.051,-0.507,-0.832,0.0,-0.555,,,,0.736,0.234,0.636,-1.0,0.0,-0.0,,,,0.841,0.072,0.537,-0.784,0.196,-0.588,,,,0.942,-0.049,0.331,-0.93,0.349,0.116,,,,0.887,0.103,0.449,-0.87,0.097,-0.483,,,,paper
4.81232,-0.081,0.948,0.308,0.0,0.0,-1.0,0.753,-0.637,0.163,0.861,0.053,-0.506,-0.302,0.302,-0.905,,,,0.735,0.232,0.637,-0.949,0.316,0.0,,,,0.841,0.064,0.537,-0.667,0.333,-0.667,,,,0.942,-0.062,0.33,-0.937,0.312,0.156,,,,0.888,0.094,0.449,-0.862,0.123,-0.492,,,,paper
4.850291,-0.078,0.946,0.316,-0.408,0.408,-0.816,0.753,-0.637,0.163,0.868,0.044,-0.494,-0.218,0.436,-0.873,,,,0.723,0.23,0.651,-0.832,0.555,0.0,,,,0.829,0.071,0.554,-0.333,0.667,-0.667,,,,0.936,-0.051,0.349,-0.885,0.442,0.147,,,,0.881,0.092,0.464,-0.855,0.367,-0.367,,,,paper
4.890024,-0.081,0.946,0.315,0.243,-0.97,0.0,0.72,-0.689,0.086,0.869,0.046,-0.493,-0.707,0.707,-0.0,,,,0.722,0.232,0.651,-0.973,0.162,0.162,,,,0.831,0.071,0.552,-0.816,0.408,-0.408,,,,0.937,-0.057,0.344,-0.848,0.424,0.318,,,,0.882,0.093,0.462,-0.928,0.206,-0.309,,,,paper
4.933049,-0.081,0.952,0.295,0.0,-0.97,0.243,0.72,-0.689,0.086,0.859,0.043,-0.51,-0.316,0.949,0.0,,,,0.739,0.225,0.635,-0.911,0.391,0.13,,,,0.844,0.058,0.533,-0.845,0.507,-0.169,,,,0.944,-0.068,0.322,-0.697,0.597,0.398,,,,0.892,0.092,0.443,-0.976,0.195,-0.098,,,,paper
4.976539,-0.086,0.949,0.305,-0.302,-0.302,0.905,0.72,-0.689,0.086,0.86,0.04,-0.509,0.535,0.802,-0.267,,,,0.738,0.227,0.636,-0.768,0.384,0.512,,,,0.84,0.062,0.539,-0.557,0.743,0.371,,,,0.942,-0.06,0.33,-0.577,0.577,0.577,,,,0.888,0.097,0.449,-0.912,0.228,0.342,,,,paper
5.015668,-0.086,0.947,0.311,-0.192,-0.192,0.962,0.72,-0.689,0.086,0.865,0.047,-0.5,0.447,0.894,-0.0,,,,0.727,0.237,0.644,-0.684,0.456,0.57,,,,0.835,0.071,0.545,-0.566,0.707,0.424,,,,0.94,-0.054,0.338,-0.518,0.605,0.605,,,,0.885,0.094,0.456,-0.848,0.318,0.424,,,,paper
5.056206,-0.092,0.944,0.316,-0.192,-0.192,0.962,0.728,-0.682,0.077,0.864,0.057,-0.501,0.236,0.943,-0.236,,,,0.728,0.24,0.642,-0.651,0.651,0.391,,,,0.836,0.075,0.544,-0.507,0.845,0.169,,,,0.94,-0.052,0.338,-0.539,0.647,0.539,,,,0.884,0.093,0.458,-0.862,0.492,0.123,,,,paper
5.100648,-0.087,0.949,0.302,-0.577,0.577,0.577,0.728,-0.682,0.077,0.861,0.053,-0.505,0.267,0.535,-0.802,,,,0.733,0.235,0.639,-0.686,0.514,0.514,,,,0.84,0.07,0.539,-0.316,0.949,0.0,,,,0.942,-0.057,0.331,-0.53,0.662,0.53,,,,0.887,0.092,0.452,-0.857,0.514,0.0,,,,paper
5.13809,-0.083,0.95,0.302,-0.894,0.447,0.0,0.728,-0.682,0.077,0.862,0.044,-0.506,0.408,0.408,-0.816,,,,0.733,0.231,0.64,-0.64,0.426,0.64,,,,0.839,0.067,0.54,-0.0,0.894,0.447,,,,0.942,-0.059,0.33,-0.469,0.625,0.625,,,,0.889,0.089,0.449,-0.894,0.447,0.0,,,,paper
5.184246,-0.087,0.946,0.313,-0.707,0.707,-0.0,0.728,-0.682,0.077,0.864,0.044,-0.502,0.183,0.365,-0.913,,,,0.728,0.231,0.645,-0.333,0.667,0.667,,,,0.834,0.07,0.547,0.408,0.816,-0.408,,,,0.938,-0.052,0.342,-0.557,0.743,0.371,,,,0.879,0.094,0.467,-0.784,0.588,-0.196,,,,paper
5.221714,-0.082,0.946,0.312,-0.707,0.707,-0.0,0.71,-0.702,0.049,0.867,0.046,-0.497,0.236,0.236,-0.943,,,,0.725,0.229,0.649,-0.688,0.229,0.688,,,,0.834,0.069,0.548,-0.0,1.0,0.0,,,,0.938,-0.058,0.341,-0.625,0.469,0.625,,,,0.884,0.091,0.459,-0.937,0.312,-0.156,,,,paper
5.26786,-0.078,0.948,0.31,-0.894,0.0,0.447,0.71,-0.702,0.049,0.866,0.04,-0.498,0.267,0.535,-0.802,,,,0.728,0.228,0.647,-0.64,0.64,0.426,,,,0.834,0.067,0.548,-0.302,0.905,-0.302,,,,0.938,-0.058,0.341,-0.53,0.662,0.53,,,,0.884,0.089,0.459,-0.937,0.312,-0.156,,,,paper
5.307459,-0.082,0.947,0.31,-0.894,0.0,0.447,0.699,-0.709,0.089,0.865,0.042,-0.5,0.485,0.728,-0.485,,,,0.73,0.227,0.645,-0.686,0.514,0.514,,,,0.836,0.064,0.545,-0.447,0.894,0.0,,,,0.939,-0.061,0.338,-0.456,0.684,0.57,,,,0.887,0.088,0.454,-0.696,0.696,0.174,,,,paper
5.350545,-0.078,0.949,0.306,-0.408,0.408,0.816,0.712,-0.7,0.059,0.866,0.037,-0.498,0.485,0.728,-0.485,,,,0.731,0.221,0.646,-0.625,0.469,0.625,,,,0.836,0.057,0.546,-0.436,0.873,0.218,,,,0.938,-0.069,0.339,-0.539,0.647,0.539,,,,0.885,0.085,0.458,-0.894,0.447,0.0,,,,paper
5.394909,-0.071,0.947,0.315,-0.535,0.267,0.802,0.693,-0.715,0.092,0.868,0.04,-0.496,0.426,0.64,-0.64,,,,0.725,0.226,0.65,-0.577,0.577,0.577,,,,0.831,0.065,0.553,-0.316,0.949,0.0,,,,0.935,-0.061,0.348,-0.492,0.615,0.615,,,,0.88,0.085,0.467,-0.857,0.514,-0.0,,,,paper
5.437281,-0.091,0.945,0.313,-0.408,0.408,0.816,0.713,-0.696,0.083,0.865,0.05,-0.499,0.485,0.485,-0.728,,,,0.724,0.236,0.648,-0.696,0.174,0.696,,,,0.832,0.074,0.549,-0.707,0.707,0.0,,,,0.937,-0.051,0.345,-0.615,0.492,0.615,,,,0.881,0.093,0.465,-0.986,0.164,0.0,,,,paper
5.474589,-0.083,0.946,0.313,1.0,0.0,0.0,0.713,-0.696,0.083,0.864,0.051,-0.501,0.302,0.302,-0.905,,,,0.728,0.236,0.644,-0.688,0.229,0.688,,,,0.835,0.073,0.545,-0.894,0.447,-0.0,,,,0.939,-0.06,0.338,-0.707,0.424,0.566,,,,0.882,0.091,0.462,-0.962,0.192,-0.192,,,,paper
5.517185,-0.083,0.946,0.313,0.577,0.577,-0.577,0.717,-0.685,0.129,0.867,0.044,-0.497,0.236,-0.236,-0.943,,,,0.725,0.229,0.649,-0.667,-0.333,0.667,,,,0.832,0.065,0.551,-0.707,-0.0,-0.707,,,,0.937,-0.061,0.345,-0.811,0.324,0.487,,,,0.884,0.087,0.46,-0.913,-0.183,-0.365,,,,paper
5.562488,-0.073,0.946,0.315,0.894,0.0,-0.447,0.717,-0.685,0.129,0.873,0.041,-0.487,0.302,-0.302,-0.905,,,,0.721,0.227,0.655,-0.802,-0.267,0.535,,,,0.829,0.064,0.556,-1.0,-0.0,-0.0,,,,0.934,-0.063,0.35,-0.745,0.298,0.596,,,,0.88,0.083,0.467,-0.949,-0.0,-0.316,,,,paper
5.606987,-0.069,0.949,0.309,-1.0,0.0,0.0,0.717,-0.685,0.129,0.868,0.03,-0.496,0.0,0.316,-0.949,,,,0.729,0.217,0.65,-0.802,0.267,0.535,,,,0.831,0.057,0.553,-0.816,0.408,-0.408,,,,0.936,-0.067,0.345,-0.762,0.457,0.457,,,,0.885,0.084,0.458,-0.98,0.14,-0.14,,,,paper
5.646378,-0.074,0.945,0.318,0.236,-0.236,0.943,0.717,-0.685,0.129,0.869,0.036,-0.494,0.667,0.667,-0.333,,,,0.725,0.223,0.651,-0.802,0.267,0.535,,,,0.83,0.061,0.554,-0.784,0.588,0.196,,,,0.935,-0.064,0.35,-0.667,0.477,0.572,,,,0.883,0.081,0.462,-0.963,0.12,0.241,,,,paper
5.690084,-0.079,0.946,0.313,-0.577,-0.577,0.577,0.717,-0.685,0.129,0.868,0.043,-0.494,0.0,0.832,-0.555,,,,0.723,0.229,0.652,-0.762,0.457,0.457,,,,0.829,0.068,0.555,-0.707,0.707,0.0,,,,0.935,-0.062,0.348,-0.647,0.539,0.539,,,,0.882,0.083,0.463,-0.985,0.123,0.123,,,,paper
5.733927,-0.078,0.947,0.312,-0.577,-0.577,0.577,0.742,-0.666,0.07,0.865,0.046,-0.5,-0.0,0.832,-0.555,,,,0.729,0.228,0.645,-0.87,0.348,0.348,,,,0.836,0.063,0.545,-0.688,0.688,-0.229,,,,0.939,-0.067,0.338,-0.684,0.57,0.456,,,,0.885,0.084,0.458,-0.962,0.275,-0.0,,,,paper
5.776192,-0.083,0.947,0.311,-1.0,0.0,0.0,0.742,-0.666,0.07,0.862,0.047,-0.505,-0.0,0.316,-0.949,,,,0.731,0.231,0.642,-0.802,0.267,0.535,,,,0.835,0.068,0.546,-0.667,0.333,-0.667,,,,0.938,-0.061,0.342,-0.816,0.408,0.408,,,,0.883,0.086,0.461,-0.98,0.14,-0.14,,,,paper
5.820589,-0.078,0.948,0.31,0.707,0.0,-0.707,0.733,-0.677,0.064,0.862,0.042,-0.505,0.0,0.0,-1.0,,,,0.734,0.226,0.641,-0.707,0.0,0.707,,,,0.838,0.06,0.543,-0.577,0.577,-0.577,,,,0.94,-0.069,0.335,-0.762,0.457,0.457,,,,0.886,0.086,0.455,-0.981,0.0,-0.196,,,,paper
5.867119,-0.081,0.946,0.314,-0.894,0.447,-0.0,0.733,-0.677,0.064,0.868,0.042,-0.495,-0.0,0.371,-0.928,,,,0.726,0.227,0.65,-0.667,0.667,0.333,,,,0.831,0.066,0.552,-0.0,0.707,-0.707,,,,0.936,-0.062,0.348,-0.667,0.667,0.333,,,,0.883,0.085,0.462,-0.811,0.324,-0.487,,,,paper
5.906424,-0.074,0.949,0.306,-0.894,0.447,-0.0,0.729,-0.679,0.086,0.866,0.033,-0.499,0.267,0.535,-0.802,,,,0.729,0.221,0.648,-0.743,0.371,0.557,,,,0.832,0.06,0.551,-0.667,0.667,-0.333,,,,0.937,-0.07,0.343,-0.768,0.512,0.384,,,,0.886,0.082,0.457,-0.953,0.272,-0.136,,,,paper
5.949937,-0.074,0.949,0.307,-0.832,0.0,0.555,0.729,-0.679,0.086,0.862,0.032,-0.506,0.485,0.728,-0.485,,,,0.734,0.219,0.643,-0.625,0.469,0.625,,,,0.838,0.054,0.543,-0.436,0.873,0.218,,,,0.937,-0.069,0.341,-0.662,0.53,0.53,,,,0.886,0.082,0.456,-0.911,0.391,0.13,,,,paper
5.995371,-0.074,0.947,0.313,-0.447,0.0,0.894,0.733,-0.678,0.054,0.865,0.035,-0.5,0.485,0.728,-0.485,,,,0.729,0.221,0.648,-0.625,0.469,0.625,,,,0.833,0.06,0.55,-0.535,0.802,0.267,,,,0.937,-0.07,0.343,-0.577,0.577,0.577,,,,0.883,0.08,0.463,-0.949,0.316,0.0,,,,paper
6.037891,-0.071,0.949,0.309,0.949,-0.0,0.316,0.709,-0.705,0.038,0.865,0.041,-0.501,0.555,0.0,-0.832,,,,0.732,0.222,0.644,-0.696,0.174,0.696,,,,0.837,0.057,0.545,-0.816,0.408,0.408,,,,0.939,-0.075,0.336,-0.651,0.391,0.651,,,,0.889,0.075,0.453,-1.0,-0.0,0.0,,,,paper
6.076934,-0.079,0.949,0.306,-0.447,0.894,0.0,0.715,-0.686,0.136,0.861,0.035,-0.507,0.243,0.0,-0.97,,,,0.734,0.224,0.641,-0.707,0.0,0.707,,,,0.836,0.061,0.545,-0.707,0.707,0.0,,,,0.938,-0.067,0.339,-0.667,0.333,0.667,,,,0.886,0.085,0.456,-1.0,-0.0,0.0,,,,paper
6.116999,-0.074,0.949,0.307,0.802,0.535,0.267,0.715,-0.686,0.136,0.865,0.038,-0.5,0.535,0.267,-0.802,,,,0.732,0.222,0.644,-0.507,0.169,0.845,,,,0.837,0.058,0.545,-0.408,0.408,0.816,,,,0.938,-0.07,0.338,-0.512,0.384,0.768,,,,0.891,0.081,0.447,-0.928,0.0,0.371,,,,paper
6.162944,-0.07,0.949,0.309,0.267,0.802,-0.535,0.715,-0.686,0.136,0.861,0.038,-0.508,0.183,-0.365,-0.913,,,,0.729,0.226,0.646,0.183,-0.365,0.913,,,,0.839,0.055,0.542,0.816,-0.408,0.408,,,,0.938,-0.08,0.336,-0.588,0.196,0.784,,,,0.888,0.071,0.454,-0.894,0.447,-0.0,,,,paper
6.201745,-0.07,0.951,0.301,0.267,0.802,-0.535,0.73,-0.675,0.11,0.862,0.035,-0.505,0.123,-0.123,-0.985,,,,0.737,0.217,0.64,0.588,-0.196,0.784,,,,0.84,0.054,0.54,0.832,-0.0,-0.555,,,,0.939,-0.076,0.334,-0.333,0.667,0.667,,,,0.892,0.075,0.445,0.0,0.555,-0.832,,,,paper
6.243343,-0.066,0.952,0.297,-0.381,0.889,-0.254,0.73,-0.675,0.11,0.858,0.032,-0.513,0.217,-0.0,-0.976,,,,0.739,0.215,0.639,0.781,-0.0,0.625,,,,0.84,0.052,0.54,0.913,0.183,-0.365,,,,0.939,-0.077,0.335,0.333,0.667,0.667,,,,0.886,0.079,0.458,0.625,0.625,-0.469,,,,paper
6.285135,-0.069,0.952,0.299,0.636,0.742,-0.212,0.73,-0.675,0.11,0.86,0.03,-0.51,0.389,-0.291,-0.874,,,,0.74,0.215,0.638,0.596,-0.298,0.745,,,,0.84,0.049,0.54,0.845,-0.507,0.169,,,,0.94,-0.079,0.333,0.218,-0.436,0.873,,,,0.889,0.077,0.451,0.832,-0.0,-0.555,,,,paper
6.324082,-0.069,0.952,0.298,0.0,1.0,0.0,0.73,-0.675,0.11,0.856,0.022,-0.516,0.445,-0.089,-0.891,,,,0.745,0.208,0.634,0.625,0.0,0.781,,,,0.843,0.044,0.536,0.937,-0.156,0.312,,,,0.941,-0.088,0.326,0.6,0.0,0.8,,,,0.894,0.075,0.442,0.905,0.302,-0.302,,,,paper
6.368113,-0.069,0.95,0.304,0.085,0.936,0.341,0.73,-0.675,0.11,0.859,0.02,-0.512,0.625,-0.0,-0.781,,,,0.744,0.207,0.636,0.527,0.105,0.843,,,,0.84,0.048,0.54,0.808,0.115,0.577,,,,0.939,-0.081,0.334,0.482,0.241,0.843,,,,0.889,0.081,0.45,0.784,0.196,0.588,,,,paper
6.40732,-0.074,0.953,0.295,0.089,0.891,0.445,0.715,-0.69,0.108,0.855,0.026,-0.517,0.778,0.078,-0.623,,,,0.745,0.21,0.633,0.259,0.173,0.95,,,,0.835,0.063,0.547,0.485,0.485,0.728,,,,0.941,-0.086,0.327,0.309,0.206,0.928,,,,0.893,0.077,0.443,0.507,0.169,0.845,,,,paper
6.449464,-0.074,0.953,0.295,0.089,0.891,0.445,0.686,-0.722,0.09,0.859,0.035,-0.51,0.725,0.198,-0.659,,,,0.743,0.22,0.632,0.484,0.277,0.83,,,,0.844,0.055,0.533,0.686,0.374,0.624,,,,0.946,-0.091,0.311,0.647,0.404,0.647,,,,0.9,0.081,0.429,0.704,0.503,0.503,,,,paper
6.494786,-0.079,0.952,0.296,-0.217,0.921,0.325,0.686,-0.722,0.09,0.85,0.032,-0.526,0.758,0.054,-0.65,,,,0.752,0.213,0.624,0.588,0.107,0.802,,,,0.845,0.051,0.532,0.717,0.205,0.666,,,,0.941,-0.078,0.331,0.692,0.208,0.692,,,,0.888,0.08,0.452,0.864,0.259,0.432,,,,paper
6.537118,-0.074,0.952,0.296,0.169,0.959,0.226,0.686,-0.722,0.09,0.852,0.031,-0.522,0.706,-0.047,-0.706,,,,0.752,0.209,0.625,0.68,0.052,0.732,,,,0.846,0.044,0.532,0.806,-0.0,0.591,,,,0.942,-0.088,0.325,0.791,-0.061,0.609,,,,0.892,0.078,0.445,0.92,0.077,0.383,,,,paper
6.582566,-0.073,0.954,0.292,0.098,0.976,0.195,0.669,-0.738,0.087,0.856,0.026,-0.517,0.726,-0.04,-0.686,,,,0.748,0.211,0.629,0.7,0.14,0.7,,,,0.846,0.041,0.532,0.853,0.0,0.521,,,,0.943,-0.087,0.322,0.847,-0.053,0.529,,,,0.894,0.084,0.441,0.893,0.064,0.446,,,,paper
6.628024,-0.073,0.951,0.299,0.0,0.91,0.414,0.715,-0.69,0.108,0.858,0.032,-0.513,0.778,0.078,-0.623,,,,0.745,0.215,0.631,0.606,0.303,0.736,,,,0.842,0.049,0.537,0.783,0.13,0.609,,,,0.94,-0.081,0.33,0.793,0.047,0.607,,,,0.892,0.082,0.445,0.793,0.226,0.566,,,,paper
6.666595,-0.086,0.948,0.307,0.0,0.91,0.414,0.715,-0.686,0.134,0.859,0.041,-0.51,0.755,0.108,-0.647,,,,0.741,0.224,0.633,0.656,0.287,0.698,,,,0.837,0.061,0.545,0.822,0.087,0.563,,,,0.938,-0.065,0.341,0.817,0.0,0.577,,,,0.885,0.089,0.457,0.812,0.217,0.542,,,,paper
6.709456,-0.093,0.946,0.311,-0.04,0.93,0.364,0.692,-0.718,0.078,0.863,0.05,-0.502,0.772,0.154,-0.617,,,,0.731,0.236,0.64,0.616,0.352,0.704,,,,0.834,0.073,0.547,0.818,0.182,0.545,,,,0.938,-0.057,0.343,0.796,0.1,0.597,,,,0.88,0.098,0.464,0.758,0.292,0.583,,,,paper
6.753497,-0.093,0.946,0.312,-0.046,0.911,0.41,0.692,-0.711,0.129,0.864,0.056,-0.5,0.774,0.163,-0.611,,,,0.732,0.238,0.639,0.597,0.322,0.735,,,,0.832,0.077,0.55,0.802,0.189,0.566,,,,0.937,-0.052,0.346,0.772,0.154,0.617,,,,0.881,0.097,0.463,0.759,0.316,0.569,,,,paper
6.795984,-0.097,0.945,0.313,-0.136,0.904,0.407,0.715,-0.686,0.136,0.866,0.062,-0.496,0.76,0.179,-0.625,,,,0.725,0.247,0.643,0.575,0.366,0.732,,,,0.828,0.085,0.554,0.767,0.219,0.603,,,,0.935,-0.041,0.352,0.725,0.181,0.665,,,,0.876,0.106,0.47,0.745,0.298,0.596,,,,paper
6.838209,-0.093,0.942,0.322,-0.177,0.828,0.532,0.708,-0.689,0.156,0.865,0.065,-0.497,0.798,0.249,-0.549,,,,0.726,0.249,0.641,0.444,0.444,0.778,,,,0.83,0.086,0.551,0.732,0.305,0.61,,,,0.936,-0.045,0.35,0.673,0.306,0.673,,,,0.878,0.104,0.467,0.647,0.404,0.647,,,,paper
6.876092,-0.098,0.94,0.326,-0.248,0.867,0.433,0.708,-0.689,0.156,0.867,0.064,-0.494,0.767,0.219,-0.603,,,,0.722,0.248,0.645,0.499,0.437,0.749,,,,0.826,0.088,0.557,0.776,0.282,0.564,,,,0.933,-0.041,0.357,0.641,0.285,0.712,,,,0.873,0.102,0.476,0.667,0.477,0.572,,,,paper
6.92216,-0.103,0.94,0.325,-0.089,0.891,0.445,0.708,-0.689,0.156,0.869,0.065,-0.49,0.757,0.207,-0.62,,,,0.718,0.251,0.65,0.337,0.421,0.842,,,,0.819,0.098,0.565,0.677,0.29,0.677,,,,0.931,-0.029,0.365,0.505,0.303,0.808,,,,0.869,0.109,0.482,0.457,0.457,0.762,,,,paper
6.959313,-0.102,0.938,0.33,-0.089,0.891,0.445,0.651,-0.755,0.083,0.868,0.069,-0.491,0.677,0.29,-0.677,,,,0.722,0.252,0.644,0.218,0.436,0.873,,,,0.825,0.091,0.558,0.651,0.391,0.651,,,,0.933,-0.038,0.357,0.241,0.482,0.843,,,,0.871,0.103,0.48,-0.0,0.707,0.707,,,,paper
7.00957,-0.098,0.941,0.324,0.267,0.802,0.535,0.663,-0.745,0.077,0.87,0.064,-0.489,0.68,0.272,-0.68,,,,0.72,0.249,0.648,-0.0,0.447,0.894,,,,0.822,0.09,0.562,0.485,0.485,0.728,,,,0.932,-0.038,0.36,-0.137,0.549,0.824,,,,0.873,0.104,0.476,-0.873,0.436,0.218,,,,paper
7.046346,-0.098,0.942,0.321,0.267,0.802,0.535,0.7,-0.702,0.132,0.867,0.06,-0.495,0.436,0.218,-0.873,,,,0.724,0.247,0.645,-0.688,0.229,0.688,,,,0.826,0.085,0.557,-0.577,0.577,0.577,,,,0.933,-0.043,0.356,-0.625,0.469,0.625,,,,0.874,0.098,0.475,-0.986,0.0,-0.164,,,,paper
7.091762,-0.082,0.948,0.308,0.894,-0.0,-0.447,0.66,-0.734,0.16,0.863,0.048,-0.503,-0.0,0.243,-0.97,,,,0.736,0.229,0.637,-0.949,0.0,0.316,,,,0.836,0.065,0.545,-0.577,0.577,-0.577,,,,0.938,-0.063,0.34,-0.811,0.487,0.324,,,,0.883,0.093,0.46,-0.885,0.147,-0.442,,,,paper
7.137973,-0.086,0.948,0.307,0.447,0.0,-0.894,0.67,-0.72,0.184,0.864,0.05,-0.501,-0.0,0.0,-1.0,,,,0.732,0.233,0.64,-0.949,-0.0,0.316,,,,0.833,0.068,0.549,-0.447,0.0,-0.894,,,,0.936,-0.06,0.346,-0.87,0.348,0.348,,,,0.883,0.088,0.461,-0.894,0.0,-0.447,,,,paper
7.176415,-0.083,0.949,0.305,-0.0,-0.243,-0.97,0.682,-0.726,0.09,0.86,0.042,-0.509,-0.365,-0.183,-0.913,,,,0.74,0.225,0.634,-0.667,-0.667,-0.333,,,,0.836,0.062,0.545,-0.236,-0.236,-0.943,,,,0.939,-0.067,0.338,-0.981,0.196,-0.0,,,,0.886,0.088,0.456,-0.768,-0.0,-0.64,,,,paper
7.219181,-0.078,0.95,0.304,0.243,0.0,-0.97,0.682,-0.726,0.09,0.858,0.038,-0.513,-0.312,0.156,-0.937,,,,0.742,0.224,0.632,-0.707,-0.0,-0.707,,,,0.84,0.058,0.54,0.0,0.0,-1.0,,,,0.94,-0.07,0.335,-0.8,0.6,0.0,,,,0.886,0.088,0.455,-0.7,0.14,-0.7,,,,paper
7.261526,-0.082,0.95,0.302,-0.535,0.267,-0.802,0.699,-0.705,0.12,0.859,0.04,-0.51,-0.312,-0.156,-0.937,,,,0.741,0.223,0.633,-0.707,-0.707,-0.0,,,,0.839,0.061,0.541,0.302,-0.302,-0.905,,,,0.939,-0.068,0.337,-0.949,0.316,-0.0,,,,0.889,0.088,0.449,-0.707,0.0,-0.707,,,,paper
7.306151,-0.083,0.95,0.301,0.243,0.0,-0.97,0.699,-0.705,0.12,0.856,0.035,-0.515,-0.302,-0.302,-0.905,,,,0.746,0.221,0.628,-0.447,-0.894,-0.0,,,,0.842,0.056,0.537,0.0,-0.555,-0.832,,,,0.939,-0.069,0.337,-1.0,0.0,-0.0,,,,0.887,0.087,0.453,-0.555,-0.0,-0.832,,,,paper
7.345385,-0.078,0.95,0.301,0.243,0.0,-0.97,0.717,-0.685,0.13,0.859,0.034,-0.511,-0.162,-0.162,-0.973,,,,0.743,0.221,0.631,-0.707,-0.707,0.0,,,,0.84,0.055,0.54,0.302,-0.302,-0.905,,,,0.94,-0.075,0.333,-0.949,0.316,0.0,,,,0.891,0.084,0.447,-0.625,0.0,-0.781,,,,paper
7.387265,-0.082,0.951,0.298,0.154,0.617,-0.772,0.717,-0.685,0.13,0.854,0.034,-0.519,0.0,-0.243,-0.97,,,,0.748,0.22,0.627,0.447,-0.894,0.0,,,,0.841,0.055,0.538,0.485,-0.485,-0.728,,,,0.94,-0.074,0.334,-1.0,-0.0,-0.0,,,,0.889,0.086,0.45,-0.617,-0.154,-0.772,,,,paper
7.432588,-0.089,0.95,0.3,-0.196,0.784,-0.588,0.699,-0.707,0.107,0.857,0.036,-0.515,0.141,-0.0,-0.99,,,,0.746,0.222,0.628,0.707,0.0,0.707,,,,0.842,0.059,0.536,0.707,-0.0,-0.707,,,,0.941,-0.067,0.333,-0.894,0.447,0.0,,,,0.887,0.095,0.452,-0.696,0.174,-0.696,,,,paper
7.471971,-0.089,0.95,0.3,-0.267,0.802,-0.535,0.699,-0.707,0.107,0.855,0.039,-0.518,0.272,-0.136,-0.953,,,,0.747,0.224,0.626,0.0,-0.447,0.894,,,,0.843,0.059,0.534,0.894,-0.447,-0.0,,,,0.942,-0.069,0.328,-0.707,0.0,0.707,,,,0.891,0.095,0.445,-0.873,-0.218,-0.436,,,,paper
7.517815,-0.089,0.952,0.294,-0.0,1.0,0.0,0.701,-0.697,0.153,0.853,0.036,-0.52,0.316,0.0,-0.949,,,,0.748,0.223,0.625,-0.0,0.316,0.949,,,,0.846,0.056,0.531,0.707,0.707,0.0,,,,0.943,-0.068,0.326,-0.485,0.485,0.728,,,,0.892,0.097,0.442,-0.905,0.302,-0.302,,,,paper
7.555756,-0.092,0.95,0.299,-0.0,0.832,0.555,0.701,-0.697,0.153,0.857,0.043,-0.513,0.566,0.424,-0.707,,,,0.745,0.227,0.628,-0.169,0.507,0.845,,,,0.842,0.064,0.536,0.229,0.688,0.688,,,,0.942,-0.063,0.33,-0.137,0.549,0.824,,,,0.89,0.097,0.446,-0.743,0.557,0.371,,,,paper
7.598298,-0.093,0.947,0.307,-0.514,0.514,0.686,0.701,-0.697,0.153,0.856,0.045,-0.514,0.577,0.577,-0.577,,,,0.741,0.23,0.631,-0.298,0.596,0.745,,,,0.838,0.07,0.542,0.0,0.8,0.6,,,,0.939,-0.054,0.34,0.117,0.702,0.702,,,,0.883,0.096,0.46,-0.811,0.487,0.324,,,,paper
7.645483,-0.087,0.952,0.294,-0.218,0.436,0.873,0.708,-0.694,0.131,0.851,0.04,-0.523,0.512,0.384,-0.768,,,,0.75,0.222,0.623,-0.0,0.707,0.707,,,,0.845,0.058,0.532,0.485,0.728,0.485,,,,0.943,-0.07,0.324,0.0,0.707,0.707,,,,0.891,0.091,0.445,-0.707,0.707,0.0,,,,paper
7.687562,-0.087,0.951,0.296,-0.0,0.928,0.371,0.708,-0.694,0.131,0.854,0.044,-0.518,0.549,0.329,-0.768,,,,0.747,0.226,0.625,0.154,0.617,0.772,,,,0.844,0.056,0.533,0.743,0.557,0.371,,,,0.942,-0.071,0.328,0.154,0.617,0.772,,,,0.891,0.087,0.446,-0.316,0.949,0.0,,,,paper
7.731836,-0.086,0.95,0.3,0.0,1.0,0.0,0.707,-0.699,0.105,0.855,0.037,-0.517,0.436,0.218,-0.873,,,,0.744,0.223,0.63,0.408,0.408,0.816,,,,0.841,0.059,0.538,0.873,0.436,0.218,,,,0.941,-0.068,0.333,0.0,0.6,0.8,,,,0.889,0.089,0.449,-0.447,0.894,-0.0,,,,paper
7.777494,-0.09,0.949,0.303,-0.0,0.986,0.164,0.701,-0.699,0.139,0.853,0.038,-0.52,0.505,0.303,-0.808,,,,0.75,0.219,0.625,0.424,0.566,0.707,,,,0.844,0.056,0.534,0.87,0.348,0.348,,,,0.941,-0.07,0.33,0.371,0.557,0.743,,,,0.887,0.092,0.452,0.0,1.0,0.0,,,,paper
7.815446,-0.093,0.949,0.301,-0.0,0.97,0.243,0.701,-0.699,0.139,0.858,0.042,-0.512,0.588,0.196,-0.784,,,,0.742,0.228,0.631,0.408,0.408,0.816,,,,0.84,0.064,0.539,0.811,0.324,0.487,,,,0.94,-0.062,0.336,0.324,0.487,0.811,,,,0.888,0.093,0.45,0.0,0.949,0.316,,,,paper
7.861679,-0.09,0.949,0.301,-0.367,0.855,0.367,0.685,-0.708,0.173,0.855,0.041,-0.517,0.535,0.267,-0.802,,,,0.745,0.226,0.627,0.384,0.512,0.768,,,,0.841,0.063,0.538,0.768,0.512,0.384,,,,0.941,-0.064,0.333,0.469,0.625,0.625,,,,0.887,0.095,0.451,0.0,0.97,0.243,,,,paper
7.898601,-0.086,0.949,0.302,-0.367,0.855,0.367,0.685,-0.708,0.173,0.857,0.041,-0.514,0.616,0.352,-0.704,,,,0.744,0.224,0.629,0.359,0.598,0.717,,,,0.842,0.057,0.537,0.768,0.512,0.384,,,,0.941,-0.069,0.333,0.391,0.651,0.651,,,,0.888,0.091,0.451,0.0,0.894,0.447,,,,paper
7.939725,-0.078,0.953,0.293,-0.318,0.848,0.424,0.692,-0.713,0.113,0.855,0.029,-0.518,0.579,0.331,-0.745,,,,0.748,0.216,0.627,0.329,0.549,0.768,,,,0.842,0.05,0.537,0.728,0.485,0.485,,,,0.941,-0.075,0.33,0.384,0.512,0.768,,,,0.89,0.085,0.448,0.196,0.784,0.588,,,,paper
7.98137,-0.074,0.956,0.283,-0.183,0.913,0.365,0.692,-0.713,0.113,0.849,0.021,-0.527,0.63,0.315,-0.709,,,,0.758,0.204,0.619,0.422,0.527,0.738,,,,0.849,0.038,0.527,0.814,0.349,0.465,,,,0.943,-0.088,0.32,0.527,0.422,0.738,,,,0.897,0.078,0.436,0.371,0.743,0.557,,,,paper
8.02597,-0.066,0.958,0.279,-0.0,0.878,0.479,0.692,-0.713,0.113,0.843,0.008,-0.537,0.754,0.189,-0.629,,,,0.769,0.195,0.609,0.473,0.394,0.788,,,,0.858,0.023,0.513,0.725,0.242,0.645,,,,0.947,-0.104,0.305,0.594,0.254,0.763,,,,0.904,0.072,0.421,0.566,0.424,0.707,,,,paper
8.06508,-0.063,0.959,0.277,-0.099,0.89,0.445,0.692,-0.713,0.113,0.836,0.002,-0.549,0.768,0.144,-0.624,,,,0.775,0.187,0.603,0.509,0.339,0.791,,,,0.862,0.018,0.506,0.752,0.173,0.636,,,,0.948,-0.109,0.298,0.725,0.181,0.665,,,,0.906,0.072,0.416,0.709,0.315,0.63,,,,paper
8.109079,-0.074,0.956,0.285,-0.042,0.925,0.378,0.692,-0.713,0.113,0.842,0.015,-0.539,0.797,0.08,-0.598,,,,0.768,0.201,0.609,0.585,0.27,0.765,,,,0.856,0.029,0.516,0.791,0.093,0.605,,,,0.946,-0.097,0.309,0.799,0.05,0.599,,,,0.9,0.077,0.429,0.808,0.186,0.559,,,,paper
8.148012,-0.074,0.955,0.288,0.0,0.936,0.351,0.642,-0.759,0.108,0.846,0.019,-0.533,0.804,0.0,-0.594,,,,0.764,0.205,0.612,0.654,0.192,0.731,,,,0.854,0.035,0.52,0.8,0.0,0.6,,,,0.945,-0.092,0.313,0.825,-0.043,0.564,,,,0.9,0.081,0.428,0.843,0.105,0.527,,,,paper
8.192334,-0.081,0.953,0.292,-0.0,0.914,0.406,0.67,-0.734,0.109,0.851,0.026,-0.524,0.821,0.063,-0.568,,,,0.754,0.213,0.621,0.625,0.278,0.729,,,,0.848,0.045,0.528,0.787,0.107,0.608,,,,0.944,-0.083,0.319,0.808,0.037,0.588,,,,0.895,0.087,0.438,0.798,0.177,0.576,,,,paper
8.235292,-0.086,0.951,0.298,-0.065,0.905,0.42,0.67,-0.722,0.171,0.854,0.031,-0.52,0.808,0.115,-0.577,,,,0.748,0.217,0.627,0.618,0.325,0.716,,,,0.842,0.055,0.537,0.793,0.132,0.595,,,,0.94,-0.068,0.334,0.819,0.071,0.57,,,,0.886,0.091,0.455,0.769,0.202,0.607,,,,paper
8.280696,-0.087,0.951,0.296,-0.032,0.935,0.354,0.643,-0.741,0.193,0.857,0.042,-0.514,0.811,0.087,-0.579,,,,0.745,0.224,0.629,0.65,0.26,0.715,,,,0.842,0.058,0.537,0.796,0.1,0.597,,,,0.941,-0.069,0.333,0.838,0.0,0.546,,,,0.889,0.085,0.449,0.833,0.198,0.516,,,,paper
8.322091,-0.088,0.952,0.293,-0.063,0.947,0.316,0.643,-0.741,0.193,0.849,0.038,-0.527,0.828,0.027,-0.561,,,,0.758,0.217,0.616,0.655,0.229,0.72,,,,0.849,0.053,0.526,0.814,0.068,0.577,,,,0.944,-0.069,0.323,0.82,-0.036,0.571,,,,0.888,0.095,0.449,0.844,0.121,0.523,,,,paper
8.367332,-0.094,0.95,0.298,0.0,0.949,0.316,0.641,-0.747,0.173,0.849,0.044,-0.526,0.794,0.0,-0.608,,,,0.752,0.23,0.617,0.691,0.21,0.691,,,,0.846,0.065,0.528,0.822,0.032,0.569,,,,0.945,-0.063,0.322,0.84,-0.067,0.538,,,,0.889,0.098,0.448,0.877,0.073,0.475,,,,paper
8.412137,-0.105,0.945,0.31,0.115,0.951,0.288,0.636,-0.753,0.17,0.856,0.061,-0.514,0.772,-0.055,-0.634,,,,0.739,0.247,0.627,0.732,0.122,0.671,,,,0.838,0.085,0.539,0.845,-0.063,0.532,,,,0.94,-0.043,0.338,0.845,-0.169,0.507,,,,0.88,0.109,0.462,0.887,-0.0,0.463,,,,paper
8.452317,-0.119,0.938,0.326,0.091,0.966,0.242,0.61,-0.767,0.199,0.86,0.069,-0.506,0.786,-0.028,-0.618,,,,0.733,0.253,0.631,0.701,0.128,0.701,,,,0.837,0.091,0.539,0.822,-0.032,0.569,,,,0.941,-0.035,0.336,0.85,-0.136,0.51,,,,0.878,0.124,0.462,0.886,0.039,0.462,,,,paper
8.497636,-0.129,0.934,0.333,-0.129,0.937,0.323,0.637,-0.74,0.217,0.863,0.082,-0.498,0.762,0.059,-0.645,,,,0.722,0.271,0.637,0.698,0.266,0.665,,,,0.827,0.112,0.551,0.85,0.065,0.523,,,,0.936,-0.015,0.353,0.873,-0.0,0.489,,,,0.868,0.129,0.479,0.857,0.163,0.489,,,,paper
8.535666,-0.124,0.932,0.339,0.0,0.959,0.284,0.635,-0.756,0.155,0.87,0.089,-0.485,0.737,0.064,-0.673,,,,0.708,0.277,0.649,0.708,0.223,0.67,,,,0.82,0.117,0.56,0.854,0.037,0.52,,,,0.931,-0.01,0.364,0.868,-0.041,0.496,,,,0.865,0.125,0.486,0.858,0.191,0.477,,,,paper
8.578412,-0.114,0.937,0.33,-0.088,0.971,0.221,0.635,-0.756,0.155,0.868,0.074,-0.491,0.707,0.037,-0.707,,,,0.721,0.26,0.642,0.733,0.229,0.641,,,,0.825,0.097,0.557,0.865,0.046,0.501,,,,0.933,-0.029,0.358,0.884,-0.0,0.468,,,,0.87,0.112,0.481,0.889,0.254,0.381,,,,paper
8.62369,-0.092,0.947,0.307,-0.047,0.981,0.187,0.64,-0.748,0.176,0.859,0.037,-0.51,0.705,0.083,-0.705,,,,0.742,0.227,0.631,0.718,0.191,0.67,,,,0.839,0.064,0.541,0.852,0.047,0.521,,,,0.94,-0.06,0.336,0.857,0.0,0.514,,,,0.884,0.101,0.456,0.873,0.218,0.436,,,,paper
8.66912,-0.086,0.952,0.293,-0.199,0.896,0.398,0.631,-0.753,0.185,0.857,0.031,-0.514,0.751,0.209,-0.626,,,,0.748,0.22,0.626,0.663,0.237,0.71,,,,0.841,0.058,0.539,0.802,0.189,0.566,,,,0.942,-0.072,0.328,0.814,0.153,0.56,,,,0.885,0.096,0.455,0.759,0.345,0.552,,,,paper
8.7071,-0.089,0.952,0.294,-0.0,0.853,0.521,0.631,-0.753,0.185,0.854,0.028,-0.519,0.807,0.212,-0.552,,,,0.748,0.221,0.626,0.513,0.327,0.793,,,,0.844,0.055,0.534,0.71,0.237,0.663,,,,0.941,-0.068,0.331,0.741,0.198,0.642,,,,0.889,0.095,0.447,0.638,0.319,0.701,,,,paper
8.751558,-0.096,0.944,0.316,-0.135,0.765,0.63,0.631,-0.753,0.185,0.862,0.041,-0.505,0.821,0.274,-0.502,,,,0.735,0.234,0.636,0.424,0.424,0.8,,,,0.83,0.073,0.553,0.649,0.3,0.699,,,,0.936,-0.053,0.349,0.627,0.289,0.723,,,,0.88,0.097,0.465,0.498,0.311,0.809,,,,paper
8.787245,-0.095,0.942,0.322,-0.198,0.693,0.693,0.615,-0.758,0.218,0.867,0.044,-0.496,0.816,0.384,-0.432,,,,0.728,0.237,0.643,0.249,0.549,0.798,,,,0.828,0.075,0.556,0.548,0.438,0.712,,,,0.934,-0.047,0.353,0.507,0.406,0.761,,,,0.878,0.102,0.468,0.321,0.449,0.834,,,,paper
8.831237,-0.082,0.94,0.33,-0.309,0.619,0.722,0.589,-0.783,0.203,0.873,0.045,-0.486,0.774,0.547,-0.319,,,,0.726,0.233,0.647,0.14,0.652,0.745,,,,0.826,0.07,0.559,0.412,0.67,0.618,,,,0.933,-0.059,0.355,0.439,0.585,0.682,,,,0.879,0.093,0.469,0.173,0.636,0.752,,,,paper
8.877108,-0.063,0.934,0.351,-0.517,0.318,0.795,0.567,-0.792,0.227,0.882,0.027,-0.47,0.698,0.698,-0.164,,,,0.715,0.221,0.663,-0.04,0.764,0.644,,,,0.814,0.064,0.578,0.22,0.791,0.571,,,,0.923,-0.06,0.379,0.279,0.718,0.638,,,,0.867,0.087,0.49,-0.046,0.683,0.729,,,,paper
8.914828,-0.063,0.935,0.348,-0.503,0.155,0.851,0.567,-0.792,0.227,0.888,0.025,-0.459,0.647,0.761,0.038,,,,0.705,0.221,0.674,-0.244,0.767,0.593,,,,0.805,0.065,0.589,0.0,0.826,0.563,,,,0.919,-0.056,0.39,0.069,0.755,0.652,,,,0.865,0.081,0.496,-0.229,0.649,0.725,,,,paper
8.96119,-0.069,0.941,0.333,-0.43,-0.132,0.893,0.567,-0.792,0.227,0.882,0.028,-0.471,0.539,0.809,0.236,,,,0.714,0.222,0.664,-0.398,0.734,0.551,,,,0.812,0.064,0.58,-0.166,0.831,0.532,,,,0.923,-0.061,0.381,-0.059,0.762,0.645,,,,0.867,0.081,0.492,-0.425,0.589,0.687,,,,paper
8.998935,-0.07,0.939,0.338,-0.43,-0.132,0.893,0.533,-0.833,0.147,0.879,0.034,-0.475,0.492,0.819,0.295,,,,0.717,0.224,0.66,-0.461,0.72,0.519,,,,0.816,0.063,0.574,-0.223,0.83,0.511,,,,0.924,-0.062,0.378,-0.114,0.77,0.628,,,,0.868,0.078,0.49,-0.467,0.56,0.684,,,,paper
9.045,-0.067,0.935,0.348,-0.461,-0.231,0.857,0.533,-0.833,0.147,0.889,0.034,-0.457,0.435,0.836,0.334,,,,0.702,0.228,0.675,-0.514,0.743,0.429,,,,0.803,0.07,0.592,-0.284,0.851,0.441,,,,0.916,-0.056,0.397,-0.169,0.788,0.591,,,,0.862,0.066,0.503,-0.515,0.575,0.636,,,,paper
9.084244,-0.052,0.929,0.366,-0.461,-0.231,0.857,0.484,-0.87,0.092,0.893,0.02,-0.45,0.333,0.851,0.407,,,,0.701,0.212,0.681,-0.591,0.715,0.373,,,,0.797,0.054,0.601,-0.369,0.838,0.402,,,,0.91,-0.072,0.409,-0.274,0.791,0.547,,,,0.854,0.051,0.518,-0.62,0.555,0.555,,,,paper
9.12866,-0.036,0.932,0.361,-0.453,-0.494,0.742,0.472,-0.872,0.13,0.897,0.018,-0.442,0.206,0.867,0.454,,,,0.696,0.204,0.689,-0.65,0.686,0.325,,,,0.792,0.048,0.609,-0.42,0.84,0.344,,,,0.906,-0.082,0.415,-0.368,0.803,0.468,,,,0.854,0.037,0.519,-0.721,0.541,0.433,,,,paper
9.175933,-0.023,0.937,0.348,-0.453,-0.494,0.742,0.476,-0.875,0.095,0.891,-0.001,-0.453,0.105,0.843,0.527,,,,0.704,0.19,0.685,-0.771,0.6,0.214,,,,0.797,0.032,0.603,-0.588,0.784,0.196,,,,0.908,-0.093,0.408,-0.503,0.773,0.387,,,,0.86,0.034,0.509,-0.834,0.477,0.278,,,,paper
9.212449,-0.015,0.939,0.343,-0.453,-0.494,0.742,0.476,-0.875,0.095,0.894,-0.012,-0.447,-0.0,0.848,0.53,,,,0.712,0.175,0.68,-0.779,0.615,0.123,,,,0.802,0.017,0.597,-0.602,0.787,0.139,,,,0.909,-0.101,0.403,-0.389,0.816,0.428,,,,0.87,0.032,0.491,-0.805,0.523,0.282,,,,paper
9.258973,-0.007,0.941,0.338,-0.425,-0.691,0.585,0.476,-0.875,0.095,0.892,-0.019,-0.452,-0.053,0.847,0.529,,,,0.709,0.175,0.683,-0.794,0.585,0.167,,,,0.8,0.014,0.6,-0.652,0.745,0.14,,,,0.906,-0.107,0.409,-0.503,0.773,0.387,,,,0.865,0.022,0.502,-0.859,0.45,0.245,,,,paper
9.299035,0.001,0.941,0.337,-0.425,-0.691,0.585,0.424,-0.905,0.047,0.888,-0.031,-0.459,-0.115,0.808,0.577,,,,0.718,0.158,0.678,-0.838,0.529,0.132,,,,0.804,0.0,0.595,-0.679,0.728,0.097,,,,0.907,-0.122,0.402,-0.571,0.734,0.367,,,,0.866,0.012,0.499,-0.889,0.4,0.222,,,,paper
9.342826,0.009,0.941,0.337,-0.226,-0.793,0.566,0.424,-0.905,0.047,0.882,-0.034,-0.471,0.082,0.816,0.572,,,,0.724,0.151,0.673,-0.863,0.465,0.199,,,,0.809,-0.012,0.587,-0.699,0.699,0.155,,,,0.91,-0.138,0.39,-0.606,0.662,0.441,,,,0.874,-0.001,0.487,-0.932,0.311,0.186,,,,paper
9.381696,0.004,0.941,0.338,-0.226,-0.793,0.566,0.417,-0.905,0.081,0.887,-0.041,-0.461,0.0,1.0,0.0,,,,0.72,0.147,0.678,-0.742,0.636,0.212,,,,0.807,-0.014,0.59,-0.496,0.868,-0.0,,,,0.909,-0.137,0.395,-0.579,0.745,0.331,,,,0.868,-0.001,0.497,-0.829,0.552,0.092,,,,paper
9.423186,0.004,0.941,0.337,-0.226,-0.793,0.566,0.391,-0.919,0.056,0.888,-0.042,-0.458,0.408,0.408,-0.816,,,,0.717,0.148,0.681,-0.535,0.267,0.802,,,,0.804,-0.019,0.594,-0.0,0.894,0.447,,,,0.906,-0.147,0.398,-0.514,0.686,0.514,,,,0.871,-0.009,0.492,-0.913,0.365,-0.183,,,,paper
9.465912,0.009,0.94,0.341,0.108,0.755,-0.647,0.417,-0.905,0.081,0.89,-0.039,-0.454,0.105,-0.314,-0.943,,,,0.71,0.155,0.687,0.707,-0.707,0.0,,,,0.794,-0.002,0.608,0.686,-0.514,-0.514,,,,0.899,-0.128,0.418,-0.0,-0.894,-0.447,,,,0.863,-0.011,0.504,0.312,-0.156,-0.937,,,,paper
9.505483,0.004,0.941,0.337,0.424,0.566,-0.707,0.462,-0.882,0.093,0.89,-0.038,-0.454,-0.065,-0.523,-0.85,,,,0.72,0.147,0.678,0.647,-0.74,-0.185,,,,0.808,-0.016,0.589,0.485,-0.728,-0.485,,,,0.909,-0.143,0.391,0.147,-0.885,-0.442,,,,0.873,0.0,0.488,0.504,-0.42,-0.755,,,,paper
9.544418,0.001,0.945,0.327,0.424,0.566,-0.707,0.464,-0.884,0.054,0.881,-0.038,-0.472,-0.049,-0.485,-0.873,,,,0.728,0.15,0.669,0.754,-0.629,-0.189,,,,0.815,-0.012,0.579,0.621,-0.677,-0.395,,,,0.912,-0.135,0.388,0.537,-0.716,-0.447,,,,0.875,0.01,0.484,0.544,-0.423,-0.725,,,,paper
9.590074,-0.016,0.95,0.311,0.264,0.704,-0.66,0.445,-0.894,0.059,0.874,-0.036,-0.485,0.078,-0.507,-0.858,,,,0.739,0.152,0.656,0.839,-0.543,-0.049,,,,0.826,-0.015,0.563,0.733,-0.641,-0.229,,,,0.919,-0.139,0.368,0.543,-0.784,-0.302,,,,0.884,0.018,0.467,0.697,-0.398,-0.597,,,,paper
9.629587,-0.024,0.948,0.316,0.262,0.785,-0.561,0.487,-0.868,0.097,0.875,-0.024,-0.484,0.13,-0.52,-0.844,,,,0.737,0.167,0.655,0.85,-0.526,-0.0,,,,0.824,0.001,0.567,0.748,-0.636,-0.187,,,,0.92,-0.124,0.372,0.585,-0.765,-0.27,,,,0.879,0.028,0.475,0.757,-0.398,-0.518,,,,paper
9.673734,-0.041,0.946,0.321,0.361,0.749,-0.555,0.487,-0.868,0.097,0.873,-0.003,-0.488,0.107,-0.588,-0.802,,,,0.735,0.188,0.652,0.807,-0.59,-0.0,,,,0.829,0.009,0.559,0.7,-0.7,-0.146,,,,0.923,-0.107,0.371,0.51,-0.816,-0.272,,,,0.879,0.041,0.476,0.749,-0.468,-0.468,,,,paper
9.716326,-0.057,0.944,0.323,0.406,0.692,-0.597,0.487,-0.868,0.097,0.865,-0.0,-0.502,0.123,-0.638,-0.76,,,,0.744,0.194,0.639,0.783,-0.621,0.0,,,,0.832,0.031,0.553,0.69,-0.716,-0.106,,,,0.93,-0.099,0.354,0.495,-0.845,-0.204,,,,0.882,0.062,0.468,0.816,-0.421,-0.395,,,,paper
9.761717,-0.072,0.95,0.305,0.419,0.698,-0.581,0.536,-0.831,0.145,0.86,0.009,-0.51,0.233,-0.655,-0.719,,,,0.752,0.197,0.629,0.725,-0.678,0.117,,,,0.84,0.034,0.542,0.633,-0.774,-0.0,,,,0.935,-0.086,0.345,0.506,-0.859,-0.076,,,,0.883,0.077,0.462,0.825,-0.485,-0.291,,,,paper
9.802907,-0.081,0.947,0.311,0.419,0.698,-0.581,0.561,-0.82,0.114,0.871,0.03,-0.49,0.215,-0.623,-0.752,,,,0.734,0.219,0.642,0.772,-0.628,0.097,,,,0.829,0.055,0.557,0.683,-0.73,-0.024,,,,0.931,-0.068,0.36,0.535,-0.829,-0.161,,,,0.876,0.08,0.476,0.796,-0.488,-0.359,,,,paper
9.846056,-0.099,0.944,0.315,0.332,0.73,-0.597,0.509,-0.849,0.139,0.87,0.037,-0.492,0.152,-0.631,-0.761,,,,0.731,0.231,0.643,0.776,-0.631,0.0,,,,0.83,0.063,0.554,0.666,-0.737,-0.119,,,,0.929,-0.051,0.367,0.519,-0.819,-0.246,,,,0.872,0.095,0.48,0.736,-0.491,-0.466,,,,paper
9.885177,-0.111,0.944,0.31,0.407,0.679,-0.611,0.598,-0.779,0.188,0.863,0.048,-0.503,0.089,-0.737,-0.67,,,,0.737,0.239,0.632,0.67,-0.742,-0.024,,,,0.834,0.077,0.547,0.545,-0.83,-0.119,,,,0.933,-0.04,0.358,0.347,-0.907,-0.24,,,,0.876,0.106,0.47,0.615,-0.615,-0.492,,,,paper
9.929578,-0.124,0.948,0.293,0.495,0.566,-0.66,0.574,-0.799,0.18,0.859,0.056,-0.509,-0.0,-0.73,-0.683,,,,0.745,0.247,0.619,0.664,-0.741,-0.102,,,,0.85,0.07,0.523,0.555,-0.807,-0.202,,,,0.944,-0.047,0.327,0.364,-0.869,-0.336,,,,0.889,0.117,0.443,0.551,-0.577,-0.603,,,,paper
9.969341,-0.137,0.949,0.283,0.425,0.575,-0.7,0.59,-0.757,0.28,0.846,0.052,-0.53,-0.028,-0.747,-0.664,,,,0.759,0.245,0.603,0.66,-0.739,-0.132,,,,0.853,0.083,0.515,0.537,-0.818,-0.205,,,,0.946,-0.029,0.324,0.352,-0.879,-0.322,,,,0.89,0.13,0.438,0.504,-0.584,-0.637,,,,paper
10.00902,-0.146,0.95,0.277,0.459,0.561,-0.689,0.59,-0.757,0.28,0.833,0.05,-0.551,-0.078,-0.755,-0.651,,,,0.775,0.241,0.585,0.629,-0.765,-0.137,,,,0.866,0.073,0.495,0.499,-0.841,-0.21,,,,0.954,-0.045,0.296,0.268,-0.894,-0.358,,,,0.894,0.138,0.427,0.471,-0.61,-0.637,,,,paper
10.053294,-0.151,0.951,0.268,0.541,0.541,-0.644,0.59,-0.757,0.28,0.833,0.054,-0.551,-0.027,-0.759,-0.651,,,,0.771,0.252,0.585,0.612,-0.786,-0.087,,,,0.866,0.085,0.493,0.486,-0.857,-0.171,,,,0.956,-0.036,0.291,0.304,-0.912,-0.274,,,,0.898,0.153,0.412,0.525,-0.617,-0.586,,,,paper
10.095653,-0.154,0.951,0.269,0.351,0.662,-0.662,0.59,-0.757,0.28,0.836,0.065,-0.545,-0.0,-0.707,-0.707,,,,0.767,0.26,0.586,0.684,-0.725,-0.081,,,,0.864,0.09,0.495,0.54,-0.809,-0.231,,,,0.958,-0.036,0.285,0.461,-0.838,-0.293,,,,0.901,0.155,0.406,0.576,-0.532,-0.621,,,,paper
10.133504,-0.153,0.95,0.272,0.124,0.742,-0.659,0.59,-0.757,0.28,0.825,0.057,-0.563,0.177,-0.576,-0.798,,,,0.785,0.246,0.568,0.755,-0.647,-0.108,,,,0.875,0.076,0.479,0.682,-0.682,-0.262,,,,0.959,-0.037,0.28,0.583,-0.758,-0.292,,,,0.897,0.156,0.414,0.592,-0.474,-0.652,,,,paper
10.176304,-0.164,0.95,0.266,0.514,0.748,-0.421,0.59,-0.757,0.28,0.821,0.06,-0.568,0.362,-0.588,-0.724,,,,0.783,0.253,0.569,0.758,-0.583,0.292,,,,0.876,0.081,0.475,0.703,-0.703,0.108,,,,0.961,-0.037,0.275,0.595,-0.793,0.132,,,,0.901,0.158,0.403,0.697,-0.627,-0.348,,,,paper
10.220631,-0.164,0.95,0.265,0.29,0.928,-0.232,0.656,-0.668,0.353,0.82,0.066,-0.569,0.487,-0.324,-0.811,,,,0.784,0.258,0.564,0.898,-0.163,0.408,,,,0.877,0.085,0.473,0.92,-0.383,0.077,,,,0.962,-0.035,0.271,0.913,-0.365,0.183,,,,0.902,0.161,0.399,0.909,-0.101,-0.404,,,,paper
10.25567,-0.171,0.949,0.266,-0.062,0.99,-0.124,0.656,-0.668,0.353,0.812,0.058,-0.581,0.603,-0.219,-0.767,,,,0.792,0.253,0.555,0.778,-0.078,0.623,,,,0.883,0.079,0.463,0.899,-0.225,0.375,,,,0.964,-0.035,0.264,0.839,-0.28,0.466,,,,0.903,0.162,0.398,0.992,-0.124,0.0,,,,paper
10.29618,-0.161,0.952,0.259,0.122,0.976,0.183,0.656,-0.668,0.353,0.807,0.06,-0.588,0.625,-0.0,-0.781,,,,0.801,0.249,0.545,0.725,0.198,0.659,,,,0.89,0.071,0.45,0.919,-0.0,0.394,,,,0.968,-0.047,0.247,0.894,-0.0,0.447,,,,0.913,0.155,0.377,0.941,0.282,0.188,,,,paper
10.338311,-0.159,0.959,0.236,-0.192,0.962,0.192,0.672,-0.676,0.302,0.793,0.041,-0.608,0.664,0.041,-0.747,,,,0.815,0.233,0.53,0.776,0.243,0.582,,,,0.904,0.038,0.426,0.903,0.048,0.428,,,,0.971,-0.063,0.233,0.894,-0.0,0.447,,,,0.919,0.153,0.364,0.909,0.26,0.325,,,,paper
10.379641,-0.151,0.961,0.231,-0.152,0.952,0.266,0.672,-0.676,0.302,0.792,0.03,-0.61,0.717,0.137,-0.683,,,,0.819,0.223,0.529,0.709,0.315,0.63,,,,0.899,0.049,0.436,0.865,0.113,0.489,,,,0.971,-0.075,0.225,0.873,0.087,0.48,,,,0.922,0.144,0.36,0.844,0.298,0.447,,,,paper
10.425432,-0.144,0.962,0.232,-0.188,0.908,0.376,0.633,-0.702,0.326,0.788,0.022,-0.615,0.759,0.19,-0.623,,,,0.824,0.215,0.524,0.652,0.386,0.652,,,,0.905,0.031,0.425,0.823,0.206,0.529,,,,0.972,-0.083,0.221,0.85,0.157,0.503,,,,0.924,0.141,0.355,0.783,0.32,0.534,,,,paper
10.467472,-0.149,0.96,0.239,-0.188,0.908,0.376,0.65,-0.695,0.308,0.795,0.031,-0.606,0.795,0.199,-0.574,,,,0.817,0.225,0.53,0.627,0.348,0.697,,,,0.902,0.044,0.429,0.794,0.234,0.561,,,,0.972,-0.077,0.222,0.855,0.171,0.489,,,,0.924,0.141,0.356,0.757,0.324,0.568,,,,paper
10.511583,-0.16,0.958,0.239,-0.243,0.872,0.426,0.65,-0.695,0.308,0.792,0.035,-0.61,0.81,0.197,-0.553,,,,0.824,0.226,0.52,0.648,0.324,0.689,,,,0.909,0.026,0.416,0.788,0.207,0.58,,,,0.972,-0.061,0.229,0.861,0.181,0.476,,,,0.92,0.147,0.363,0.749,0.351,0.562,,,,paper
10.554113,-0.163,0.958,0.235,-0.211,0.882,0.422,0.65,-0.695,0.308,0.788,0.043,-0.614,0.806,0.165,-0.568,,,,0.82,0.235,0.522,0.671,0.355,0.651,,,,0.901,0.061,0.43,0.813,0.213,0.542,,,,0.971,-0.047,0.235,0.869,0.138,0.474,,,,0.922,0.147,0.359,0.786,0.328,0.524,,,,paper
10.59428,-0.161,0.96,0.228,-0.211,0.882,0.422,0.603,-0.735,0.31,0.783,0.033,-0.621,0.823,0.145,-0.549,,,,0.826,0.227,0.516,0.672,0.381,0.635,,,,0.905,0.049,0.423,0.811,0.207,0.547,,,,0.974,-0.069,0.216,0.868,0.116,0.482,,,,0.922,0.146,0.358,0.797,0.286,0.531,,,,paper
10.63986,-0.158,0.961,0.225,-0.163,0.913,0.375,0.588,-0.761,0.274,0.784,0.039,-0.62,0.792,0.155,-0.59,,,,0.824,0.236,0.515,0.703,0.351,0.619,,,,0.904,0.059,0.424,0.831,0.166,0.532,,,,0.974,-0.057,0.219,0.899,0.069,0.432,,,,0.918,0.156,0.364,0.821,0.255,0.511,,,,paper
10.679553,-0.184,0.951,0.247,-0.163,0.913,0.375,0.582,-0.775,0.246,0.795,0.067,-0.603,0.794,0.122,-0.596,,,,0.806,0.269,0.528,0.716,0.325,0.618,,,,0.893,0.089,0.441,0.833,0.15,0.533,,,,0.971,-0.027,0.238,0.893,0.052,0.447,,,,0.909,0.167,0.383,0.836,0.231,0.498,,,,paper
10.723526,-0.19,0.944,0.269,-0.097,0.936,0.339,0.572,-0.75,0.333,0.801,0.081,-0.593,0.785,0.094,-0.612,,,,0.798,0.281,0.534,0.73,0.299,0.614,,,,0.889,0.102,0.447,0.844,0.118,0.523,,,,0.969,-0.016,0.246,0.901,0.017,0.433,,,,0.903,0.177,0.392,0.85,0.199,0.488,,,,paper
10.763123,-0.197,0.941,0.275,-0.113,0.934,0.338,0.549,-0.774,0.314,0.813,0.097,-0.574,0.762,0.109,-0.638,,,,0.78,0.295,0.552,0.745,0.298,0.596,,,,0.877,0.122,0.464,0.856,0.117,0.504,,,,0.964,0.006,0.266,0.908,0.017,0.419,,,,0.893,0.186,0.41,0.869,0.199,0.453,,,,paper
10.808545,-0.204,0.939,0.278,-0.123,0.929,0.35,0.549,-0.774,0.314,0.821,0.104,-0.562,0.774,0.099,-0.626,,,,0.769,0.302,0.563,0.741,0.3,0.6,,,,0.868,0.133,0.478,0.849,0.124,0.513,,,,0.959,0.017,0.282,0.909,0.019,0.417,,,,0.884,0.196,0.424,0.852,0.218,0.476,,,,paper
10.847327,-0.204,0.939,0.278,-0.136,0.912,0.388,0.549,-0.774,0.314,0.825,0.105,-0.556,0.778,0.127,-0.615,,,,0.762,0.306,0.571,0.719,0.311,0.622,,,,0.863,0.14,0.486,0.83,0.135,0.541,,,,0.957,0.021,0.29,0.889,0.062,0.455,,,,0.882,0.194,0.43,0.823,0.245,0.512,,,,paper
10.893191,-0.188,0.941,0.282,-0.136,0.912,0.388,0.484,-0.83,0.278,0.828,0.102,-0.551,0.781,0.185,-0.596,,,,0.76,0.3,0.576,0.687,0.377,0.621,,,,0.863,0.13,0.488,0.822,0.2,0.533,,,,0.957,0.012,0.291,0.876,0.138,0.461,,,,0.885,0.184,0.427,0.799,0.309,0.516,,,,paper
10.931394,-0.185,0.943,0.279,-0.218,0.873,0.436,0.484,-0.83,0.278,0.826,0.083,-0.557,0.786,0.202,-0.584,,,,0.77,0.284,0.572,0.656,0.413,0.632,,,,0.866,0.114,0.486,0.796,0.241,0.555,,,,0.957,-0.003,0.289,0.849,0.175,0.499,,,,0.887,0.179,0.425,0.757,0.336,0.561,,,,paper
10.971145,-0.172,0.947,0.271,-0.24,0.828,0.507,0.426,-0.837,0.344,0.824,0.065,-0.563,0.815,0.24,-0.527,,,,0.778,0.266,0.568,0.595,0.44,0.673,,,,0.869,0.097,0.485,0.739,0.28,0.612,,,,0.957,-0.018,0.29,0.8,0.213,0.56,,,,0.892,0.165,0.422,0.702,0.366,0.611,,,,paper
11.013206,-0.149,0.952,0.268,-0.215,0.778,0.59,0.405,-0.865,0.297,0.828,0.045,-0.56,0.834,0.294,-0.466,,,,0.779,0.248,0.576,0.49,0.49,0.722,,,,0.868,0.081,0.489,0.684,0.316,0.658,,,,0.956,-0.033,0.292,0.727,0.296,0.619,,,,0.896,0.155,0.415,0.604,0.392,0.694,,,,paper
11.051101,-0.142,0.953,0.269,-0.253,0.632,0.733,0.405,-0.865,0.297,0.83,0.033,-0.557,0.838,0.431,-0.335,,,,0.782,0.235,0.578,0.321,0.592,0.74,,,,0.87,0.065,0.489,0.555,0.479,0.681,,,,0.956,-0.05,0.289,0.627,0.426,0.652,,,,0.899,0.143,0.415,0.425,0.482,0.766,,,,paper
11.096947,-0.133,0.954,0.27,-0.287,0.575,0.766,0.339,-0.901,0.27,0.83,0.025,-0.557,0.878,0.427,-0.214,,,,0.78,0.228,0.583,0.215,0.574,0.79,,,,0.867,0.062,0.495,0.463,0.463,0.756,,,,0.953,-0.053,0.299,0.523,0.428,0.737,,,,0.897,0.135,0.42,0.301,0.437,0.847,,,,paper
11.134285,-0.12,0.955,0.271,-0.287,0.575,0.766,0.374,-0.899,0.226,0.835,0.021,-0.549,0.845,0.511,-0.156,,,,0.776,0.225,0.589,0.131,0.633,0.763,,,,0.862,0.058,0.503,0.367,0.573,0.733,,,,0.952,-0.059,0.302,0.463,0.507,0.727,,,,0.898,0.126,0.421,0.218,0.484,0.847,,,,paper
11.174072,-0.111,0.951,0.287,-0.299,0.427,0.854,0.374,-0.899,0.226,0.844,0.024,-0.536,0.839,0.538,-0.086,,,,0.766,0.224,0.602,0.064,0.662,0.747,,,,0.855,0.055,0.516,0.308,0.616,0.725,,,,0.945,-0.06,0.321,0.406,0.555,0.726,,,,0.893,0.114,0.436,0.166,0.497,0.852,,,,paper
11.219761,-0.097,0.955,0.281,-0.351,0.329,0.877,0.27,-0.904,0.331,0.847,0.006,-0.531,0.8,0.6,-0.022,,,,0.767,0.208,0.607,-0.0,0.675,0.738,,,,0.852,0.041,0.522,0.243,0.64,0.729,,,,0.942,-0.073,0.328,0.341,0.598,0.726,,,,0.891,0.102,0.443,0.071,0.52,0.851,,,,paper
11.261475,-0.085,0.957,0.277,-0.329,0.285,0.9,0.268,-0.939,0.214,0.846,-0.009,-0.534,0.779,0.627,0.022,,,,0.772,0.195,0.605,-0.061,0.695,0.716,,,,0.854,0.028,0.52,0.195,0.672,0.715,,,,0.943,-0.09,0.321,0.309,0.619,0.722,,,,0.898,0.088,0.432,0.023,0.528,0.849,,,,paper
11.304149,-0.074,0.959,0.275,-0.358,0.295,0.886,0.297,-0.927,0.229,0.841,-0.018,-0.541,0.777,0.63,0.0,,,,0.78,0.183,0.598,-0.04,0.707,0.707,,,,0.86,0.008,0.51,0.209,0.67,0.712,,,,0.943,-0.11,0.313,0.319,0.618,0.718,,,,0.9,0.076,0.428,0.044,0.533,0.845,,,,paper
11.342924,-0.07,0.957,0.281,-0.358,0.295,0.886,0.234,-0.944,0.232,0.85,-0.017,-0.527,0.766,0.642,-0.041,,,,0.772,0.184,0.608,0.0,0.717,0.697,,,,0.852,0.014,0.523,0.249,0.685,0.685,,,,0.94,-0.104,0.326,0.36,0.639,0.679,,,,0.9,0.071,0.43,0.066,0.574,0.816,,,,paper
11.387746,-0.061,0.956,0.288,-0.394,0.352,0.849,0.234,-0.944,0.232,0.842,-0.03,-0.539,0.786,0.616,-0.043,,,,0.776,0.174,0.607,0.02,0.707,0.707,,,,0.851,0.006,0.525,0.26,0.672,0.694,,,,0.936,-0.112,0.333,0.364,0.606,0.707,,,,0.893,0.062,0.445,0.115,0.551,0.827,,,,paper
11.425269,-0.048,0.957,0.287,-0.274,0.457,0.846,0.234,-0.944,0.232,0.844,-0.032,-0.536,0.84,0.531,-0.111,,,,0.777,0.168,0.607,0.086,0.648,0.756,,,,0.853,-0.006,0.522,0.336,0.583,0.74,,,,0.936,-0.127,0.328,0.433,0.52,0.736,,,,0.898,0.048,0.436,0.195,0.487,0.852,,,,paper
11.469879,-0.037,0.957,0.288,-0.283,0.59,0.756,0.234,-0.944,0.232,0.847,-0.044,-0.53,0.871,0.435,-0.229,,,,0.774,0.157,0.613,0.228,0.592,0.774,,,,0.849,-0.016,0.529,0.453,0.5,0.738,,,,0.932,-0.134,0.336,0.535,0.442,0.721,,,,0.895,0.043,0.445,0.345,0.451,0.823,,,,paper
11.508623,-0.041,0.954,0.297,-0.168,0.673,0.721,0.234,-0.944,0.232,0.859,-0.04,-0.511,0.904,0.325,-0.278,,,,0.76,0.163,0.629,0.306,0.517,0.799,,,,0.836,-0.004,0.549,0.516,0.393,0.761,,,,0.925,-0.122,0.359,0.603,0.337,0.723,,,,0.886,0.043,0.461,0.44,0.357,0.824,,,,paper
11.554838,-0.032,0.95,0.31,-0.099,0.691,0.716,0.02,-0.991,0.133,0.871,-0.032,-0.49,0.888,0.271,-0.37,,,,0.745,0.168,0.646,0.408,0.459,0.79,,,,0.826,-0.001,0.564,0.603,0.314,0.734,,,,0.918,-0.122,0.377,0.656,0.262,0.708,,,,0.877,0.033,0.479,0.543,0.302,0.784,,,,paper
11.592228,-0.033,0.947,0.319,-0.055,0.831,0.554,0.02,-0.991,0.133,0.873,-0.035,-0.486,0.887,0.13,-0.443,,,,0.74,0.164,0.653,0.502,0.307,0.809,,,,0.82,0.001,0.573,0.672,0.14,0.728,,,,0.914,-0.116,0.388,0.719,0.086,0.69,,,,0.873,0.032,0.487,0.663,0.166,0.73,,,,paper
11.635002,-0.032,0.949,0.314,-0.055,0.831,0.554,0.042,-0.992,0.122,0.878,-0.034,-0.477,0.857,-0.0,-0.514,,,,0.734,0.166,0.658,0.614,0.184,0.768,,,,0.814,0.005,0.581,0.737,0.0,0.676,,,,0.912,-0.117,0.394,0.753,-0.065,0.655,,,,0.867,0.032,0.497,0.795,0.038,0.606,,,,paper
11.672196,-0.028,0.95,0.31,0.2,0.933,0.3,0.042,-0.992,0.122,0.876,-0.037,-0.482,0.798,-0.153,-0.583,,,,0.736,0.165,0.656,0.673,0.0,0.74,,,,0.818,0.001,0.575,0.776,-0.169,0.607,,,,0.913,-0.119,0.389,0.783,-0.249,0.57,,,,0.872,0.033,0.488,0.862,-0.123,0.492,,,,paper
11.714711,-0.037,0.949,0.312,0.253,0.949,0.19,0.037,-0.992,0.117,0.873,-0.032,-0.487,0.717,-0.312,-0.623,,,,0.739,0.171,0.651,0.717,-0.137,0.683,,,,0.822,0.005,0.569,0.773,-0.336,0.538,,,,0.917,-0.116,0.381,0.747,-0.411,0.523,,,,0.876,0.033,0.482,0.892,-0.297,0.34,,,,paper
11.752398,-0.042,0.952,0.302,0.408,0.911,-0.063,0.037,-0.992,0.117,0.869,-0.027,-0.494,0.601,-0.45,-0.661,,,,0.747,0.173,0.641,0.773,-0.336,0.538,,,,0.829,0.004,0.559,0.768,-0.501,0.4,,,,0.922,-0.117,0.369,0.712,-0.605,0.356,,,,0.881,0.039,0.471,0.896,-0.428,0.117,,,,paper
11.794934,-0.062,0.952,0.301,0.444,0.888,-0.118,0.055,-0.988,0.144,0.875,-0.002,-0.484,0.425,-0.482,-0.766,,,,0.736,0.196,0.648,0.857,-0.396,0.33,,,,0.825,0.027,0.564,0.826,-0.54,0.159,,,,0.923,-0.097,0.373,0.723,-0.687,0.072,,,,0.88,0.046,0.473,0.907,-0.384,-0.174,,,,paper
11.833283,-0.075,0.948,0.31,0.311,0.82,-0.481,0.055,-0.988,0.144,0.863,-0.0,-0.505,0.261,-0.6,-0.756,,,,0.746,0.201,0.635,0.819,-0.555,0.146,,,,0.83,0.036,0.557,0.721,-0.692,-0.029,,,,0.925,-0.082,0.372,0.579,-0.805,-0.129,,,,0.874,0.064,0.481,0.795,-0.459,-0.397,,,,paper
11.880442,-0.081,0.953,0.293,0.468,0.668,-0.579,0.034,-0.976,0.215,0.86,0.012,-0.51,0.087,-0.694,-0.715,,,,0.754,0.207,0.623,0.763,-0.644,-0.048,,,,0.841,0.037,0.54,0.63,-0.765,-0.135,,,,0.933,-0.082,0.35,0.46,-0.843,-0.281,,,,0.888,0.073,0.454,0.677,-0.532,-0.508,,,,paper
11.917431,-0.079,0.952,0.297,0.369,0.636,-0.677,0.034,-0.976,0.215,0.853,0.001,-0.522,0.02,-0.644,-0.765,,,,0.764,0.198,0.614,0.783,-0.609,-0.13,,,,0.846,0.03,0.532,0.655,-0.719,-0.233,,,,0.936,-0.091,0.34,0.461,-0.807,-0.369,,,,0.89,0.077,0.449,0.668,-0.468,-0.579,,,,paper
11.96381,-0.089,0.952,0.294,0.333,0.648,-0.685,0.083,-0.98,0.179,0.859,0.006,-0.513,-0.038,-0.584,-0.811,,,,0.759,0.204,0.618,0.792,-0.568,-0.223,,,,0.848,0.033,0.529,0.655,-0.695,-0.298,,,,0.94,-0.088,0.33,0.482,-0.745,-0.46,,,,0.893,0.091,0.441,0.667,-0.409,-0.624,,,,paper
12.008065,-0.108,0.954,0.278,0.144,0.636,-0.759,0.083,-0.98,0.179,0.854,0.001,-0.521,-0.079,-0.516,-0.853,,,,0.765,0.202,0.612,0.821,-0.497,-0.281,,,,0.851,0.036,0.523,0.686,-0.624,-0.374,,,,0.942,-0.081,0.326,0.509,-0.694,-0.509,,,,0.893,0.104,0.439,0.669,-0.323,-0.669,,,,paper
12.04706,-0.111,0.954,0.279,0.155,0.665,-0.731,0.083,-0.98,0.179,0.843,0.005,-0.538,-0.086,-0.497,-0.864,,,,0.77,0.212,0.602,0.825,-0.485,-0.291,,,,0.857,0.045,0.513,0.701,-0.607,-0.374,,,,0.944,-0.066,0.322,0.521,-0.677,-0.521,,,,0.892,0.118,0.436,0.679,-0.277,-0.679,,,,paper
12.086659,-0.122,0.952,0.281,0.188,0.633,-0.751,0.194,-0.941,0.279,0.835,0.028,-0.55,-0.068,-0.543,-0.837,,,,0.773,0.231,0.591,0.809,-0.531,-0.253,,,,0.862,0.061,0.503,0.688,-0.639,-0.344,,,,0.948,-0.051,0.313,0.458,-0.727,-0.512,,,,0.89,0.128,0.437,0.652,-0.339,-0.678,,,,paper
12.130665,-0.145,0.95,0.276,0.304,0.56,-0.771,0.197,-0.957,0.214,0.828,0.035,-0.56,-0.116,-0.603,-0.789,,,,0.783,0.241,0.573,0.751,-0.596,-0.285,,,,0.871,0.066,0.486,0.608,-0.71,-0.355,,,,0.956,-0.048,0.289,0.388,-0.775,-0.498,,,,0.9,0.14,0.414,0.58,-0.396,-0.712,,,,paper
12.176479,-0.151,0.956,0.253,0.254,0.624,-0.739,0.267,-0.93,0.254,0.806,0.03,-0.591,-0.114,-0.592,-0.798,,,,0.804,0.232,0.548,0.762,-0.584,-0.279,,,,0.889,0.053,0.455,0.628,-0.701,-0.338,,,,0.965,-0.065,0.252,0.419,-0.759,-0.498,,,,0.913,0.144,0.382,0.597,-0.39,-0.701,,,,paper
12.595038,-0.148,0.958,0.247,0.254,0.624,-0.739,0.248,-0.944,0.215,0.798,0.018,-0.603,-0.047,-0.538,-0.842,,,,0.814,0.222,0.537,0.825,-0.516,-0.232,,,,0.895,0.042,0.444,0.712,-0.638,-0.294,,,,0.967,-0.062,0.248,0.515,-0.705,-0.488,,,,0.917,0.147,0.37,0.67,-0.321,-0.67,,,,paper
12.596904,-0.156,0.96,0.232,0.217,0.748,-0.627,0.263,-0.929,0.261,0.798,0.024,-0.602,0.071,-0.548,-0.834,,,,0.811,0.23,0.537,0.843,-0.536,-0.051,,,,0.902,0.026,0.431,0.762,-0.639,-0.098,,,,0.967,-0.057,0.249,0.553,-0.727,-0.407,,,,0.913,0.146,0.38,0.725,-0.363,-0.586,,,,paper
12.597048,-0.159,0.957,0.241,0.233,0.749,-0.62,0.281,-0.934,0.222,0.803,0.027,-0.595,0.102,-0.534,-0.839,,,,0.807,0.236,0.541,0.859,-0.51,-0.054,,,,0.894,0.055,0.445,0.801,-0.594,-0.077,,,,0.969,-0.056,0.242,0.563,-0.751,-0.344,,,,0.915,0.162,0.37,0.769,-0.369,-0.523,,,,paper
12.597177,-0.171,0.956,0.237,0.201,0.832,-0.517,0.281,-0.934,0.222,0.796,0.036,-0.605,0.199,-0.427,-0.882,,,,0.813,0.24,0.531,0.935,-0.354,0.032,,,,0.897,0.063,0.438,0.859,-0.509,-0.064,,,,0.97,-0.044,0.238,0.736,-0.62,-0.271,,,,0.913,0.177,0.366,0.879,-0.256,-0.403,,,,paper
12.597314,-0.191,0.948,0.254,0.066,0.953,-0.296,0.311,-0.901,0.302,0.804,0.059,-0.592,0.4,-0.3,-0.866,,,,0.802,0.262,0.537,0.958,-0.16,0.239,,,,0.892,0.082,0.444,0.93,-0.349,0.116,,,,0.969,-0.021,0.246,0.903,-0.428,0.048,,,,0.903,0.192,0.384,0.97,-0.146,-0.194,,,,paper
12.597447,-0.209,0.942,0.262,0.066,0.953,-0.296,0.297,-0.93,0.217,0.803,0.077,-0.591,0.454,-0.206,-0.867,,,,0.793,0.285,0.539,0.932,-0.0,0.362,,,,0.886,0.105,0.451,0.948,-0.249,0.2,,,,0.967,0.001,0.254,0.94,-0.294,0.176,,,,0.898,0.2,0.392,0.998,-0.0,-0.067,,,,paper
12.597566,-0.214,0.948,0.237,0.184,0.983,-0.0,0.297,-0.93,0.217,0.79,0.08,-0.608,0.613,-0.236,-0.754,,,,0.805,0.281,0.522,0.816,-0.125,0.565,,,,0.896,0.102,0.432,0.873,-0.312,0.374,,,,0.972,-0.003,0.235,0.841,-0.382,0.382,,,,0.904,0.206,0.374,0.976,-0.195,0.098,,,,paper
12.598384,-0.216,0.945,0.244,0.0,0.966,0.258,0.284,-0.921,0.266,0.787,0.089,-0.61,0.677,-0.104,-0.729,,,,0.805,0.29,0.517,0.733,0.133,0.667,,,,0.897,0.109,0.427,0.867,-0.062,0.495,,,,0.973,0.005,0.232,0.841,-0.076,0.535,,,,0.901,0.213,0.379,0.943,0.105,0.314,,,,paper
12.59852,-0.23,0.938,0.258,0.215,0.933,0.287,0.284,-0.921,0.266,0.799,0.098,-0.593,0.793,-0.0,-0.61,,,,0.792,0.304,0.53,0.442,0.147,0.885,,,,0.887,0.127,0.443,0.707,0.0,0.707,,,,0.969,0.024,0.248,0.614,0.0,0.789,,,,0.894,0.222,0.39,0.442,0.147,0.885,,,,paper
12.598649,-0.229,0.939,0.257,0.0,0.651,0.759,0.284,-0.921,0.266,0.79,0.096,-0.606,0.854,0.085,-0.513,,,,0.801,0.298,0.52,0.173,0.259,0.95,,,,0.894,0.117,0.433,0.518,0.207,0.83,,,,0.971,0.01,0.238,0.302,0.302,0.905,,,,0.899,0.213,0.382,-0.183,0.365,0.913,,,,paper
12.636351,-0.204,0.95,0.237,0.0,0.651,0.759,0.304,-0.919,0.251,0.789,0.072,-0.61,0.788,0.473,-0.394,,,,0.813,0.27,0.515,0.078,0.623,0.778,,,,0.902,0.089,0.422,0.426,0.596,0.681,,,,0.975,-0.014,0.221,0.228,0.608,0.76,,,,0.909,0.208,0.361,-0.108,0.647,0.755,,,,paper
12.673395,-0.194,0.954,0.23,-0.398,0.341,0.852,0.304,-0.919,0.251,0.779,0.053,-0.625,0.812,0.542,-0.217,,,,0.825,0.255,0.505,-0.0,0.631,0.776,,,,0.909,0.069,0.41,0.272,0.653,0.707,,,,0.977,-0.034,0.211,0.279,0.605,0.745,,,,0.916,0.195,0.352,-0.061,0.609,0.791,,,,paper
13.107102,-0.184,0.957,0.223,-0.361,0.401,0.842,0.304,-0.919,0.251,0.781,0.046,-0.623,0.755,0.636,-0.159,,,,0.827,0.248,0.504,0.037,0.707,0.707,,,,0.909,0.062,0.411,0.351,0.662,0.662,,,,0.976,-0.042,0.212,0.357,0.642,0.678,,,,0.92,0.182,0.347,0.044,0.613,0.789,,,,paper
13.107322,-0.188,0.961,0.201,-0.39,0.426,0.816,0.235,-0.945,0.228,0.755,0.044,-0.654,0.816,0.51,-0.272,,,,0.848,0.237,0.475,0.193,0.644,0.74,,,,0.925,0.043,0.377,0.471,0.571,0.672,,,,0.982,-0.067,0.175,0.518,0.518,0.68,,,,0.931,0.17,0.322,0.27,0.578,0.77,,,,paper
13.107495,-0.171,0.971,0.167,-0.39,0.426,0.816,0.254,-0.934,0.251,0.729,0.015,-0.684,0.823,0.349,-0.449,,,,0.872,0.205,0.446,0.464,0.515,0.721,,,,0.945,-0.022,0.326,0.657,0.272,0.703,,,,0.984,-0.1,0.147,0.783,0.313,0.537,,,,0.94,0.154,0.305,0.573,0.482,0.663,,,,paper
13.10764,-0.152,0.976,0.153,-0.207,0.851,0.483,0.246,-0.921,0.301,0.716,-0.009,-0.698,0.824,0.161,-0.543,,,,0.887,0.178,0.425,0.638,0.361,0.68,,,,0.944,-0.017,0.329,0.772,0.154,0.617,,,,0.984,-0.129,0.123,0.855,0.117,0.505,,,,0.952,0.14,0.273,0.771,0.313,0.554,,,,paper
13.107776,-0.138,0.981,0.134,-0.207,0.851,0.483,0.21,-0.946,0.248,0.697,-0.039,-0.716,0.806,0.058,-0.59,,,,0.89,0.16,0.426,0.73,0.229,0.644,,,,0.95,-0.055,0.307,0.822,0.057,0.567,,,,0.982,-0.153,0.113,0.897,0.015,0.441,,,,0.958,0.127,0.256,0.852,0.2,0.484,,,,paper
13.107897,-0.132,0.98,0.148,-0.103,0.941,0.321,0.197,-0.946,0.258,0.714,-0.023,-0.7,0.806,0.069,-0.587,,,,0.882,0.162,0.443,0.772,0.222,0.596,,,,0.937,-0.029,0.349,0.851,0.035,0.524,,,,0.98,-0.132,0.151,0.91,-0.049,0.412,,,,0.948,0.127,0.29,0.87,0.156,0.468,,,,paper
13.108018,-0.151,0.97,0.188,-0.032,0.947,0.319,0.197,-0.946,0.258,0.755,-0.013,-0.655,0.806,0.031,-0.592,,,,0.859,0.189,0.477,0.763,0.201,0.614,,,,0.925,0.003,0.381,0.83,0.021,0.557,,,,0.979,-0.097,0.177,0.899,-0.065,0.433,,,,0.94,0.152,0.305,0.858,0.127,0.498,,,,paper
13.108875,-0.182,0.96,0.212,-0.12,0.903,0.412,0.197,-0.946,0.258,0.776,0.025,-0.63,0.829,0.089,-0.553,,,,0.83,0.238,0.505,0.709,0.278,0.648,,,,0.908,0.063,0.415,0.807,0.102,0.582,,,,0.977,-0.042,0.21,0.896,-0.0,0.443,,,,0.916,0.187,0.354,0.814,0.187,0.55,,,,paper
13.109007,-0.219,0.942,0.253,-0.103,0.875,0.473,0.075,-0.977,0.199,0.802,0.092,-0.59,0.839,0.16,-0.52,,,,0.793,0.304,0.528,0.662,0.352,0.662,,,,0.895,0.114,0.431,0.784,0.178,0.595,,,,0.972,0.013,0.237,0.864,0.095,0.495,,,,0.903,0.214,0.372,0.767,0.256,0.589,,,,paper
13.109132,-0.231,0.936,0.265,-0.221,0.841,0.494,0.075,-0.977,0.199,0.798,0.11,-0.593,0.83,0.223,-0.511,,,,0.784,0.323,0.531,0.637,0.417,0.648,,,,0.883,0.143,0.447,0.773,0.243,0.586,,,,0.963,0.046,0.265,0.859,0.158,0.486,,,,0.879,0.227,0.419,0.735,0.308,0.604,,,,paper
13.141394,-0.21,0.941,0.266,-0.187,0.83,0.526,-0.017,-0.98,0.197,0.824,0.088,-0.56,0.854,0.242,-0.461,,,,0.773,0.296,0.561,0.58,0.435,0.689,,,,0.872,0.123,0.474,0.722,0.269,0.637,,,,0.96,0.02,0.28,0.807,0.202,0.555,,,,0.889,0.204,0.41,0.675,0.325,0.662,,,,paper
13.186554,-0.148,0.956,0.253,-0.282,0.691,0.666,-0.032,-0.992,0.124,0.815,0.022,-0.579,0.867,0.339,-0.364,,,,0.792,0.241,0.56,0.464,0.515,0.721,,,,0.878,0.069,0.474,0.635,0.376,0.674,,,,0.957,-0.028,0.287,0.724,0.303,0.619,,,,0.894,0.166,0.416,0.558,0.377,0.739,,,,paper
13.617173,-0.134,0.959,0.251,-0.221,0.663,0.715,-0.145,-0.982,0.125,0.826,-0.0,-0.564,0.889,0.392,-0.235,,,,0.788,0.219,0.575,0.315,0.565,0.762,,,,0.872,0.049,0.487,0.516,0.45,0.728,,,,0.954,-0.048,0.296,0.617,0.389,0.684,,,,0.9,0.145,0.412,0.422,0.394,0.816,,,,paper
13.617329,-0.1,0.962,0.255,-0.257,0.437,0.862,-0.167,-0.985,0.052,0.833,-0.02,-0.554,0.862,0.494,-0.114,,,,0.789,0.193,0.583,0.175,0.638,0.75,,,,0.87,0.018,0.492,0.392,0.556,0.733,,,,0.95,-0.081,0.301,0.503,0.503,0.704,,,,0.903,0.119,0.413,0.28,0.466,0.839,,,,paper
13.617482,-0.089,0.949,0.302,-0.319,0.39,0.863,-0.198,-0.973,0.114,0.86,-0.004,-0.51,0.819,0.57,-0.059,,,,0.758,0.21,0.617,0.093,0.698,0.71,,,,0.846,0.036,0.531,0.322,0.633,0.704,,,,0.937,-0.067,0.343,0.448,0.577,0.683,,,,0.888,0.1,0.449,0.175,0.514,0.84,,,,paper
13.617608,-0.088,0.946,0.312,-0.41,0.316,0.855,-0.251,-0.968,0.0,0.876,0.0,-0.483,0.755,0.656,0.0,,,,0.731,0.224,0.645,0.0,0.748,0.664,,,,0.821,0.061,0.568,0.249,0.709,0.66,,,,0.921,-0.038,0.389,0.363,0.665,0.653,,,,0.865,0.095,0.492,0.064,0.574,0.816,,,,paper
13.617754,-0.073,0.954,0.291,-0.37,0.071,0.926,-0.251,-0.968,0.0,0.864,-0.013,-0.503,0.707,0.693,0.139,,,,0.746,0.207,0.633,-0.144,0.744,0.653,,,,0.832,0.04,0.553,0.096,0.744,0.661,,,,0.925,-0.062,0.374,0.225,0.702,0.676,,,,0.873,0.08,0.482,-0.085,0.566,0.82,,,,paper
13.617892,-0.057,0.955,0.291,-0.397,0.046,0.917,-0.251,-0.968,0.0,0.859,-0.029,-0.511,0.663,0.723,0.196,,,,0.76,0.183,0.623,-0.213,0.752,0.624,,,,0.844,0.005,0.537,0.044,0.77,0.637,,,,0.93,-0.099,0.353,0.172,0.731,0.66,,,,0.887,0.057,0.459,-0.168,0.564,0.808,,,,paper
13.618013,-0.03,0.954,0.298,-0.349,0.055,0.936,-0.352,-0.936,-0.022,0.851,-0.059,-0.521,0.684,0.702,0.198,,,,0.763,0.156,0.627,-0.256,0.717,0.649,,,,0.834,-0.015,0.551,-0.0,0.742,0.67,,,,0.92,-0.112,0.377,0.102,0.712,0.695,,,,0.876,0.03,0.481,-0.203,0.517,0.831,,,,paper
13.619011,-0.003,0.952,0.305,-0.237,0.043,0.97,-0.414,-0.907,-0.077,0.879,-0.066,-0.473,0.686,0.686,0.243,,,,0.744,0.138,0.654,-0.306,0.693,0.653,,,,0.821,-0.037,0.57,-0.065,0.737,0.672,,,,0.912,-0.144,0.383,0.04,0.707,0.707,,,,0.882,0.0,0.47,-0.261,0.5,0.826,,,,paper
13.619144,0.032,0.951,0.309,-0.498,0.052,0.865,-0.414,-0.907,-0.077,0.868,-0.107,-0.486,0.655,0.737,0.164,,,,0.75,0.099,0.654,-0.276,0.728,0.628,,,,0.81,-0.065,0.583,-0.027,0.759,0.651,,,,0.896,-0.165,0.413,0.075,0.73,0.679,,,,0.865,-0.031,0.5,-0.277,0.527,0.804,,,,paper
13.619269,0.041,0.952,0.304,-0.498,0.052,0.865,-0.435,-0.896,-0.088,0.876,-0.101,-0.472,0.845,0.516,0.141,,,,0.739,0.102,0.666,-0.276,0.551,0.787,,,,0.805,-0.076,0.588,-0.045,0.585,0.81,,,,0.89,-0.186,0.416,-0.0,0.573,0.819,,,,0.869,-0.061,0.491,-0.356,0.356,0.864,,,,paper
13.644045,0.036,0.952,0.303,0.596,0.745,0.298,-0.439,-0.893,-0.099,0.865,-0.115,-0.489,0.953,-0.095,-0.286,,,,0.752,0.092,0.652,-0.0,-0.0,1.0,,,,0.813,-0.082,0.576,0.216,-0.108,0.97,,,,0.896,-0.186,0.404,-0.0,0.0,1.0,,,,0.872,-0.043,0.488,-0.324,-0.487,0.811,,,,paper
13.688242,0.018,0.953,0.302,0.796,0.428,-0.428,-0.457,-0.886,-0.077,0.875,-0.103,-0.472,0.426,-0.669,-0.609,,,,0.744,0.107,0.66,0.408,-0.816,0.408,,,,0.814,-0.072,0.577,0.402,-0.884,0.241,,,,0.899,-0.169,0.404,0.116,-0.93,0.349,,,,0.878,-0.029,0.478,0.199,-0.896,-0.398,,,,paper
14.127069,0.001,0.947,0.322,0.551,0.451,-0.702,-0.434,-0.899,-0.056,0.894,-0.074,-0.443,-0.104,-0.729,-0.677,,,,0.721,0.134,0.68,0.439,-0.878,-0.188,,,,0.793,-0.029,0.608,0.286,-0.915,-0.286,,,,0.893,-0.142,0.428,-0.072,-0.931,-0.358,,,,0.862,-0.017,0.507,0.167,-0.669,-0.724,,,,paper
14.127206,-0.008,0.949,0.314,0.443,0.136,-0.886,-0.434,-0.899,-0.056,0.886,-0.057,-0.46,-0.45,-0.727,-0.519,,,,0.727,0.15,0.67,0.295,-0.847,-0.442,,,,0.802,-0.023,0.596,0.109,-0.833,-0.543,,,,0.898,-0.133,0.42,-0.201,-0.803,-0.562,,,,0.863,-0.012,0.504,0.066,-0.561,-0.825,,,,paper
14.127342,-0.034,0.952,0.305,0.374,0.066,-0.925,-0.434,-0.899,-0.056,0.865,-0.052,-0.499,-0.556,-0.677,-0.483,,,,0.75,0.161,0.642,0.291,-0.777,-0.558,,,,0.828,-0.019,0.56,0.095,-0.782,-0.616,,,,0.913,-0.108,0.394,-0.13,-0.727,-0.675,,,,0.878,0.022,0.478,0.069,-0.483,-0.873,,,,paper
14.127466,-0.064,0.957,0.283,0.364,0.091,-0.927,-0.395,-0.917,-0.052,0.856,-0.048,-0.514,-0.561,-0.701,-0.441,,,,0.767,0.162,0.622,0.261,-0.784,-0.563,,,,0.843,-0.01,0.538,0.059,-0.789,-0.611,,,,0.928,-0.11,0.356,-0.206,-0.742,-0.639,,,,0.888,0.054,0.456,0.078,-0.507,-0.858,,,,paper
14.127597,-0.063,0.958,0.281,0.433,-0.018,-0.901,-0.358,-0.933,0.026,0.854,-0.046,-0.518,-0.577,-0.726,-0.373,,,,0.77,0.17,0.615,0.228,-0.816,-0.531,,,,0.846,-0.006,0.534,0.018,-0.809,-0.588,,,,0.929,-0.101,0.356,-0.235,-0.744,-0.626,,,,0.885,0.063,0.462,0.0,-0.525,-0.851,,,,paper
14.127732,-0.065,0.959,0.275,0.433,-0.018,-0.901,-0.342,-0.94,-0.002,0.848,-0.06,-0.527,-0.633,-0.71,-0.307,,,,0.761,0.172,0.625,0.18,-0.845,-0.503,,,,0.851,-0.013,0.525,-0.109,-0.764,-0.636,,,,0.932,-0.099,0.349,-0.379,-0.682,-0.625,,,,0.892,0.074,0.446,-0.089,-0.536,-0.84,,,,paper
14.127856,-0.057,0.962,0.266,0.466,-0.233,-0.854,-0.278,-0.959,0.06,0.845,-0.072,-0.53,-0.663,-0.725,-0.186,,,,0.786,0.144,0.601,0.02,-0.864,-0.503,,,,0.856,-0.028,0.517,-0.242,-0.725,-0.645,,,,0.937,-0.129,0.326,-0.52,-0.644,-0.561,,,,0.904,0.061,0.423,-0.211,-0.555,-0.804,,,,paper
14.128916,-0.05,0.969,0.242,0.409,-0.237,-0.882,-0.236,-0.972,0.011,0.822,-0.082,-0.564,-0.685,-0.707,-0.177,,,,0.801,0.137,0.583,-0.063,-0.821,-0.568,,,,0.866,-0.044,0.497,-0.272,-0.711,-0.648,,,,0.939,-0.139,0.315,-0.527,-0.632,-0.569,,,,0.908,0.055,0.415,-0.22,-0.559,-0.799,,,,paper
14.129047,-0.07,0.968,0.239,0.528,-0.215,-0.821,-0.236,-0.972,0.011,0.819,-0.078,-0.568,-0.556,-0.822,-0.121,,,,0.811,0.141,0.568,-0.107,-0.853,-0.512,,,,0.875,-0.042,0.482,-0.331,-0.745,-0.579,,,,0.947,-0.137,0.292,-0.573,-0.658,-0.488,,,,0.917,0.072,0.393,-0.241,-0.601,-0.762,,,,paper
14.12917,-0.079,0.969,0.234,0.575,-0.287,-0.766,-0.206,-0.977,0.048,0.814,-0.064,-0.578,-0.578,-0.814,-0.053,,,,0.818,0.15,0.555,-0.191,-0.858,-0.477,,,,0.883,-0.036,0.467,-0.356,-0.759,-0.545,,,,0.951,-0.131,0.279,-0.601,-0.673,-0.432,,,,0.918,0.079,0.388,-0.292,-0.63,-0.72,,,,paper
14.150407,-0.101,0.967,0.234,0.564,-0.282,-0.776,-0.174,-0.979,0.108,0.811,-0.043,-0.583,-0.654,-0.755,-0.05,,,,0.818,0.169,0.55,-0.171,-0.855,-0.489,,,,0.885,-0.016,0.465,-0.362,-0.749,-0.555,,,,0.954,-0.114,0.278,-0.604,-0.652,-0.459,,,,0.92,0.089,0.382,-0.297,-0.616,-0.73,,,,paper
14.190458,-0.108,0.967,0.232,0.498,-0.274,-0.822,-0.174,-0.979,0.108,0.8,-0.051,-0.597,-0.68,-0.732,-0.052,,,,0.827,0.165,0.537,-0.132,-0.87,-0.475,,,,0.892,-0.019,0.452,-0.325,-0.75,-0.575,,,,0.958,-0.112,0.264,-0.598,-0.65,-0.468,,,,0.92,0.107,0.378,-0.289,-0.601,-0.745,,,,paper
14.637292,-0.117,0.961,0.251,0.612,-0.25,-0.751,-0.174,-0.979,0.108,0.819,-0.022,-0.574,-0.634,-0.772,-0.028,,,,0.8,0.201,0.565,-0.194,-0.888,-0.416,,,,0.877,0.019,0.481,-0.392,-0.757,-0.522,,,,0.951,-0.075,0.298,-0.654,-0.654,-0.381,,,,0.904,0.116,0.411,-0.362,-0.646,-0.672,,,,paper
14.637432,-0.136,0.957,0.255,0.602,-0.301,-0.739,-0.099,-0.981,0.166,0.83,-0.006,-0.557,-0.749,-0.642,0.161,,,,0.793,0.213,0.571,-0.381,-0.788,-0.483,,,,0.872,0.036,0.488,-0.535,-0.633,-0.56,,,,0.952,-0.059,0.301,-0.788,-0.493,-0.369,,,,0.905,0.132,0.405,-0.519,-0.543,-0.661,,,,paper
14.63757,-0.139,0.958,0.25,0.602,-0.301,-0.739,-0.066,-0.983,0.172,0.832,-0.008,-0.555,-0.883,-0.347,0.315,,,,0.795,0.211,0.569,-0.66,-0.517,-0.545,,,,0.878,0.032,0.478,-0.726,-0.307,-0.615,,,,0.956,-0.061,0.286,-0.921,-0.14,-0.363,,,,0.906,0.153,0.395,-0.745,-0.308,-0.591,,,,paper
14.637694,-0.158,0.951,0.267,0.074,-0.992,-0.099,-0.066,-0.983,0.172,0.841,0.016,-0.541,-0.762,0.091,0.64,,,,0.777,0.237,0.583,-0.924,-0.128,-0.359,,,,0.861,0.069,0.503,-0.905,0.103,-0.414,,,,0.948,-0.025,0.319,-0.956,0.239,-0.167,,,,0.889,0.16,0.43,-0.948,-0.045,-0.316,,,,paper
14.63784,-0.178,0.944,0.279,0.0,-0.997,-0.071,-0.066,-0.983,0.172,0.849,0.047,-0.526,-0.68,0.213,0.701,,,,0.758,0.268,0.594,-0.943,0.018,-0.333,,,,0.851,0.104,0.515,-0.909,0.223,-0.352,,,,0.943,0.011,0.333,-0.936,0.336,-0.106,,,,0.877,0.173,0.448,-0.97,0.035,-0.242,,,,paper
14.63796,-0.207,0.937,0.282,-0.013,-0.998,-0.054,-0.108,-0.987,0.117,0.841,0.085,-0.535,-0.663,0.237,0.71,,,,0.76,0.299,0.577,-0.938,0.029,-0.346,,,,0.852,0.137,0.504,-0.906,0.245,-0.345,,,,0.945,0.041,0.325,-0.927,0.354,-0.123,,,,0.87,0.195,0.453,-0.975,0.041,-0.217,,,,paper
14.638081,-0.236,0.927,0.291,-0.079,-0.992,-0.101,-0.108,-0.987,0.117,0.843,0.122,-0.525,-0.703,0.251,0.665,,,,0.746,0.337,0.575,-0.92,0.047,-0.389,,,,0.85,0.17,0.499,-0.889,0.246,-0.386,,,,0.943,0.076,0.324,-0.917,0.362,-0.17,,,,0.859,0.219,0.462,-0.964,0.067,-0.258,,,,paper
14.639132,-0.248,0.927,0.28,-0.079,-0.992,-0.101,-0.018,-0.974,0.227,0.817,0.131,-0.561,-0.724,0.196,0.662,,,,0.764,0.347,0.544,-0.906,-0.02,-0.423,,,,0.863,0.182,0.472,-0.892,0.186,-0.412,,,,0.95,0.089,0.3,-0.93,0.307,-0.201,,,,0.862,0.23,0.451,-0.953,0.009,-0.302,,,,paper
14.639269,-0.242,0.938,0.247,0.058,-0.976,-0.209,-0.028,-0.981,0.191,0.8,0.108,-0.591,-0.746,0.117,0.656,,,,0.794,0.317,0.518,-0.893,-0.085,-0.442,,,,0.89,0.142,0.433,-0.896,0.12,-0.427,,,,0.967,0.043,0.252,-0.943,0.236,-0.236,,,,0.888,0.22,0.403,-0.939,-0.042,-0.341,,,,paper
14.639393,-0.199,0.96,0.195,0.058,-0.976,-0.209,0.058,-0.975,0.215,0.777,0.073,-0.625,-0.762,0.116,0.637,,,,0.821,0.29,0.492,-0.873,-0.088,-0.48,,,,0.909,0.1,0.404,-0.88,0.119,-0.46,,,,0.976,-0.002,0.219,-0.936,0.236,-0.26,,,,0.912,0.19,0.365,-0.933,-0.031,-0.358,,,,paper
14.650095,-0.194,0.964,0.182,0.015,-0.974,-0.224,0.063,-0.971,0.232,0.766,0.047,-0.642,-0.78,0.072,0.621,,,,0.836,0.267,0.479,-0.861,-0.131,-0.492,,,,0.914,0.084,0.397,-0.875,0.068,-0.479,,,,0.976,-0.01,0.218,-0.941,0.181,-0.286,,,,0.912,0.181,0.369,-0.92,-0.074,-0.386,,,,paper
14.690175,-0.184,0.967,0.177,0.015,-0.974,-0.224,0.115,-0.955,0.274,0.759,0.036,-0.65,-0.792,0.015,0.611,,,,0.848,0.252,0.466,-0.843,-0.183,-0.506,,,,0.922,0.063,0.382,-0.872,0.014,-0.49,,,,0.981,-0.037,0.193,-0.945,0.123,-0.303,,,,0.924,0.17,0.343,-0.902,-0.113,-0.416,,,,paper
14.732775,-0.161,0.975,0.154,0.108,-0.947,-0.301,0.159,-0.934,0.319,0.745,0.002,-0.667,-0.793,-0.008,0.61,,,,0.869,0.216,0.446,-0.835,-0.207,-0.51,,,,0.934,0.021,0.356,-0.868,-0.007,-0.496,,,,0.984,-0.075,0.164,-0.946,0.109,-0.306,,,,0.94,0.16,0.303,-0.897,-0.129,-0.423,,,,paper
15.147105,-0.157,0.973,0.168,0.092,-0.95,-0.299,0.159,-0.934,0.319,0.756,-0.006,-0.654,-0.798,0.008,0.602,,,,0.862,0.209,0.462,-0.835,-0.181,-0.519,,,,0.927,0.019,0.376,-0.866,0.015,-0.5,,,,0.98,-0.079,0.182,-0.941,0.133,-0.311,,,,0.937,0.148,0.317,-0.899,-0.11,-0.424,,,,paper
15.147249,-0.141,0.977,0.161,0.091,-0.951,-0.297,0.294,-0.896,0.332,0.754,-0.023,-0.656,-0.799,0.016,0.601,,,,0.866,0.194,0.461,-0.84,-0.183,-0.511,,,,0.927,0.003,0.375,-0.867,0.015,-0.498,,,,0.978,-0.093,0.185,-0.939,0.135,-0.316,,,,0.939,0.135,0.318,-0.898,-0.11,-0.427,,,,paper
15.147381,-0.133,0.981,0.145,0.091,-0.951,-0.297,0.308,-0.896,0.321,0.738,-0.038,-0.674,-0.801,0.016,0.599,,,,0.881,0.171,0.441,-0.834,-0.189,-0.519,,,,0.936,-0.025,0.351,-0.863,0.008,-0.505,,,,0.98,-0.121,0.16,-0.941,0.123,-0.316,,,,0.948,0.122,0.294,-0.895,-0.114,-0.432,,,,paper
15.147506,-0.125,0.984,0.126,0.081,-0.945,-0.318,0.276,-0.907,0.317,0.725,-0.06,-0.686,-0.81,0.009,0.586,,,,0.89,0.151,0.43,-0.828,-0.192,-0.527,,,,0.94,-0.046,0.338,-0.863,0.0,-0.506,,,,0.979,-0.143,0.144,-0.939,0.124,-0.321,,,,0.954,0.116,0.275,-0.89,-0.112,-0.441,,,,paper
15.147632,-0.121,0.984,0.133,0.089,-0.948,-0.304,0.354,-0.884,0.306,0.73,-0.071,-0.679,-0.799,0.009,0.601,,,,0.886,0.142,0.441,-0.841,-0.19,-0.506,,,,0.936,-0.054,0.347,-0.87,0.009,-0.493,,,,0.977,-0.144,0.156,-0.944,0.134,-0.303,,,,0.953,0.112,0.28,-0.9,-0.104,-0.424,,,,paper
15.147763,-0.112,0.982,0.155,0.08,-0.96,-0.27,0.354,-0.884,0.306,0.745,-0.064,-0.664,-0.792,0.041,0.609,,,,0.877,0.147,0.458,-0.852,-0.157,-0.499,,,,0.929,-0.047,0.367,-0.873,0.039,-0.485,,,,0.973,-0.147,0.176,-0.943,0.152,-0.295,,,,0.95,0.098,0.295,-0.907,-0.093,-0.411,,,,paper
15.147886,-0.108,0.981,0.159,0.062,-0.958,-0.281,0.389,-0.853,0.347,0.753,-0.067,-0.655,-0.802,0.022,0.596,,,,0.87,0.146,0.471,-0.847,-0.178,-0.502,,,,0.922,-0.043,0.385,-0.868,0.021,-0.496,,,,0.97,-0.135,0.2,-0.945,0.142,-0.295,,,,0.942,0.104,0.32,-0.903,-0.099,-0.417,,,,paper
15.148983,-0.126,0.972,0.2,0.08,-0.961,-0.263,0.389,-0.853,0.347,0.778,-0.044,-0.627,-0.793,0.047,0.607,,,,0.85,0.171,0.498,-0.858,-0.156,-0.49,,,,0.912,-0.017,0.41,-0.875,0.044,-0.481,,,,0.968,-0.112,0.224,-0.946,0.161,-0.28,,,,0.932,0.116,0.344,-0.913,-0.084,-0.399,,,,paper
15.149116,-0.135,0.969,0.209,0.068,-0.963,-0.261,0.425,-0.835,0.348,0.785,-0.025,-0.619,-0.785,0.048,0.618,,,,0.839,0.194,0.508,-0.862,-0.157,-0.482,,,,0.907,0.007,0.421,-0.877,0.044,-0.478,,,,0.968,-0.088,0.235,-0.948,0.163,-0.272,,,,0.926,0.129,0.355,-0.911,-0.085,-0.403,,,,paper
15.149246,-0.153,0.964,0.219,0.045,-0.97,-0.237,0.425,-0.835,0.348,0.786,-0.01,-0.618,-0.783,0.083,0.617,,,,0.839,0.205,0.503,-0.866,-0.124,-0.484,,,,0.908,0.018,0.418,-0.876,0.078,-0.477,,,,0.97,-0.078,0.232,-0.941,0.197,-0.274,,,,0.922,0.14,0.36,-0.921,-0.064,-0.385,,,,paper
15.181947,-0.154,0.962,0.227,0.046,-0.97,-0.24,0.47,-0.82,0.328,0.79,0.001,-0.613,-0.794,0.084,0.602,,,,0.834,0.215,0.509,-0.862,-0.115,-0.494,,,,0.905,0.025,0.425,-0.868,0.08,-0.491,,,,0.969,-0.071,0.239,-0.936,0.201,-0.29,,,,0.921,0.142,0.363,-0.916,-0.043,-0.399,,,,paper
15.226584,-0.145,0.962,0.23,-0.012,-0.967,-0.253,0.525,-0.774,0.354,0.796,-0.005,-0.605,-0.797,0.121,0.592,,,,0.83,0.209,0.518,-0.857,-0.081,-0.509,,,,0.902,0.021,0.431,-0.857,0.114,-0.503,,,,0.966,-0.072,0.247,-0.925,0.234,-0.301,,,,0.917,0.14,0.374,-0.917,-0.011,-0.399,,,,paper
15.657142,-0.139,0.963,0.23,-0.012,-0.967,-0.253,0.537,-0.772,0.339,0.794,-0.015,-0.607,-0.791,0.134,0.597,,,,0.83,0.204,0.519,-0.865,-0.069,-0.496,,,,0.894,0.031,0.447,-0.867,0.116,-0.485,,,,0.966,-0.081,0.248,-0.924,0.248,-0.293,,,,0.919,0.131,0.372,-0.921,-0.0,-0.39,,,,paper
15.657284,-0.134,0.965,0.225,-0.012,-0.967,-0.253,0.535,-0.782,0.321,0.795,-0.038,-0.605,-0.798,0.137,0.586,,,,0.837,0.202,0.509,-0.859,-0.082,-0.506,,,,0.904,0.018,0.426,-0.86,0.105,-0.5,,,,0.966,-0.076,0.246,-0.924,0.228,-0.308,,,,0.918,0.132,0.373,-0.913,-0.022,-0.407,,,,paper
15.657423,-0.15,0.962,0.228,0.084,-0.964,-0.253,0.586,-0.735,0.34,0.791,-0.009,-0.612,-0.781,0.101,0.617,,,,0.836,0.206,0.508,-0.861,-0.118,-0.495,,,,0.906,0.02,0.423,-0.87,0.081,-0.487,,,,0.969,-0.076,0.236,-0.938,0.195,-0.286,,,,0.922,0.14,0.362,-0.914,-0.056,-0.401,,,,paper
15.657554,-0.151,0.96,0.238,0.012,-0.97,-0.243,0.56,-0.794,0.236,0.794,-0.003,-0.608,-0.789,0.125,0.601,,,,0.827,0.214,0.519,-0.869,-0.083,-0.488,,,,0.902,0.03,0.432,-0.87,0.106,-0.482,,,,0.966,-0.06,0.253,-0.933,0.23,-0.276,,,,0.913,0.147,0.381,-0.927,-0.034,-0.373,,,,paper
15.657675,-0.159,0.955,0.248,0.104,-0.97,-0.219,0.599,-0.749,0.284,0.812,0.012,-0.584,-0.774,0.086,0.627,,,,0.81,0.234,0.538,-0.878,-0.127,-0.462,,,,0.889,0.052,0.456,-0.887,0.08,-0.455,,,,0.961,-0.044,0.274,-0.95,0.19,-0.246,,,,0.904,0.15,0.4,-0.929,-0.066,-0.365,,,,paper
15.657804,-0.157,0.95,0.268,0.104,-0.97,-0.219,0.599,-0.749,0.284,0.821,0.02,-0.57,-0.773,0.115,0.623,,,,0.8,0.243,0.549,-0.882,-0.088,-0.463,,,,0.881,0.063,0.469,-0.882,0.109,-0.458,,,,0.957,-0.029,0.288,-0.938,0.234,-0.256,,,,0.897,0.154,0.414,-0.93,-0.031,-0.366,,,,paper
15.657924,-0.16,0.95,0.269,0.041,-0.978,-0.206,0.599,-0.749,0.284,0.823,0.032,-0.568,-0.763,0.131,0.633,,,,0.798,0.25,0.549,-0.883,-0.074,-0.463,,,,0.882,0.07,0.466,-0.881,0.124,-0.456,,,,0.959,-0.027,0.282,-0.938,0.235,-0.255,,,,0.898,0.161,0.409,-0.933,-0.03,-0.357,,,,paper
15.659175,-0.173,0.948,0.268,-0.01,-0.979,-0.204,0.65,-0.707,0.279,0.815,0.042,-0.579,-0.772,0.157,0.616,,,,0.802,0.261,0.538,-0.879,-0.05,-0.475,,,,0.885,0.083,0.458,-0.87,0.15,-0.47,,,,0.96,-0.009,0.281,-0.93,0.255,-0.264,,,,0.894,0.17,0.415,-0.931,-0.0,-0.365,,,,paper
15.659311,-0.186,0.946,0.267,0.01,-0.975,-0.224,0.631,-0.743,0.225,0.811,0.06,-0.582,-0.786,0.131,0.604,,,,0.801,0.277,0.53,-0.865,-0.078,-0.496,,,,0.889,0.093,0.449,-0.867,0.125,-0.482,,,,0.963,-0.005,0.268,-0.929,0.237,-0.284,,,,0.895,0.179,0.408,-0.922,-0.018,-0.387,,,,paper
15.659438,-0.188,0.949,0.253,0.009,-0.961,-0.277,0.664,-0.716,0.216,0.8,0.054,-0.598,-0.807,0.097,0.583,,,,0.81,0.27,0.52,-0.848,-0.113,-0.518,,,,0.893,0.091,0.44,-0.858,0.083,-0.507,,,,0.964,-0.004,0.265,-0.931,0.192,-0.31,,,,0.894,0.18,0.411,-0.911,-0.045,-0.411,,,,paper
15.682389,-0.18,0.95,0.254,0.054,-0.95,-0.308,0.664,-0.716,0.216,0.805,0.046,-0.592,-0.817,0.056,0.573,,,,0.811,0.26,0.524,-0.83,-0.146,-0.538,,,,0.895,0.079,0.439,-0.849,0.045,-0.527,,,,0.965,-0.019,0.262,-0.928,0.159,-0.336,,,,0.902,0.169,0.398,-0.896,-0.069,-0.439,,,,paper
15.727024,-0.151,0.959,0.241,0.044,-0.944,-0.326,0.693,-0.689,0.21,0.798,0.018,-0.603,-0.823,0.046,0.567,,,,0.823,0.233,0.519,-0.825,-0.16,-0.541,,,,0.9,0.051,0.433,-0.85,0.035,-0.526,,,,0.966,-0.045,0.254,-0.929,0.148,-0.339,,,,0.907,0.156,0.391,-0.89,-0.076,-0.449,,,,paper
16.166203,-0.139,0.961,0.241,0.054,-0.946,-0.321,0.746,-0.64,0.187,0.799,-0.001,-0.601,-0.824,0.056,0.564,,,,0.826,0.217,0.519,-0.824,-0.152,-0.546,,,,0.901,0.031,0.433,-0.847,0.044,-0.529,,,,0.966,-0.064,0.249,-0.927,0.157,-0.341,,,,0.913,0.143,0.382,-0.892,-0.069,-0.446,,,,paper
16.166709,-0.134,0.963,0.232,0.036,-0.951,-0.308,0.746,-0.64,0.187,0.797,-0.009,-0.604,-0.817,0.056,0.573,,,,0.832,0.207,0.516,-0.829,-0.144,-0.541,,,,0.902,0.023,0.431,-0.849,0.045,-0.527,,,,0.966,-0.073,0.249,-0.928,0.159,-0.336,,,,0.916,0.134,0.377,-0.894,-0.069,-0.443,,,,paper
16.166849,-0.125,0.968,0.219,0.037,-0.949,-0.313,0.758,-0.629,0.171,0.785,-0.024,-0.619,-0.825,0.049,0.563,,,,0.844,0.191,0.502,-0.821,-0.16,-0.548,,,,0.91,0.0,0.415,-0.847,0.037,-0.53,,,,0.968,-0.094,0.235,-0.926,0.147,-0.348,,,,0.923,0.124,0.365,-0.887,-0.072,-0.457,,,,paper
16.16698,-0.124,0.968,0.217,0.037,-0.949,-0.313,0.73,-0.67,0.13,0.783,-0.035,-0.621,-0.836,0.041,0.547,,,,0.847,0.179,0.501,-0.815,-0.159,-0.557,,,,0.909,-0.007,0.416,-0.838,0.029,-0.545,,,,0.967,-0.101,0.233,-0.922,0.146,-0.359,,,,0.925,0.121,0.359,-0.882,-0.076,-0.465,,,,paper
16.167146,-0.109,0.969,0.221,0.055,-0.939,-0.339,0.771,-0.611,0.182,0.789,-0.046,-0.613,-0.84,0.044,0.541,,,,0.844,0.17,0.508,-0.822,-0.158,-0.548,,,,0.906,-0.018,0.422,-0.841,0.031,-0.54,,,,0.964,-0.11,0.241,-0.926,0.144,-0.35,,,,0.925,0.11,0.363,-0.883,-0.08,-0.462,,,,paper
16.167283,-0.093,0.97,0.227,0.055,-0.939,-0.339,0.784,-0.615,0.085,0.79,-0.053,-0.611,-0.839,0.024,0.544,,,,0.842,0.162,0.515,-0.817,-0.179,-0.548,,,,0.903,-0.026,0.428,-0.84,0.022,-0.542,,,,0.961,-0.124,0.246,-0.928,0.131,-0.349,,,,0.926,0.097,0.366,-0.885,-0.085,-0.458,,,,paper
16.167409,-0.1,0.965,0.243,0.051,-0.938,-0.342,0.784,-0.615,0.085,0.803,-0.058,-0.593,-0.833,0.038,0.551,,,,0.83,0.165,0.532,-0.822,-0.169,-0.544,,,,0.894,-0.022,0.447,-0.844,0.036,-0.535,,,,0.957,-0.113,0.266,-0.931,0.14,-0.337,,,,0.92,0.103,0.379,-0.885,-0.08,-0.459,,,,paper
16.168184,-0.1,0.963,0.252,0.08,-0.948,-0.307,0.784,-0.615,0.085,0.797,-0.054,-0.601,-0.808,0.014,0.589,,,,0.837,0.158,0.524,-0.843,-0.182,-0.506,,,,0.896,-0.025,0.444,-0.864,0.026,-0.503,,,,0.957,-0.118,0.267,-0.943,0.138,-0.302,,,,0.917,0.099,0.385,-0.893,-0.098,-0.44,,,,paper
16.16832,-0.095,0.964,0.25,0.03,-0.945,-0.325,0.82,-0.553,0.147,0.809,-0.052,-0.585,-0.841,0.076,0.535,,,,0.829,0.162,0.535,-0.825,-0.13,-0.55,,,,0.894,-0.027,0.448,-0.834,0.072,-0.547,,,,0.956,-0.127,0.265,-0.924,0.182,-0.336,,,,0.919,0.096,0.381,-0.894,-0.041,-0.447,,,,paper
16.168446,-0.097,0.959,0.267,0.0,-0.955,-0.296,0.82,-0.553,0.147,0.812,-0.053,-0.581,-0.833,0.102,0.544,,,,0.819,0.166,0.549,-0.845,-0.096,-0.526,,,,0.884,-0.017,0.467,-0.843,0.094,-0.53,,,,0.952,-0.111,0.286,-0.924,0.212,-0.318,,,,0.912,0.094,0.398,-0.903,-0.015,-0.429,,,,paper
16.188664,-0.089,0.963,0.253,-0.0,-0.947,-0.322,0.82,-0.553,0.147,0.808,-0.059,-0.587,-0.823,0.123,0.555,,,,0.831,0.149,0.536,-0.837,-0.087,-0.54,,,,0.891,-0.039,0.452,-0.828,0.103,-0.552,,,,0.953,-0.136,0.271,-0.922,0.218,-0.319,,,,0.919,0.08,0.387,-0.901,-0.016,-0.434,,,,paper
16.230339,-0.082,0.967,0.243,-0.021,-0.94,-0.342,0.834,-0.545,0.083,0.805,-0.075,-0.589,-0.851,0.138,0.506,,,,0.832,0.141,0.536,-0.836,-0.084,-0.543,,,,0.891,-0.046,0.451,-0.813,0.122,-0.569,,,,0.953,-0.136,0.272,-0.911,0.238,-0.337,,,,0.922,0.079,0.379,-0.894,0.0,-0.447,,,,paper
16.268214,-0.083,0.967,0.242,-0.05,-0.952,-0.301,0.834,-0.545,0.083,0.8,-0.084,-0.594,-0.841,0.163,0.516,,,,0.835,0.135,0.534,-0.856,-0.049,-0.514,,,,0.892,-0.053,0.449,-0.831,0.147,-0.537,,,,0.952,-0.145,0.268,-0.921,0.276,-0.276,,,,0.924,0.075,0.376,-0.907,0.022,-0.42,,,,paper
16.677582,-0.075,0.967,0.242,-0.028,-0.966,-0.256,0.838,-0.539,0.083,0.795,-0.086,-0.6,-0.881,0.115,0.46,,,,0.839,0.13,0.528,-0.848,-0.098,-0.522,,,,0.894,-0.059,0.445,-0.808,0.097,-0.582,,,,0.952,-0.151,0.266,-0.932,0.241,-0.271,,,,0.923,0.07,0.378,-0.894,-0.028,-0.447,,,,paper
16.677757,-0.078,0.964,0.255,0.097,-0.917,-0.386,0.825,-0.564,0.036,0.81,-0.078,-0.582,-0.91,0.114,0.398,,,,0.827,0.141,0.544,-0.881,-0.093,-0.464,,,,0.887,-0.046,0.459,-0.842,0.089,-0.532,,,,0.95,-0.14,0.279,-0.938,0.245,-0.245,,,,0.919,0.076,0.388,-0.894,-0.037,-0.447,,,,paper
16.677901,-0.086,0.96,0.268,0.063,-0.947,-0.316,0.82,-0.571,0.036,0.818,-0.07,-0.571,-0.894,-0.0,0.447,,,,0.816,0.153,0.557,-0.923,-0.198,-0.33,,,,0.879,-0.031,0.476,-0.88,-0.0,-0.474,,,,0.946,-0.118,0.303,-0.983,0.173,-0.058,,,,0.905,0.085,0.417,-0.921,-0.153,-0.358,,,,paper
16.678029,-0.097,0.956,0.277,0.063,-0.947,-0.316,0.82,-0.571,0.045,0.837,-0.037,-0.546,-0.962,0.0,0.275,,,,0.797,0.18,0.576,-0.95,-0.173,-0.259,,,,0.869,-0.002,0.496,-0.874,0.0,-0.486,,,,0.944,-0.1,0.316,-0.972,0.224,-0.075,,,,0.904,0.09,0.419,-0.917,-0.066,-0.393,,,,paper
16.678155,-0.109,0.955,0.277,0.0,-0.894,-0.447,0.823,-0.561,0.09,0.836,-0.037,-0.548,-0.894,0.447,-0.0,,,,0.798,0.185,0.573,-0.97,-0.0,-0.243,,,,0.87,0.005,0.494,-0.843,0.241,-0.482,,,,0.944,-0.086,0.317,-0.936,0.341,0.085,,,,0.896,0.108,0.43,-0.92,0.077,-0.383,,,,paper
16.678277,-0.115,0.951,0.287,0.0,-0.894,-0.447,0.854,-0.519,0.044,0.839,-0.017,-0.544,-0.236,0.943,-0.236,,,,0.792,0.2,0.577,-0.911,0.391,0.13,,,,0.868,0.02,0.496,-0.745,0.596,-0.298,,,,0.944,-0.074,0.322,-0.766,0.575,0.287,,,,0.892,0.118,0.436,-0.941,0.282,-0.188,,,,paper
16.678401,-0.121,0.949,0.292,-0.485,-0.728,0.485,0.821,-0.57,0.024,0.843,-0.012,-0.537,0.0,0.97,-0.243,,,,0.783,0.21,0.585,-0.857,0.429,0.286,,,,0.861,0.033,0.508,-0.707,0.707,-0.0,,,,0.94,-0.058,0.336,-0.722,0.619,0.309,,,,0.886,0.118,0.448,-0.949,0.316,-0.0,,,,paper
16.679373,-0.123,0.949,0.292,-0.302,-0.905,0.302,0.821,-0.57,0.024,0.843,-0.004,-0.538,-0.267,0.802,-0.535,,,,0.781,0.216,0.586,-0.885,0.442,0.147,,,,0.861,0.036,0.507,-0.743,0.557,-0.371,,,,0.94,-0.058,0.336,-0.793,0.566,0.226,,,,0.881,0.117,0.458,-0.954,0.212,-0.212,,,,paper
16.679529,-0.118,0.95,0.289,0.688,-0.688,-0.229,0.821,-0.57,0.024,0.841,-0.012,-0.54,-0.0,0.0,-1.0,,,,0.786,0.206,0.583,-0.949,0.0,0.316,,,,0.863,0.031,0.504,-0.943,0.236,-0.236,,,,0.941,-0.061,0.332,-0.912,0.342,0.228,,,,0.887,0.119,0.446,-0.981,-0.0,-0.196,,,,paper
16.685168,-0.114,0.952,0.283,0.707,-0.707,-0.0,0.805,-0.594,0.012,0.838,-0.018,-0.546,-0.447,0.0,-0.894,,,,0.792,0.199,0.578,-0.981,0.0,0.196,,,,0.865,0.022,0.501,-0.802,0.267,-0.535,,,,0.941,-0.072,0.33,-0.889,0.381,0.254,,,,0.889,0.111,0.445,-0.97,-0.0,-0.243,,,,paper
16.729373,-0.116,0.95,0.289,0.943,-0.236,-0.236,0.809,-0.587,0.033,0.843,-0.017,-0.538,0.316,-0.0,-0.949,,,,0.787,0.204,0.583,-0.894,-0.0,0.447,,,,0.863,0.025,0.505,-0.949,0.0,-0.316,,,,0.942,-0.068,0.33,-0.889,0.254,0.381,,,,0.89,0.116,0.441,-0.963,-0.12,-0.241,,,,paper
16.77417,-0.128,0.948,0.292,0.894,0.0,0.447,0.832,-0.555,0.016,0.848,-0.002,-0.53,0.447,-0.0,-0.894,,,,0.78,0.218,0.586,-0.845,-0.169,0.507,,,,0.859,0.039,0.51,-1.0,0.0,-0.0,,,,0.94,-0.054,0.337,-0.843,0.241,0.482,,,,0.883,0.123,0.453,-0.98,-0.14,-0.14,,,,paper
17.187438,-0.132,0.943,0.304,0.447,-0.894,0.0,0.81,-0.586,0.022,0.85,0.005,-0.527,-0.577,0.577,-0.577,,,,0.775,0.227,0.59,-0.949,0.0,0.316,,,,0.855,0.051,0.517,-0.943,0.236,-0.236,,,,0.938,-0.043,0.344,-0.883,0.331,0.331,,,,0.877,0.131,0.462,-0.994,-0.0,-0.11,,,,paper
17.187598,-0.14,0.938,0.316,0.514,-0.857,-0.0,0.816,-0.575,0.058,0.859,0.025,-0.511,-0.802,0.267,0.535,,,,0.762,0.245,0.6,-1.0,0.0,-0.0,,,,0.847,0.07,0.526,-0.912,0.228,-0.342,,,,0.935,-0.025,0.354,-0.912,0.38,0.152,,,,0.871,0.137,0.471,-0.974,-0.0,-0.225,,,,paper
17.187788,-0.145,0.937,0.319,0.514,-0.857,-0.0,0.816,-0.575,0.058,0.856,0.032,-0.516,-0.911,0.13,0.391,,,,0.759,0.253,0.6,-0.967,-0.081,-0.242,,,,0.847,0.079,0.526,-0.891,0.089,-0.445,,,,0.934,-0.017,0.357,-0.964,0.257,-0.064,,,,0.866,0.145,0.479,-0.935,-0.058,-0.351,,,,paper
17.187924,-0.16,0.932,0.326,0.205,-0.889,-0.41,0.836,-0.547,0.04,0.861,0.043,-0.507,-0.924,0.142,0.355,,,,0.749,0.265,0.608,-0.889,-0.111,-0.444,,,,0.838,0.099,0.537,-0.805,0.054,-0.591,,,,0.931,0.002,0.366,-0.952,0.238,-0.19,,,,0.862,0.152,0.483,-0.902,-0.043,-0.43,,,,paper
17.18806,-0.152,0.928,0.341,0.047,-0.943,-0.33,0.811,-0.585,0.011,0.868,0.046,-0.495,-0.849,0.236,0.472,,,,0.742,0.267,0.615,-0.886,-0.039,-0.462,,,,0.833,0.101,0.544,-0.845,0.147,-0.514,,,,0.927,0.008,0.375,-0.933,0.3,-0.2,,,,0.858,0.156,0.489,-0.928,0.031,-0.371,,,,paper
17.188189,-0.151,0.924,0.35,-0.114,-0.973,-0.2,0.81,-0.585,0.054,0.874,0.041,-0.485,-0.813,0.26,0.52,,,,0.732,0.268,0.627,-0.877,-0.0,-0.481,,,,0.824,0.104,0.557,-0.849,0.192,-0.493,,,,0.919,0.015,0.393,-0.916,0.331,-0.229,,,,0.846,0.161,0.509,-0.94,0.048,-0.337,,,,paper
17.188319,-0.138,0.92,0.367,-0.072,-0.983,-0.168,0.833,-0.554,-0.004,0.892,0.049,-0.45,-0.656,0.328,0.68,,,,0.714,0.269,0.647,-0.946,0.079,-0.315,,,,0.816,0.102,0.569,-0.891,0.291,-0.349,,,,0.92,0.003,0.391,-0.91,0.4,-0.109,,,,0.857,0.154,0.492,-0.97,0.108,-0.216,,,,paper
17.189214,-0.132,0.92,0.368,-0.37,-0.926,0.077,0.833,-0.554,-0.004,0.887,0.03,-0.462,-0.587,0.52,0.621,,,,0.72,0.255,0.645,-0.9,0.285,-0.33,,,,0.814,0.097,0.573,-0.823,0.464,-0.329,,,,0.912,0.009,0.41,-0.826,0.555,-0.1,,,,0.841,0.15,0.52,-0.952,0.27,-0.142,,,,paper
17.189348,-0.12,0.919,0.375,-0.289,-0.951,0.11,0.816,-0.577,-0.039,0.895,0.032,-0.445,-0.522,0.548,0.653,,,,0.713,0.254,0.654,-0.906,0.322,-0.274,,,,0.809,0.093,0.58,-0.815,0.516,-0.264,,,,0.911,0.002,0.413,-0.807,0.588,-0.058,,,,0.843,0.14,0.52,-0.954,0.284,-0.091,,,,paper
17.199585,-0.113,0.923,0.368,-0.258,-0.954,0.149,0.816,-0.577,-0.039,0.888,0.028,-0.459,-0.504,0.559,0.658,,,,0.721,0.251,0.646,-0.904,0.345,-0.254,,,,0.816,0.084,0.571,-0.81,0.533,-0.246,,,,0.916,-0.013,0.401,-0.794,0.606,-0.05,,,,0.849,0.131,0.512,-0.951,0.304,-0.059,,,,paper
17.239872,-0.106,0.93,0.353,-0.258,-0.954,0.149,0.791,-0.604,-0.1,0.885,0.022,-0.465,-0.505,0.575,0.644,,,,0.731,0.242,0.637,-0.89,0.365,-0.272,,,,0.824,0.069,0.562,-0.799,0.545,-0.254,,,,0.92,-0.031,0.391,-0.775,0.629,-0.055,,,,0.858,0.115,0.501,-0.94,0.335,-0.063,,,,paper
17.286199,-0.077,0.933,0.352,-0.358,-0.921,0.152,0.791,-0.604,-0.1,0.884,0.003,-0.468,-0.509,0.613,0.604,,,,0.738,0.223,0.637,-0.864,0.41,-0.294,,,,0.826,0.046,0.562,-0.765,0.585,-0.27,,,,0.918,-0.056,0.392,-0.743,0.664,-0.087,,,,0.859,0.09,0.503,-0.926,0.372,-0.069,,,,paper
17.700116,-0.043,0.933,0.357,-0.358,-0.921,0.152,0.747,-0.621,-0.236,0.888,-0.016,-0.46,-0.519,0.614,0.595,,,,0.732,0.204,0.65,-0.862,0.4,-0.311,,,,0.813,0.034,0.581,-0.767,0.571,-0.294,,,,0.906,-0.064,0.419,-0.75,0.654,-0.105,,,,0.85,0.066,0.523,-0.929,0.361,-0.086,,,,paper
17.700268,-0.027,0.927,0.375,-0.358,-0.921,0.152,0.747,-0.621,-0.236,0.897,-0.032,-0.441,-0.546,0.593,0.593,,,,0.726,0.187,0.662,-0.863,0.379,-0.335,,,,0.808,0.015,0.589,-0.768,0.556,-0.318,,,,0.9,-0.083,0.427,-0.759,0.638,-0.129,,,,0.85,0.049,0.525,-0.926,0.357,-0.119,,,,paper
17.700395,0.013,0.928,0.373,-0.304,-0.949,0.083,0.732,-0.643,-0.227,0.896,-0.069,-0.438,-0.538,0.586,0.606,,,,0.732,0.15,0.664,-0.869,0.358,-0.341,,,,0.801,-0.016,0.599,-0.781,0.539,-0.314,,,,0.891,-0.112,0.441,-0.772,0.622,-0.132,,,,0.846,0.019,0.533,-0.933,0.337,-0.13,,,,paper
17.700523,0.037,0.931,0.364,-0.293,-0.953,0.073,0.732,-0.643,-0.227,0.902,-0.094,-0.42,-0.551,0.58,0.6,,,,0.73,0.123,0.673,-0.868,0.356,-0.347,,,,0.796,-0.049,0.603,-0.782,0.534,-0.322,,,,0.89,-0.152,0.43,-0.757,0.641,-0.125,,,,0.853,-0.007,0.523,-0.93,0.342,-0.132,,,,paper
17.700643,0.065,0.931,0.358,-0.298,-0.951,0.077,0.732,-0.643,-0.227,0.89,-0.145,-0.433,-0.479,0.61,0.631,,,,0.775,0.048,0.631,-0.88,0.341,-0.331,,,,0.774,-0.053,0.631,-0.769,0.559,-0.31,,,,0.874,-0.178,0.452,-0.761,0.637,-0.124,,,,0.846,-0.04,0.532,-0.937,0.321,-0.138,,,,paper
17.700776,0.103,0.927,0.362,-0.262,-0.964,0.052,0.589,-0.705,-0.395,0.89,-0.167,-0.423,-0.521,0.592,0.615,,,,0.749,0.049,0.661,-0.88,0.319,-0.352,,,,0.777,-0.107,0.621,-0.77,0.534,-0.349,,,,0.862,-0.196,0.467,-0.769,0.619,-0.16,,,,0.85,-0.081,0.521,-0.927,0.332,-0.176,,,,paper
17.700901,0.125,0.926,0.355,-0.345,-0.938,0.011,0.621,-0.686,-0.38,0.9,-0.183,-0.396,-0.614,0.564,0.552,,,,0.725,0.028,0.688,-0.863,0.307,-0.402,,,,0.767,-0.137,0.627,-0.767,0.496,-0.406,,,,0.849,-0.237,0.473,-0.772,0.596,-0.221,,,,0.839,-0.114,0.532,-0.916,0.323,-0.237,,,,paper
17.701902,0.143,0.924,0.354,-0.345,-0.938,0.011,0.577,-0.678,-0.455,0.902,-0.197,-0.384,-0.755,0.442,0.484,,,,0.708,0.013,0.706,-0.831,0.188,-0.523,,,,0.749,-0.163,0.643,-0.761,0.381,-0.525,,,,0.826,-0.264,0.498,-0.822,0.462,-0.334,,,,0.83,-0.155,0.536,-0.897,0.237,-0.374,,,,paper
17.702037,0.158,0.922,0.354,-0.192,-0.915,-0.354,0.579,-0.691,-0.431,0.892,-0.222,-0.394,-0.928,0.179,0.326,,,,0.716,-0.011,0.698,-0.721,-0.063,-0.69,,,,0.747,-0.181,0.64,-0.711,0.106,-0.696,,,,0.82,-0.282,0.498,-0.833,0.223,-0.506,,,,0.82,-0.164,0.548,-0.806,0.058,-0.59,,,,paper
17.712388,0.141,0.929,0.341,-0.192,-0.915,-0.354,0.597,-0.666,-0.448,0.89,-0.227,-0.394,-0.974,-0.177,0.142,,,,0.725,-0.016,0.688,-0.491,-0.39,-0.779,,,,0.76,-0.185,0.623,-0.576,-0.214,-0.789,,,,0.833,-0.281,0.476,-0.75,-0.114,-0.652,,,,0.837,-0.144,0.528,-0.617,-0.154,-0.772,,,,paper
17.749988,0.134,0.93,0.341,0.215,-0.495,-0.842,0.61,-0.66,-0.439,0.891,-0.222,-0.395,-0.921,-0.39,0.018,,,,0.722,-0.002,0.692,-0.325,-0.548,-0.771,,,,0.759,-0.168,0.629,-0.446,-0.413,-0.794,,,,0.838,-0.263,0.479,-0.653,-0.318,-0.687,,,,0.842,-0.133,0.523,-0.454,-0.282,-0.845,,,,paper
17.798523,0.111,0.934,0.341,0.376,-0.27,-0.886,0.61,-0.66,-0.439,0.892,-0.208,-0.401,-0.811,-0.579,-0.083,,,,0.728,0.016,0.685,-0.16,-0.706,-0.69,,,,0.767,-0.152,0.623,-0.315,-0.614,-0.724,,,,0.847,-0.241,0.473,-0.526,-0.526,-0.669,,,,0.843,-0.107,0.528,-0.271,-0.436,-0.858,,,,paper
18.207282,0.089,0.938,0.336,0.376,-0.27,-0.886,0.637,-0.629,-0.447,0.886,-0.19,-0.423,-0.706,-0.691,-0.154,,,,0.738,0.038,0.673,-0.03,-0.791,-0.612,,,,0.779,-0.123,0.615,-0.208,-0.714,-0.669,,,,0.862,-0.224,0.455,-0.422,-0.633,-0.648,,,,0.853,-0.091,0.513,-0.156,-0.498,-0.853,,,,paper
18.208106,0.053,0.946,0.32,0.437,-0.012,-0.899,0.637,-0.629,-0.447,0.879,-0.165,-0.448,-0.595,-0.77,-0.23,,,,0.79,0.034,0.612,0.142,-0.852,-0.504,,,,0.798,-0.1,0.594,-0.054,-0.822,-0.566,,,,0.88,-0.207,0.428,-0.308,-0.724,-0.617,,,,0.862,-0.063,0.502,-0.0,-0.552,-0.834,,,,paper
18.208244,0.039,0.952,0.302,0.437,-0.012,-0.899,0.719,-0.587,-0.372,0.87,-0.184,-0.458,-0.523,-0.818,-0.241,,,,0.773,0.067,0.63,0.199,-0.867,-0.457,,,,0.834,-0.138,0.534,0.012,-0.863,-0.505,,,,0.893,-0.198,0.404,-0.201,-0.781,-0.592,,,,0.876,-0.041,0.481,0.071,-0.583,-0.809,,,,paper
18.20838,0.017,0.954,0.298,0.434,0.145,-0.889,0.719,-0.587,-0.372,0.854,-0.147,-0.498,-0.492,-0.82,-0.293,,,,0.788,0.082,0.61,0.243,-0.852,-0.464,,,,0.836,-0.098,0.54,0.068,-0.866,-0.495,,,,0.906,-0.186,0.381,-0.149,-0.814,-0.562,,,,0.885,-0.017,0.465,0.154,-0.605,-0.781,,,,paper
18.208507,-0.018,0.96,0.28,0.434,0.145,-0.889,0.78,-0.53,-0.334,0.846,-0.14,-0.514,-0.418,-0.847,-0.33,,,,0.8,0.101,0.591,0.299,-0.854,-0.427,,,,0.852,-0.083,0.517,0.086,-0.871,-0.484,,,,0.921,-0.17,0.35,-0.099,-0.849,-0.518,,,,0.899,0.02,0.437,0.227,-0.627,-0.746,,,,paper
18.208642,-0.047,0.96,0.276,0.48,0.251,-0.84,0.806,-0.536,-0.251,0.848,-0.121,-0.516,-0.402,-0.839,-0.368,,,,0.8,0.121,0.588,0.341,-0.841,-0.42,,,,0.855,-0.058,0.515,0.127,-0.865,-0.485,,,,0.927,-0.138,0.349,-0.07,-0.854,-0.515,,,,0.898,0.054,0.437,0.278,-0.625,-0.729,,,,paper
18.208838,-0.067,0.955,0.288,0.587,0.24,-0.773,0.84,-0.488,-0.238,0.848,-0.106,-0.519,-0.359,-0.872,-0.333,,,,0.8,0.135,0.585,0.323,-0.879,-0.349,,,,0.858,-0.042,0.512,0.105,-0.895,-0.434,,,,0.931,-0.121,0.343,-0.081,-0.891,-0.446,,,,0.895,0.081,0.438,0.298,-0.662,-0.688,,,,paper
18.209772,-0.082,0.957,0.28,0.587,0.24,-0.773,0.84,-0.488,-0.238,0.847,-0.096,-0.524,-0.319,-0.881,-0.349,,,,0.799,0.149,0.582,0.338,-0.89,-0.307,,,,0.86,-0.03,0.51,0.124,-0.914,-0.387,,,,0.934,-0.109,0.34,-0.08,-0.907,-0.414,,,,0.897,0.091,0.433,0.295,-0.699,-0.652,,,,paper
18.209913,-0.097,0.954,0.282,0.572,0.327,-0.752,0.876,-0.449,-0.178,0.848,-0.074,-0.525,-0.281,-0.899,-0.337,,,,0.797,0.17,0.58,0.323,-0.913,-0.247,,,,0.862,-0.011,0.506,0.114,-0.933,-0.343,,,,0.937,-0.093,0.337,-0.099,-0.929,-0.356,,,,0.892,0.108,0.438,0.272,-0.718,-0.641,,,,paper
18.219785,-0.138,0.953,0.27,0.601,0.289,-0.745,0.876,-0.449,-0.178,0.843,-0.044,-0.536,-0.282,-0.892,-0.352,,,,0.798,0.199,0.569,0.286,-0.928,-0.238,,,,0.868,0.016,0.496,0.096,-0.937,-0.336,,,,0.942,-0.065,0.328,-0.126,-0.936,-0.329,,,,0.894,0.127,0.43,0.214,-0.737,-0.642,,,,paper
18.259359,-0.151,0.954,0.26,0.601,0.2,-0.773,0.876,-0.449,-0.178,0.823,-0.042,-0.567,-0.331,-0.883,-0.331,,,,0.816,0.202,0.542,0.254,-0.933,-0.254,,,,0.882,0.018,0.471,0.056,-0.929,-0.366,,,,0.951,-0.063,0.302,-0.208,-0.922,-0.327,,,,0.9,0.142,0.413,0.14,-0.728,-0.672,,,,paper
18.303925,-0.16,0.954,0.253,0.668,0.246,-0.703,0.893,-0.426,-0.144,0.82,-0.033,-0.572,-0.285,-0.89,-0.356,,,,0.82,0.21,0.533,0.192,-0.962,-0.192,,,,0.889,0.022,0.457,0.038,-0.94,-0.338,,,,0.957,-0.061,0.285,-0.29,-0.912,-0.29,,,,0.906,0.154,0.394,0.076,-0.76,-0.646,,,,paper
18.717092,-0.167,0.953,0.254,0.669,0.167,-0.724,0.893,-0.426,-0.144,0.813,-0.033,-0.582,-0.267,-0.909,-0.321,,,,0.824,0.209,0.526,0.055,-0.992,-0.11,,,,0.892,0.023,0.451,-0.053,-0.962,-0.267,,,,0.958,-0.06,0.281,-0.416,-0.892,-0.178,,,,0.904,0.157,0.397,-0.052,-0.78,-0.624,,,,paper
18.717245,-0.161,0.953,0.258,0.669,0.167,-0.724,0.932,-0.349,-0.096,0.815,-0.028,-0.579,-0.323,-0.889,-0.323,,,,0.822,0.213,0.528,-0.09,-0.992,-0.09,,,,0.892,0.023,0.452,-0.183,-0.913,-0.365,,,,0.958,-0.061,0.279,-0.656,-0.749,-0.094,,,,0.909,0.149,0.39,-0.3,-0.675,-0.675,,,,paper
18.717373,-0.162,0.954,0.251,0.702,0.117,-0.702,0.928,-0.365,-0.071,0.808,-0.032,-0.588,-0.384,-0.512,-0.768,,,,0.831,0.207,0.516,-0.192,-0.962,-0.192,,,,0.897,0.016,0.442,-0.0,-0.707,-0.707,,,,0.96,-0.071,0.269,-0.913,-0.365,-0.183,,,,0.912,0.147,0.382,-0.482,-0.241,-0.843,,,,paper
18.717498,-0.167,0.956,0.24,0.702,0.117,-0.702,0.915,-0.388,-0.109,0.799,-0.042,-0.6,-0.0,0.0,-1.0,,,,0.839,0.2,0.506,-1.0,0.0,0.0,,,,0.903,0.008,0.431,0.447,0.0,-0.894,,,,0.964,-0.072,0.258,-0.802,0.535,0.267,,,,0.916,0.156,0.37,-0.784,0.196,-0.588,,,,paper
18.717624,-0.159,0.961,0.227,-0.7,0.14,0.7,0.896,-0.434,-0.089,0.793,-0.055,-0.606,0.42,0.755,-0.504,,,,0.847,0.186,0.498,-0.089,0.891,0.445,,,,0.907,-0.008,0.421,0.276,0.921,0.276,,,,0.965,-0.088,0.248,0.074,0.892,0.446,,,,0.922,0.146,0.358,-0.432,0.864,0.259,,,,paper
