time,s1_X,s1_Y,s1_Z,s1_gyro_x,s1_gyro_y,s1_gyro_z,s1_mag_x,s1_mag_y,s1_mag_z,s2_X,s2_Y,s2_Z,s2_gyro_x,s2_gyro_y,s2_gyro_z,s2_mag_x,s2_mag_y,s2_mag_z,s3_X,s3_Y,s3_Z,s3_gyro_x,s3_gyro_y,s3_gyro_z,s3_mag_x,s3_mag_y,s3_mag_z,s4_X,s4_Y,s4_Z,s4_gyro_x,s4_gyro_y,s4_gyro_z,s4_mag_x,s4_mag_y,s4_mag_z,s5_X,s5_Y,s5_Z,s5_gyro_x,s5_gyro_y,s5_gyro_z,s5_mag_x,s5_mag_y,s5_mag_z,s6_X,s6_Y,s6_Z,s6_gyro_x,s6_gyro_y,s6_gyro_z,s6_mag_x,s6_mag_y,s6_mag_z,label
0.032603,-0.99,9.03,3.1,0.57,-0.03,0.05,23.63,-20.94,1.69,8.34,1.51,-4.69,0.06,-0.42,0.17,,,,6.99,2.84,6.75,-0.14,-0.46,0.21,,,,8.19,1.31,5.72,-0.15,-0.45,0.21,,,,9.55,-0.74,2.8,-0.2,-0.39,0.22,,,,8.62,-1.73,5.54,-0.4,-0.47,0.26,,,,paper
0.076786,-0.95,9.49,3.03,0.56,-0.06,0.06,23.5,-19.88,2.19,8.56,1.38,-4.65,-0.02,-0.2,0.09,,,,7.4,2.68,6.9,-0.09,-0.23,0.1,,,,8.72,1.0,5.65,-0.09,-0.21,0.09,,,,10.0,-1.16,2.36,-0.12,-0.16,0.12,,,,8.94,-2.15,4.39,-0.27,-0.21,0.23,,,,paper
0.115646,-1.11,9.31,2.76,0.03,0.07,0.02,23.5,-19.88,2.19,8.25,1.28,-4.97,0.04,-0.08,-0.0,,,,7.45,2.56,6.45,-0.0,-0.09,0.09,,,,8.53,0.96,5.36,0.02,-0.11,0.09,,,,9.71,-1.08,2.33,0.0,-0.08,0.07,,,,8.79,-2.02,5.02,-0.13,-0.11,0.14,,,,paper
0.161653,-1.07,9.27,3.03,0.08,0.06,0.01,24.75,-18.38,3.81,8.44,1.33,-4.78,0.07,-0.03,0.02,,,,7.24,2.69,6.71,-0.02,-0.04,0.12,,,,8.44,1.07,5.56,0.03,-0.06,0.13,,,,9.78,-1.01,2.5,0.04,-0.02,0.09,,,,8.74,-2.21,4.79,-0.07,-0.04,0.09,,,,paper
0.200041,-0.95,9.3,2.87,-0.04,0.05,0.03,24.75,-18.38,3.81,8.25,1.13,-5.05,0.08,0.04,0.02,,,,7.42,2.53,6.53,0.02,0.01,0.12,,,,8.47,0.96,5.4,0.1,-0.04,0.16,,,,9.71,-0.98,2.49,0.13,0.04,0.07,,,,8.73,-2.19,4.94,0.05,0.05,-0.03,,,,paper
0.246896,-0.91,9.34,2.91,0.03,0.06,0.06,22.75,-21.19,4.75,8.43,1.1,-5.01,0.14,0.09,0.08,,,,7.52,2.43,6.54,0.01,0.06,0.18,,,,8.67,0.66,5.22,0.14,-0.07,0.25,,,,9.74,-1.15,2.35,0.19,0.03,0.1,,,,8.67,-2.03,5.2,0.11,0.07,-0.15,,,,paper
0.284674,-1.03,9.19,2.76,0.03,0.04,0.06,22.75,-21.19,4.75,8.3,1.3,-4.73,0.14,0.11,0.13,,,,7.18,2.68,6.67,0.01,0.09,0.2,,,,8.4,1.3,5.72,0.18,-0.06,0.28,,,,9.6,-0.65,2.75,0.26,0.04,0.11,,,,8.58,-1.98,5.28,0.05,0.02,-0.2,,,,paper
0.331123,-0.91,9.0,2.8,-0.02,-0.02,-0.0,22.5,-19.63,2.81,8.08,0.98,-4.95,0.08,0.04,0.06,,,,7.22,2.42,6.4,0.05,0.01,0.13,,,,8.41,0.8,5.27,0.17,-0.04,0.2,,,,9.5,-0.86,2.61,0.23,0.06,0.04,,,,8.76,-1.71,5.44,0.02,0.04,-0.32,,,,paper
0.370088,-0.91,9.15,2.76,0.06,0.0,-0.0,23.31,-19.69,3.88,8.02,0.92,-5.05,0.15,-0.06,-0.02,,,,7.39,2.38,6.32,0.08,-0.1,0.17,,,,8.41,0.94,5.28,0.18,-0.12,0.23,,,,9.59,-0.78,2.61,0.23,-0.01,0.07,,,,8.84,-1.66,5.31,-0.04,-0.1,-0.2,,,,paper
0.414988,-0.88,9.5,2.95,0.06,0.06,0.0,23.44,-20.81,3.44,8.45,0.98,-4.87,0.17,-0.03,-0.11,,,,7.59,2.4,6.53,0.13,-0.06,0.15,,,,8.78,0.68,5.31,0.19,-0.06,0.17,,,,9.85,-1.01,2.49,0.19,0.02,0.03,,,,8.88,-1.62,5.11,0.03,0.01,-0.28,,,,paper
0.453785,-0.99,9.27,2.76,-0.01,0.06,0.01,23.44,-20.81,3.44,8.33,0.92,-5.06,0.23,-0.03,-0.11,,,,7.47,2.59,6.57,0.15,-0.07,0.21,,,,8.61,0.9,5.33,0.23,-0.07,0.24,,,,9.73,-0.79,2.64,0.24,0.01,0.06,,,,8.7,-1.49,5.44,0.03,-0.01,-0.35,,,,paper
0.498956,-0.99,9.49,2.87,0.08,-0.05,0.02,23.44,-20.81,3.44,8.59,1.03,-4.79,0.17,-0.03,-0.05,,,,7.39,2.71,6.82,0.08,-0.04,0.18,,,,8.66,1.01,5.6,0.15,-0.04,0.19,,,,9.82,-0.64,2.87,0.18,0.04,0.07,,,,8.62,-1.35,5.2,0.21,0.09,-0.73,,,,paper
0.538431,-0.91,9.5,2.8,0.06,-0.06,0.01,22.63,-21.0,3.31,8.3,1.02,-4.91,0.13,0.01,-0.04,,,,7.36,2.53,6.45,0.07,0.01,0.13,,,,8.51,0.87,5.3,0.13,0.01,0.12,,,,9.55,-0.67,2.74,0.14,0.07,0.02,,,,8.83,-1.25,4.75,0.31,0.07,-0.84,,,,paper
0.583475,-1.03,9.27,2.72,-0.06,0.02,-0.03,22.5,-21.69,3.25,8.24,0.92,-4.81,0.09,0.04,-0.09,,,,7.32,2.51,6.41,0.12,0.06,0.02,,,,8.55,0.83,5.29,0.14,0.04,-0.0,,,,9.61,-0.74,2.62,0.11,0.1,-0.09,,,,8.87,-0.33,5.26,0.57,0.01,-0.92,,,,paper
0.625089,-0.99,9.11,2.76,-0.06,-0.01,-0.02,22.5,-21.69,3.25,8.18,0.92,-4.89,0.09,0.04,-0.11,,,,7.34,2.57,6.4,0.1,0.05,0.03,,,,8.53,0.81,5.19,0.12,0.03,0.01,,,,9.76,-0.75,2.66,0.11,0.11,-0.05,,,,8.35,0.26,6.01,0.41,-0.26,-0.89,,,,paper
0.666394,-1.03,9.31,2.8,0.04,-0.09,-0.01,22.75,-21.19,4.06,8.34,0.96,-4.84,0.06,0.05,-0.11,,,,7.31,2.67,6.52,0.05,0.05,0.01,,,,8.54,0.97,5.4,0.09,0.04,-0.02,,,,9.55,-0.56,2.78,0.07,0.13,-0.02,,,,9.58,0.72,5.45,-0.13,-0.43,-0.7,,,,paper
0.708506,-0.95,9.49,2.84,-0.03,-0.06,-0.02,23.13,-20.5,3.44,8.28,0.94,-4.97,0.02,0.12,-0.14,,,,7.41,2.56,6.35,0.08,0.11,-0.04,,,,8.55,0.81,5.18,0.12,0.09,-0.07,,,,9.48,-0.55,2.75,0.07,0.15,-0.11,,,,9.88,0.61,5.07,-0.57,-0.32,-0.25,,,,paper
0.751019,-1.03,9.42,2.8,-0.17,0.02,-0.06,22.94,-19.75,3.88,8.26,1.05,-4.86,0.02,0.15,-0.2,,,,7.2,2.71,6.38,0.14,0.15,-0.13,,,,8.39,0.97,5.27,0.15,0.11,-0.18,,,,9.48,-0.49,2.88,0.09,0.27,-0.24,,,,9.59,0.41,4.97,-1.0,-0.27,0.22,,,,paper
0.796042,-1.07,8.89,2.8,-0.15,0.04,-0.08,22.63,-19.5,3.5,8.32,0.8,-5.08,0.01,0.08,-0.16,,,,7.47,2.68,6.46,0.09,0.08,-0.11,,,,8.56,1.07,5.38,0.08,0.05,-0.16,,,,9.6,-0.16,3.15,-0.04,0.12,-0.19,,,,9.12,0.09,5.06,-1.06,-0.34,0.36,,,,paper
0.831637,-1.14,9.19,2.87,0.02,0.0,-0.04,24.5,-18.31,4.88,8.34,1.03,-4.81,-0.03,0.01,-0.11,,,,7.22,2.93,6.6,0.01,0.03,-0.11,,,,8.49,1.27,5.47,0.01,0.02,-0.16,,,,9.57,-0.16,3.04,-0.14,0.05,-0.13,,,,9.63,-0.12,4.64,-1.01,-0.39,0.54,,,,paper
0.872878,-1.22,9.15,2.87,-0.14,0.04,-0.07,23.44,-20.25,2.13,8.07,1.03,-5.03,-0.08,0.04,-0.15,,,,7.33,2.79,6.18,0.0,0.09,-0.17,,,,8.54,1.08,5.07,-0.02,0.09,-0.24,,,,9.67,-0.36,2.72,-0.17,0.08,-0.14,,,,9.2,-0.55,5.07,-1.26,-0.58,0.81,,,,paper
0.912854,-0.91,9.3,3.06,-0.14,0.04,-0.07,23.31,-19.69,3.88,8.16,1.03,-5.03,-0.0,-0.1,-0.17,,,,7.3,2.71,6.17,0.02,-0.03,-0.14,,,,8.51,0.91,4.95,-0.05,-0.01,-0.23,,,,9.29,-0.27,2.74,-0.26,-0.07,-0.12,,,,9.29,-1.34,3.92,-1.21,-0.75,0.97,,,,paper
0.959938,-1.14,9.38,2.91,0.02,0.12,-0.08,23.31,-19.69,3.88,8.43,1.14,-4.86,0.02,-0.05,-0.19,,,,7.37,2.83,6.45,0.08,0.01,-0.1,,,,8.65,1.21,5.34,0.03,-0.0,-0.18,,,,9.74,-0.3,2.78,-0.18,-0.07,-0.19,,,,9.44,-2.06,3.08,-0.76,-0.53,0.67,,,,paper
0.995287,-1.14,9.11,2.8,-0.01,0.09,-0.02,23.94,-19.13,5.06,8.56,1.09,-4.92,0.04,-0.02,-0.1,,,,7.52,2.85,6.59,0.02,0.01,-0.01,,,,8.8,1.16,5.38,-0.0,0.03,-0.09,,,,9.99,-0.35,2.83,-0.16,-0.02,-0.04,,,,9.32,-2.29,3.32,-0.38,-0.35,0.34,,,,paper
1.039726,-1.14,9.23,2.95,-0.03,0.04,-0.01,23.94,-19.13,5.06,8.35,1.16,-4.93,0.03,0.01,-0.08,,,,7.35,2.95,6.48,0.03,0.03,0.01,,,,8.63,1.26,5.31,0.04,0.01,-0.04,,,,9.75,-0.2,2.84,-0.04,0.01,-0.02,,,,9.4,-2.38,3.19,-0.04,-0.08,-0.14,,,,paper
1.085855,-1.3,9.23,2.87,0.03,0.04,0.03,23.94,-19.13,5.06,8.28,1.2,-4.97,0.05,-0.0,-0.04,,,,7.28,3.04,6.43,-0.0,0.02,0.07,,,,8.55,1.38,5.32,0.0,-0.0,0.01,,,,9.6,-0.11,2.86,-0.04,0.01,0.05,,,,8.74,-2.42,3.1,0.29,0.0,-0.74,,,,paper
1.124675,-1.22,9.27,2.95,0.08,-0.01,-0.01,24.38,-18.13,3.44,8.23,1.3,-4.87,0.01,-0.04,-0.05,,,,7.14,3.08,6.42,0.02,-0.01,0.05,,,,8.43,1.42,5.28,0.01,-0.04,-0.0,,,,9.65,0.02,2.97,-0.06,-0.02,0.02,,,,8.58,-1.61,3.68,0.68,-0.1,-1.48,,,,paper
1.169035,-1.26,9.3,2.87,0.18,-0.07,0.04,24.38,-18.13,3.44,8.32,1.27,-4.89,-0.0,-0.08,0.01,,,,7.18,3.12,6.51,-0.04,-0.06,0.08,,,,8.5,1.46,5.38,-0.04,-0.08,0.05,,,,9.66,-0.07,2.86,-0.09,-0.02,0.08,,,,9.94,-0.38,3.92,0.57,-0.32,-1.57,,,,paper
1.209496,-1.18,9.46,2.91,0.18,-0.07,0.04,24.31,-20.25,3.56,8.18,1.13,-5.12,-0.02,-0.03,-0.02,,,,7.36,2.92,6.28,-0.02,-0.02,0.03,,,,8.59,1.27,5.17,-0.0,-0.03,0.01,,,,9.68,-0.25,2.7,-0.03,0.01,0.04,,,,10.13,0.2,4.0,0.24,-0.26,-1.14,,,,paper
1.254045,-1.18,9.3,2.8,0.17,-0.05,0.02,24.31,-20.25,3.56,8.22,1.2,-5.02,0.04,-0.04,-0.03,,,,7.34,2.94,6.28,0.01,-0.04,0.09,,,,8.62,1.23,5.14,0.03,-0.06,0.07,,,,9.6,-0.21,2.67,0.04,-0.02,0.07,,,,10.22,0.51,3.24,0.09,-0.25,-1.03,,,,paper
1.299821,-1.22,9.07,2.76,0.17,-0.05,0.02,23.88,-20.38,3.19,8.32,1.01,-5.18,0.06,-0.01,-0.02,,,,7.51,2.98,6.49,0.0,-0.01,0.11,,,,8.79,1.29,5.29,0.05,-0.03,0.1,,,,9.98,-0.24,2.73,0.1,-0.02,0.11,,,,8.63,0.38,2.87,0.33,0.28,-1.36,,,,paper
1.33816,-1.22,9.31,2.8,0.28,-0.18,0.05,23.88,-20.38,3.19,8.19,1.19,-5.05,0.05,-0.04,0.02,,,,7.3,3.01,6.34,-0.04,-0.03,0.13,,,,8.55,1.37,5.2,0.01,-0.04,0.13,,,,9.62,-0.05,2.82,0.08,-0.01,0.17,,,,10.14,1.75,3.51,0.46,0.32,-1.32,,,,paper
1.380437,-1.14,9.53,2.76,0.16,-0.12,0.02,23.88,-20.38,3.19,8.3,1.17,-5.01,0.05,-0.0,0.0,,,,7.4,3.0,6.43,-0.03,0.0,0.1,,,,8.7,1.31,5.26,0.01,-0.0,0.1,,,,9.79,-0.19,2.76,0.07,0.05,0.14,,,,9.97,2.25,3.71,0.33,0.25,-0.9,,,,paper
1.426067,-1.07,9.31,2.72,0.09,-0.13,0.04,24.38,-18.75,4.44,8.18,1.16,-5.01,0.05,-0.01,0.0,,,,7.25,2.97,6.32,-0.03,-0.02,0.11,,,,8.51,1.26,5.17,0.01,-0.02,0.09,,,,9.56,-0.19,2.8,0.03,0.04,0.13,,,,9.74,2.38,3.72,0.15,0.18,-0.54,,,,paper
1.470496,-1.03,9.42,2.68,0.04,-0.06,0.0,25.25,-18.5,5.19,8.17,1.08,-5.09,0.02,0.01,-0.05,,,,7.41,2.84,6.28,-0.01,-0.0,0.05,,,,8.62,1.16,5.09,0.03,-0.01,0.03,,,,9.58,-0.33,2.65,0.03,0.04,0.05,,,,9.84,2.5,3.4,-0.05,-0.03,-0.29,,,,paper
1.510344,-1.11,9.41,2.68,0.03,-0.02,0.0,23.31,-20.31,4.88,8.31,0.98,-5.18,0.03,0.03,-0.06,,,,7.6,2.84,6.43,-0.0,0.02,0.05,,,,8.81,1.18,5.25,0.03,0.02,0.04,,,,9.88,-0.27,2.77,0.02,0.05,0.05,,,,9.51,2.53,3.45,-0.02,-0.07,-0.19,,,,paper
1.554684,-1.07,9.38,2.68,0.04,-0.05,0.05,24.38,-18.69,4.81,8.22,1.12,-5.04,0.03,0.03,-0.02,,,,7.35,2.89,6.29,-0.02,0.02,0.07,,,,8.57,1.22,5.15,0.01,0.03,0.05,,,,9.56,-0.24,2.73,0.03,0.06,0.06,,,,9.61,2.61,3.48,-0.12,-0.1,-0.09,,,,paper
1.594306,-1.11,9.27,2.64,0.01,-0.04,0.01,23.56,-21.25,5.19,8.02,1.05,-5.12,0.03,0.0,-0.03,,,,7.31,2.82,6.1,-0.02,0.0,0.05,,,,8.47,1.14,4.99,0.01,0.01,0.04,,,,9.42,-0.24,2.69,0.01,0.03,0.04,,,,9.62,2.63,3.63,-0.28,-0.14,0.09,,,,paper
1.639851,-1.11,9.34,2.68,0.02,0.01,-0.02,23.81,-19.5,4.69,8.1,1.12,-5.04,0.0,0.01,-0.08,,,,7.36,2.85,6.18,0.02,-0.0,0.0,,,,8.54,1.17,5.04,0.04,-0.0,-0.01,,,,9.56,-0.23,2.69,0.03,0.03,-0.03,,,,9.77,2.58,3.64,-0.58,-0.22,0.35,,,,paper
1.685618,-1.11,9.38,2.72,-0.11,0.04,-0.02,23.81,-19.5,4.69,8.32,0.91,-5.32,0.02,0.01,-0.07,,,,7.74,2.8,6.37,0.03,0.01,-0.0,,,,8.98,1.1,5.2,0.04,0.01,-0.03,,,,10.04,-0.23,2.74,0.03,0.03,-0.04,,,,9.52,2.01,2.97,-0.6,-0.19,0.48,,,,paper
1.724456,-1.03,9.57,2.72,-0.04,0.02,-0.0,23.94,-19.13,4.69,8.37,1.07,-5.13,0.05,0.02,-0.03,,,,7.49,2.98,6.46,-0.01,0.02,0.04,,,,8.78,1.25,5.28,0.01,0.02,0.01,,,,9.83,-0.12,2.83,0.0,0.02,0.01,,,,9.62,1.7,2.88,-0.34,-0.06,0.32,,,,paper
1.766271,-1.03,9.41,2.72,-0.07,0.03,0.02,23.94,-19.13,4.69,8.21,0.98,-5.17,0.05,0.04,-0.02,,,,7.54,2.82,6.28,-0.02,0.05,0.05,,,,8.75,1.07,5.06,0.0,0.04,0.02,,,,9.79,-0.24,2.69,-0.01,0.06,0.02,,,,9.5,1.62,3.15,-0.15,0.07,0.19,,,,paper
1.808193,-1.03,9.31,2.68,-0.03,0.03,0.02,23.94,-19.75,6.0,8.05,1.09,-5.02,0.05,0.03,-0.03,,,,7.31,2.85,6.14,0.0,0.04,0.05,,,,8.49,1.16,4.98,0.03,0.02,0.02,,,,9.52,-0.19,2.64,0.01,0.05,0.01,,,,9.54,1.62,3.2,-0.04,0.12,0.07,,,,paper
1.852679,-1.22,9.27,2.68,-0.03,0.03,0.02,24.31,-18.44,3.75,8.03,1.04,-5.18,0.06,0.03,-0.05,,,,7.42,2.86,6.07,0.03,0.03,0.04,,,,8.62,1.18,4.92,0.05,0.01,0.01,,,,9.59,-0.07,2.63,0.04,0.05,-0.01,,,,9.56,1.74,3.28,0.02,0.15,0.0,,,,paper
1.891165,-1.22,9.31,2.68,-0.03,0.04,-0.03,23.63,-19.06,5.75,8.11,1.02,-5.19,0.07,0.01,-0.04,,,,7.51,2.88,6.17,0.04,0.01,0.06,,,,8.73,1.18,5.02,0.06,-0.02,0.03,,,,9.7,-0.09,2.65,0.05,0.04,0.01,,,,9.62,1.75,3.3,0.06,0.15,0.0,,,,paper
1.936158,-1.07,9.38,2.72,-0.05,0.04,-0.03,23.56,-20.06,3.19,8.22,1.03,-5.07,0.07,0.02,-0.05,,,,7.35,2.89,6.27,0.05,0.03,0.05,,,,8.61,1.17,5.07,0.07,0.0,0.01,,,,9.61,-0.13,2.73,0.07,0.04,-0.02,,,,9.57,1.63,3.34,0.16,0.27,-0.04,,,,paper
1.974775,-1.11,9.34,2.8,-0.07,0.04,-0.07,25.13,-18.88,4.88,8.32,0.9,-5.24,0.09,0.01,-0.03,,,,7.6,2.91,6.36,0.05,0.03,0.05,,,,8.84,1.23,5.2,0.08,0.01,0.04,,,,9.83,-0.11,2.73,0.1,0.04,-0.02,,,,9.7,1.77,3.12,0.48,0.51,-0.11,,,,paper
2.019514,-1.3,9.19,2.76,-0.04,0.03,-0.03,25.13,-18.88,4.88,8.21,1.01,-5.13,0.11,-0.01,0.0,,,,7.42,3.02,6.34,0.01,0.03,0.1,,,,8.7,1.32,5.18,0.06,0.03,0.09,,,,9.68,0.1,2.87,0.14,0.16,0.11,,,,9.21,2.1,3.64,0.9,0.65,-0.31,,,,paper
2.062193,-1.34,9.19,2.76,-0.04,0.05,0.0,25.13,-18.88,4.88,8.09,1.01,-5.07,0.04,-0.01,-0.03,,,,7.27,2.97,6.2,-0.03,0.01,0.07,,,,8.5,1.33,5.1,0.01,0.01,0.05,,,,9.45,0.21,2.94,0.04,0.09,0.09,,,,9.2,2.44,4.36,0.78,0.67,-0.16,,,,paper
2.10447,-1.3,9.23,2.72,0.03,0.01,-0.01,24.56,-20.06,5.0,8.1,0.97,-5.11,0.01,-0.01,-0.03,,,,7.36,2.91,6.2,-0.04,-0.0,0.05,,,,8.61,1.23,5.07,-0.02,0.0,0.02,,,,9.55,0.09,2.87,-0.03,0.04,0.06,,,,9.22,2.6,4.4,0.42,0.4,-0.1,,,,paper
2.14833,-1.22,9.49,2.76,0.04,-0.01,-0.01,24.5,-18.25,5.19,8.29,0.96,-5.19,0.01,-0.04,-0.05,,,,7.47,2.95,6.31,-0.02,-0.04,0.04,,,,8.73,1.24,5.17,-0.01,-0.03,0.01,,,,9.73,0.02,2.9,-0.05,-0.0,0.03,,,,9.37,2.66,4.43,0.09,0.13,0.01,,,,paper
2.187022,-1.22,9.31,2.61,0.02,-0.01,-0.01,23.75,-19.94,4.56,8.17,0.73,-5.57,0.03,-0.06,0.01,,,,7.79,2.83,6.15,-0.06,-0.06,0.08,,,,8.98,1.03,4.88,-0.05,-0.04,0.05,,,,9.85,-0.1,2.62,-0.08,-0.01,0.08,,,,9.47,2.66,4.03,-0.07,0.04,0.14,,,,paper
2.233462,-1.53,9.27,2.57,0.1,0.04,0.04,23.75,-19.94,4.56,7.93,1.11,-5.34,0.06,-0.03,0.01,,,,7.58,3.02,5.91,-0.08,-0.05,0.11,,,,8.84,1.23,4.7,-0.05,-0.04,0.09,,,,9.77,0.06,2.42,-0.07,-0.01,0.12,,,,9.21,2.72,3.82,-0.15,0.01,0.27,,,,paper
2.272179,-1.34,9.04,2.57,0.0,0.05,0.03,23.75,-19.56,4.31,7.64,1.04,-5.19,0.04,-0.01,-0.0,,,,7.36,2.85,5.69,-0.07,-0.02,0.1,,,,8.49,1.12,4.53,-0.04,-0.02,0.08,,,,9.37,-0.08,2.34,-0.04,0.03,0.12,,,,9.02,2.26,3.5,-0.06,0.11,0.22,,,,paper
2.311415,-0.95,9.34,2.61,-0.0,0.11,-0.03,23.75,-19.56,4.31,7.73,0.83,-5.15,0.04,-0.01,-0.1,,,,7.46,2.53,5.78,0.02,0.01,0.06,,,,8.62,0.65,4.54,0.05,-0.01,0.03,,,,9.44,-0.63,2.26,0.03,0.04,0.06,,,,9.06,1.84,3.6,0.08,0.17,0.2,,,,paper
2.355836,-0.88,9.34,2.72,-0.14,0.23,-0.04,24.44,-19.56,3.31,8.25,0.68,-5.09,0.06,0.06,-0.22,,,,7.49,2.53,6.27,0.14,0.08,0.03,,,,8.68,0.76,5.12,0.16,0.04,-0.01,,,,9.6,-0.45,2.89,0.13,0.07,-0.01,,,,9.31,1.89,4.38,0.06,0.19,0.17,,,,paper
2.401605,-1.11,9.5,3.06,-0.16,0.19,-0.04,23.56,-18.56,4.0,8.89,0.84,-4.88,0.02,0.12,-0.17,,,,7.5,2.92,6.99,0.1,0.12,-0.01,,,,8.83,1.18,5.74,0.12,0.1,-0.06,,,,9.95,-0.07,3.44,0.09,0.14,-0.03,,,,9.24,1.86,4.52,-0.02,0.25,0.11,,,,paper
2.439814,-1.22,9.41,2.84,-0.22,0.05,0.0,24.38,-20.19,3.94,8.52,0.73,-5.35,0.01,0.14,-0.09,,,,7.79,2.77,6.56,0.04,0.13,0.03,,,,8.94,1.03,5.37,0.06,0.14,-0.05,,,,9.86,-0.13,3.16,0.03,0.17,0.0,,,,9.36,2.06,4.71,-0.01,0.26,0.08,,,,paper
2.485969,-1.18,9.69,3.03,-0.08,0.07,0.02,24.56,-20.06,5.0,8.68,0.99,-5.21,0.06,0.11,-0.1,,,,7.66,3.03,6.71,0.05,0.11,0.05,,,,8.98,1.24,5.54,0.07,0.11,-0.02,,,,10.03,-0.03,3.26,0.04,0.12,0.02,,,,9.31,2.0,4.67,0.03,0.19,0.08,,,,paper
2.523606,-1.41,9.57,3.33,-0.08,0.07,0.02,23.44,-19.31,3.94,9.11,0.95,-5.13,0.03,0.13,-0.01,,,,7.69,3.22,7.17,-0.06,0.12,0.06,,,,9.06,1.63,6.1,-0.03,0.14,0.01,,,,10.21,0.5,3.86,-0.05,0.16,0.07,,,,9.28,2.39,5.38,-0.06,0.15,0.09,,,,paper
2.570784,-1.41,9.27,2.76,0.02,-0.16,0.12,23.44,-19.31,3.94,8.12,1.16,-5.09,0.04,0.06,0.14,,,,7.21,3.05,6.08,-0.18,0.04,0.09,,,,8.44,1.29,4.96,-0.15,0.09,0.05,,,,9.36,0.12,2.93,-0.16,0.11,0.12,,,,8.94,2.03,4.59,-0.2,0.02,0.06,,,,paper
2.609532,-1.18,9.07,2.68,0.01,-0.1,0.08,23.44,-19.31,3.94,8.04,0.87,-5.1,0.01,0.06,0.1,,,,7.57,2.72,6.05,-0.15,0.04,0.07,,,,8.76,0.97,4.85,-0.13,0.09,0.03,,,,9.63,-0.24,2.61,-0.16,0.11,0.11,,,,9.14,1.99,4.04,-0.24,0.0,0.09,,,,paper
2.652366,-1.3,8.84,2.76,0.01,-0.1,0.08,23.06,-19.63,4.94,7.61,1.07,-4.86,-0.0,0.09,0.04,,,,6.86,2.84,5.74,-0.11,0.08,0.04,,,,7.92,1.29,4.73,-0.08,0.11,0.01,,,,8.8,0.17,2.86,-0.1,0.12,0.07,,,,8.56,1.86,4.46,-0.29,-0.0,0.13,,,,paper
2.698059,-1.14,9.19,2.84,0.09,-0.09,-0.03,22.81,-19.56,2.44,7.95,0.98,-4.85,-0.06,-0.04,0.05,,,,7.11,2.78,6.04,-0.1,-0.06,0.0,,,,8.27,1.14,4.98,-0.12,-0.03,-0.04,,,,9.22,-0.06,2.91,-0.17,-0.0,0.03,,,,8.98,1.73,4.41,-0.34,-0.09,0.11,,,,paper
2.745436,-0.84,9.49,2.84,0.0,0.02,-0.01,22.81,-19.56,2.44,8.22,0.51,-5.35,-0.01,-0.02,-0.03,,,,7.83,2.36,6.22,-0.03,-0.03,0.01,,,,8.94,0.57,5.01,-0.04,-0.01,-0.03,,,,9.81,-0.67,2.75,-0.09,0.01,0.02,,,,9.42,1.42,4.2,-0.27,-0.04,0.15,,,,paper
2.782485,-1.03,9.5,3.14,0.0,0.06,0.02,23.69,-19.38,2.88,8.74,0.68,-5.0,0.03,0.01,-0.04,,,,7.57,2.72,6.81,-0.03,0.01,0.04,,,,8.79,1.05,5.67,-0.01,0.02,0.01,,,,9.82,-0.19,3.44,-0.05,0.03,0.05,,,,9.24,1.41,4.8,-0.19,-0.01,0.14,,,,paper
2.82405,-1.26,9.19,3.14,0.01,-0.05,0.04,23.69,-19.38,2.88,8.56,0.88,-4.88,-0.0,0.02,0.05,,,,7.35,2.9,6.65,-0.13,0.01,0.05,,,,8.54,1.29,5.56,-0.1,0.03,0.02,,,,9.57,0.06,3.41,-0.13,0.05,0.08,,,,9.04,1.47,4.75,-0.21,-0.02,0.08,,,,paper
2.869479,-1.3,8.96,2.72,0.05,-0.12,0.04,24.19,-19.5,4.31,7.84,0.91,-5.06,-0.03,-0.01,0.07,,,,7.31,2.68,5.87,-0.14,-0.04,0.04,,,,8.38,1.04,4.81,-0.12,-0.01,0.02,,,,9.27,-0.19,2.69,-0.15,0.01,0.08,,,,8.96,1.4,4.13,-0.17,-0.05,0.01,,,,paper
2.913893,-1.07,9.19,2.68,0.02,-0.01,-0.03,23.69,-19.38,2.88,7.78,0.75,-5.17,-0.02,-0.02,-0.01,,,,7.43,2.49,5.76,-0.05,-0.03,0.01,,,,8.49,0.76,4.66,-0.04,-0.02,-0.02,,,,9.28,-0.43,2.56,-0.08,0.01,0.02,,,,9.05,1.29,4.07,-0.08,-0.02,-0.05,,,,paper
2.953471,-0.99,9.19,2.72,0.06,0.01,-0.04,24.5,-20.44,5.31,8.2,0.52,-5.21,0.0,-0.06,-0.04,,,,7.61,2.43,6.25,-0.0,-0.06,0.03,,,,8.71,0.79,5.16,0.0,-0.05,0.01,,,,9.65,-0.39,3.01,-0.05,-0.02,0.01,,,,9.31,1.31,4.41,-0.05,-0.07,-0.05,,,,paper
2.998567,-1.14,9.27,2.84,0.07,0.01,-0.01,24.0,-19.94,3.56,8.27,0.72,-5.07,-0.0,-0.03,-0.02,,,,7.45,2.67,6.37,-0.05,-0.03,0.03,,,,8.61,1.03,5.32,-0.04,-0.01,-0.0,,,,9.53,-0.2,3.09,-0.08,0.0,0.03,,,,9.18,1.36,4.49,-0.07,-0.05,-0.05,,,,paper
3.041095,-1.14,9.3,2.76,0.07,-0.01,-0.04,24.0,-19.94,3.56,8.1,0.71,-5.2,-0.01,-0.05,-0.03,,,,7.61,2.53,6.08,-0.04,-0.06,0.02,,,,8.71,0.83,4.97,-0.03,-0.05,-0.01,,,,9.62,-0.38,2.81,-0.08,-0.03,0.02,,,,9.29,1.42,4.24,-0.06,-0.05,-0.05,,,,paper
3.086681,-0.99,9.41,2.76,0.04,0.04,-0.03,24.0,-18.75,4.69,8.26,0.66,-5.2,0.02,-0.03,-0.08,,,,7.65,2.53,6.24,0.02,-0.03,0.02,,,,8.77,0.82,5.13,0.03,-0.04,0.0,,,,9.7,-0.4,2.94,-0.03,-0.01,0.02,,,,9.36,1.37,4.36,-0.02,-0.02,-0.01,,,,paper
3.131361,-1.03,9.61,3.1,0.0,0.02,-0.01,23.13,-20.5,3.5,8.8,0.67,-5.03,0.0,-0.01,-0.04,,,,7.61,2.74,6.87,-0.01,-0.01,0.02,,,,8.8,1.07,5.77,-0.01,0.0,-0.01,,,,9.88,-0.15,3.54,-0.04,0.01,0.03,,,,9.48,1.34,4.82,-0.05,0.0,-0.02,,,,paper
3.170562,-0.88,9.57,2.76,-0.01,-0.06,0.01,23.56,-19.19,5.0,8.69,0.41,-5.43,0.01,0.0,0.03,,,,8.05,2.51,6.7,-0.09,-0.02,0.07,,,,9.18,0.73,5.5,-0.09,0.02,0.03,,,,10.16,-0.51,3.14,-0.12,0.05,0.08,,,,9.69,1.41,4.57,-0.11,-0.02,0.03,,,,paper
3.214757,-1.22,9.57,2.8,0.01,-0.02,0.11,23.0,-19.69,4.5,8.41,0.83,-5.24,0.05,0.05,0.02,,,,7.75,2.74,6.35,-0.1,0.05,0.09,,,,8.89,1.02,5.25,-0.07,0.07,0.06,,,,9.83,-0.27,2.97,-0.08,0.09,0.12,,,,9.45,1.48,4.35,-0.1,0.01,0.08,,,,paper
3.257434,-1.37,9.31,2.8,-0.02,-0.01,0.11,23.25,-20.06,3.88,8.08,0.85,-5.15,0.01,0.08,0.04,,,,7.46,2.69,6.1,-0.13,0.07,0.05,,,,8.54,1.07,5.05,-0.09,0.09,0.03,,,,9.46,-0.09,2.97,-0.11,0.11,0.1,,,,9.15,1.49,4.38,-0.14,0.03,0.09,,,,paper
3.297082,-0.99,9.15,2.76,0.02,-0.04,0.05,23.25,-20.06,3.88,7.9,0.89,-4.92,-0.02,0.05,-0.0,,,,7.28,2.58,5.98,-0.09,0.05,0.03,,,,8.31,0.9,4.91,-0.07,0.07,-0.0,,,,9.2,-0.36,2.8,-0.09,0.1,0.07,,,,9.06,1.18,4.15,-0.11,0.04,0.08,,,,paper
3.337023,-0.91,9.15,2.68,-0.05,-0.0,-0.01,23.25,-20.06,3.88,8.04,0.57,-5.09,-0.07,0.03,-0.05,,,,7.39,2.45,6.12,-0.06,0.06,-0.03,,,,8.53,0.77,5.08,-0.06,0.05,-0.08,,,,9.43,-0.54,2.85,-0.08,0.05,0.01,,,,9.33,1.15,4.12,-0.05,0.04,0.05,,,,paper
3.382806,-1.11,9.34,2.72,-0.04,0.04,-0.01,22.94,-20.44,4.5,8.1,0.75,-5.1,-0.06,0.02,-0.04,,,,7.42,2.55,6.07,-0.06,0.05,-0.05,,,,8.43,0.99,5.14,-0.07,0.07,-0.11,,,,9.42,-0.26,2.99,-0.07,0.06,-0.0,,,,9.2,1.26,4.35,-0.02,0.07,0.06,,,,paper
3.427139,-1.14,9.23,2.76,0.01,0.01,-0.03,22.94,-20.44,4.5,8.13,0.71,-5.23,-0.05,-0.0,-0.03,,,,7.62,2.54,6.14,-0.07,0.0,-0.02,,,,8.7,0.8,5.03,-0.09,0.04,-0.11,,,,9.55,-0.37,2.87,-0.09,0.03,0.02,,,,9.16,1.3,4.43,-0.05,0.03,0.05,,,,paper
3.465984,-0.95,9.38,2.8,0.02,0.02,-0.02,24.5,-19.81,4.31,8.28,0.62,-5.26,-0.0,-0.02,-0.05,,,,7.73,2.43,6.25,-0.02,-0.02,0.02,,,,8.79,0.7,5.17,-0.02,-0.0,-0.04,,,,9.7,-0.49,2.99,-0.04,0.0,0.04,,,,9.35,1.16,4.42,-0.02,0.01,0.03,,,,paper
3.518124,-0.88,9.53,2.84,0.01,0.02,0.02,24.5,-19.81,4.31,8.55,0.53,-5.2,0.03,0.01,-0.04,,,,7.77,2.48,6.61,-0.03,0.01,0.06,,,,8.89,0.76,5.45,-0.01,0.02,0.03,,,,9.84,-0.53,3.13,-0.03,0.04,0.06,,,,9.46,1.08,4.44,-0.03,0.03,0.03,,,,paper
3.549834,-1.03,9.49,2.76,-0.03,0.01,0.05,23.5,-19.56,4.94,8.23,0.78,-5.15,0.04,0.03,-0.03,,,,7.52,2.61,6.26,-0.03,0.04,0.05,,,,8.61,0.96,5.21,-0.01,0.04,0.02,,,,9.56,-0.36,3.0,-0.02,0.06,0.05,,,,9.28,1.2,4.43,-0.04,0.04,0.01,,,,paper
3.591547,-1.22,9.07,2.72,0.0,0.01,0.01,22.31,-21.06,3.38,7.98,0.78,-5.18,0.03,0.01,-0.02,,,,7.48,2.57,6.01,-0.03,0.01,0.06,,,,8.53,0.92,4.97,-0.01,0.02,0.03,,,,9.42,-0.34,2.8,-0.03,0.04,0.06,,,,9.12,1.23,4.28,-0.06,0.02,0.01,,,,paper
3.633945,-0.95,9.23,2.72,0.0,0.01,0.01,23.13,-20.5,3.44,7.85,0.64,-5.17,0.04,0.02,-0.09,,,,7.46,2.38,5.91,0.05,0.01,0.05,,,,8.49,0.62,4.82,0.07,-0.0,0.03,,,,9.33,-0.61,2.68,0.03,0.02,0.01,,,,9.23,1.0,4.05,0.01,0.04,-0.01,,,,paper
3.678838,-0.95,9.3,2.84,-0.03,0.14,-0.04,24.06,-19.63,3.19,8.42,0.65,-5.11,0.06,0.01,-0.13,,,,7.55,2.5,6.43,0.08,0.01,0.04,,,,8.66,0.86,5.43,0.11,-0.01,0.03,,,,9.66,-0.41,3.24,0.06,0.01,0.01,,,,9.36,1.08,4.59,0.05,0.03,-0.01,,,,paper
3.725593,-0.88,9.65,2.95,-0.02,0.07,0.0,23.69,-18.75,5.38,8.82,0.52,-5.16,0.05,0.05,-0.07,,,,7.86,2.5,6.8,0.03,0.05,0.05,,,,9.03,0.79,5.73,0.06,0.04,0.04,,,,10.06,-0.53,3.34,0.03,0.07,0.03,,,,9.68,1.14,4.64,0.01,0.08,0.0,,,,paper
3.76457,-0.91,9.57,2.91,-0.1,0.03,0.07,23.81,-18.94,3.31,8.61,0.55,-5.29,0.07,0.1,-0.05,,,,7.84,2.52,6.61,0.01,0.11,0.09,,,,8.93,0.77,5.51,0.05,0.1,0.06,,,,9.93,-0.53,3.22,0.04,0.12,0.07,,,,9.61,1.12,4.58,0.01,0.12,0.05,,,,paper
3.806638,-1.14,9.53,2.91,-0.08,0.05,0.09,23.63,-20.0,3.94,8.57,0.72,-5.22,0.08,0.11,-0.04,,,,7.73,2.69,6.54,-0.02,0.12,0.08,,,,8.84,0.94,5.5,0.03,0.12,0.06,,,,9.86,-0.31,3.25,0.02,0.13,0.08,,,,9.49,1.25,4.64,-0.01,0.12,0.06,,,,paper
3.849045,-1.14,9.34,2.87,-0.09,0.04,0.09,23.25,-18.56,4.69,8.32,0.73,-5.17,0.08,0.13,-0.03,,,,7.58,2.56,6.31,-0.03,0.14,0.08,,,,8.67,0.87,5.26,0.03,0.14,0.06,,,,9.61,-0.39,3.08,0.02,0.15,0.09,,,,9.33,1.2,4.54,-0.02,0.13,0.07,,,,paper
3.893361,-0.95,9.15,2.84,-0.06,0.05,0.09,22.25,-19.81,4.5,8.26,0.64,-5.03,0.08,0.1,-0.04,,,,7.44,2.5,6.35,-0.02,0.11,0.09,,,,8.5,0.88,5.35,0.03,0.11,0.07,,,,9.5,-0.4,3.15,0.03,0.12,0.11,,,,9.16,1.12,4.59,-0.02,0.09,0.07,,,,paper
3.933093,-1.03,9.23,2.8,-0.07,0.01,0.08,22.0,-20.69,3.69,8.29,0.64,-4.97,0.07,0.1,-0.02,,,,7.38,2.51,6.39,-0.04,0.12,0.08,,,,8.45,0.9,5.38,0.01,0.11,0.06,,,,9.42,-0.35,3.24,0.02,0.13,0.1,,,,9.13,1.08,4.62,-0.04,0.09,0.06,,,,paper
3.976948,-0.99,9.23,2.91,-0.06,0.01,0.07,23.13,-19.31,4.63,8.39,0.6,-4.95,0.06,0.09,-0.0,,,,7.45,2.5,6.48,-0.06,0.1,0.07,,,,8.53,0.87,5.47,-0.01,0.1,0.05,,,,9.49,-0.33,3.3,-0.02,0.11,0.09,,,,9.19,1.15,4.69,-0.06,0.08,0.06,,,,paper
4.019586,-1.07,9.04,2.87,-0.03,-0.02,0.1,22.25,-21.06,2.94,8.27,0.66,-4.9,0.05,0.08,0.04,,,,7.28,2.55,6.38,-0.1,0.08,0.09,,,,8.37,0.96,5.42,-0.06,0.08,0.06,,,,9.32,-0.25,3.28,-0.07,0.1,0.12,,,,9.03,1.13,4.65,-0.1,0.05,0.07,,,,paper
4.058108,-1.03,8.99,2.84,-0.01,-0.06,0.08,22.25,-21.06,2.94,8.05,0.73,-4.83,0.03,0.07,0.04,,,,7.18,2.5,6.18,-0.1,0.06,0.06,,,,8.25,0.89,5.18,-0.07,0.08,0.04,,,,9.19,-0.31,3.08,-0.08,0.09,0.09,,,,8.91,1.09,4.49,-0.11,0.04,0.05,,,,paper
4.104371,-0.88,8.93,2.8,-0.01,-0.04,0.05,22.38,-19.38,4.88,7.94,0.62,-4.82,0.01,0.04,0.02,,,,7.15,2.37,6.06,-0.08,0.03,0.04,,,,8.14,0.78,5.12,-0.06,0.05,0.01,,,,9.05,-0.39,3.06,-0.08,0.06,0.07,,,,8.82,0.99,4.46,-0.1,0.02,0.02,,,,paper
4.143298,-0.8,9.0,2.84,0.03,-0.03,0.02,19.88,-20.88,2.38,7.97,0.58,-4.8,0.01,0.01,-0.0,,,,7.15,2.27,6.09,-0.05,0.01,0.04,,,,8.16,0.66,5.1,-0.03,0.02,0.01,,,,9.07,-0.58,3.02,-0.06,0.03,0.06,,,,8.9,0.87,4.42,-0.08,0.0,-0.0,,,,paper
4.187154,-0.88,9.27,3.03,0.02,0.02,-0.04,19.88,-20.88,2.38,8.32,0.6,-4.81,-0.01,-0.01,-0.05,,,,7.28,2.43,6.45,-0.01,-0.01,0.0,,,,8.35,0.8,5.45,0.0,-0.01,-0.02,,,,9.35,-0.47,3.3,-0.04,0.01,0.01,,,,9.12,0.95,4.61,-0.04,0.0,-0.05,,,,paper
4.226948,-0.88,9.38,3.1,-0.01,0.01,-0.04,22.63,-20.63,3.06,8.58,0.52,-4.95,-0.01,0.01,-0.04,,,,7.55,2.45,6.65,-0.02,0.01,0.0,,,,8.64,0.78,5.63,-0.01,0.01,-0.02,,,,9.65,-0.49,3.41,-0.05,0.03,0.02,,,,9.35,1.06,4.75,-0.05,0.02,-0.04,,,,paper
4.270903,-0.84,9.38,3.06,-0.03,-0.01,0.01,22.63,-20.63,3.06,8.63,0.48,-4.97,-0.01,0.02,-0.02,,,,7.55,2.41,6.69,-0.04,0.02,0.01,,,,8.63,0.73,5.65,-0.03,0.03,-0.01,,,,9.63,-0.51,3.47,-0.06,0.05,0.03,,,,9.28,1.01,4.87,-0.06,0.03,-0.02,,,,paper
4.30975,-0.8,9.27,2.95,-0.01,-0.02,0.02,23.19,-20.44,4.13,8.48,0.44,-4.94,-0.01,0.02,-0.0,,,,7.48,2.32,6.57,-0.07,0.02,0.02,,,,8.52,0.68,5.56,-0.05,0.02,-0.0,,,,9.49,-0.56,3.38,-0.08,0.04,0.05,,,,9.23,0.94,4.72,-0.08,0.01,-0.01,,,,paper
4.350602,-0.76,9.19,2.95,0.01,-0.03,0.01,21.63,-19.81,2.31,8.31,0.49,-4.91,0.0,0.02,-0.01,,,,7.35,2.3,6.39,-0.06,0.02,0.03,,,,8.42,0.65,5.4,-0.04,0.02,0.0,,,,9.34,-0.61,3.22,-0.07,0.04,0.04,,,,9.12,0.87,4.58,-0.07,0.01,-0.02,,,,paper
4.393076,-0.84,9.19,2.95,0.01,-0.03,0.01,22.38,-20.94,4.0,8.35,0.5,-4.89,-0.0,0.01,-0.03,,,,7.38,2.36,6.46,-0.04,0.01,0.02,,,,8.43,0.71,5.44,-0.02,0.01,-0.01,,,,9.4,-0.54,3.29,-0.05,0.03,0.03,,,,9.16,0.97,4.66,-0.06,0.01,-0.03,,,,paper
4.434799,-0.88,9.15,2.95,0.01,-0.01,-0.01,21.69,-21.31,1.88,8.36,0.51,-4.9,-0.0,0.01,-0.03,,,,7.41,2.35,6.48,-0.04,0.01,0.02,,,,8.42,0.7,5.42,-0.02,0.01,-0.01,,,,9.4,-0.56,3.28,-0.05,0.03,0.03,,,,9.14,0.97,4.65,-0.07,0.01,-0.03,,,,paper
4.481259,-0.88,9.34,2.95,0.0,0.01,-0.01,22.25,-20.19,4.81,8.4,0.58,-4.91,-0.01,0.02,-0.04,,,,7.44,2.41,6.47,-0.02,0.02,0.0,,,,8.48,0.76,5.48,-0.01,0.02,-0.03,,,,9.47,-0.51,3.3,-0.04,0.05,0.02,,,,9.2,0.96,4.62,-0.05,0.03,-0.04,,,,paper
4.518019,-0.88,9.3,3.03,-0.04,0.01,-0.02,21.25,-19.88,2.25,8.54,0.49,-4.98,-0.01,0.01,-0.05,,,,7.52,2.41,6.64,-0.02,0.02,0.0,,,,8.57,0.77,5.62,-0.0,0.02,-0.03,,,,9.58,-0.48,3.45,-0.04,0.04,0.02,,,,9.28,1.04,4.81,-0.05,0.02,-0.04,,,,paper
4.564582,-0.91,9.34,3.06,-0.02,-0.04,0.02,21.25,-19.88,2.25,8.62,0.56,-4.89,-0.01,0.03,-0.01,,,,7.49,2.46,6.73,-0.07,0.03,0.02,,,,8.59,0.81,5.68,-0.04,0.04,-0.01,,,,9.59,-0.43,3.48,-0.07,0.07,0.05,,,,9.25,1.07,4.81,-0.09,0.03,-0.01,,,,paper
4.603334,-0.91,9.15,2.91,-0.02,-0.05,0.02,21.13,-20.63,2.56,8.3,0.62,-4.87,-0.01,0.05,-0.01,,,,7.36,2.4,6.4,-0.07,0.05,0.01,,,,8.43,0.73,5.35,-0.04,0.06,-0.01,,,,9.38,-0.54,3.19,-0.07,0.09,0.04,,,,9.12,1.03,4.55,-0.09,0.05,-0.01,,,,paper
4.648235,-0.88,8.96,2.95,-0.02,-0.01,-0.01,21.13,-20.63,2.56,8.11,0.6,-4.81,-0.02,0.03,-0.03,,,,7.18,2.36,6.23,-0.04,0.03,-0.0,,,,8.18,0.76,5.28,-0.02,0.03,-0.03,,,,9.14,-0.46,3.26,-0.05,0.06,0.02,,,,8.9,0.95,4.66,-0.07,0.03,-0.03,,,,paper
4.687003,-0.8,9.15,2.99,-0.02,-0.01,-0.01,22.25,-20.38,2.63,8.39,0.45,-4.85,-0.03,-0.0,-0.04,,,,7.37,2.33,6.52,-0.02,-0.01,-0.01,,,,8.43,0.67,5.51,-0.02,-0.01,-0.03,,,,9.37,-0.57,3.36,-0.05,0.03,0.02,,,,9.11,0.95,4.74,-0.07,-0.0,-0.05,,,,paper
4.731112,-0.84,9.38,2.99,-0.0,-0.01,-0.03,22.25,-20.38,2.63,8.48,0.49,-4.91,-0.03,0.01,-0.03,,,,7.44,2.42,6.58,-0.03,0.0,-0.02,,,,8.51,0.74,5.54,-0.02,0.0,-0.05,,,,9.49,-0.53,3.4,-0.06,0.03,0.0,,,,9.22,0.99,4.73,-0.08,0.01,-0.06,,,,paper
4.767448,-0.91,9.27,2.99,0.01,-0.03,-0.02,22.81,-19.31,4.94,8.46,0.5,-4.99,-0.03,0.0,-0.02,,,,7.56,2.4,6.53,-0.05,0.0,-0.0,,,,8.6,0.74,5.49,-0.04,0.01,-0.03,,,,9.54,-0.5,3.35,-0.08,0.03,0.01,,,,9.26,1.07,4.69,-0.09,0.01,-0.05,,,,paper
4.81232,-0.8,9.31,3.03,0.0,0.0,-0.01,22.81,-19.31,4.94,8.39,0.52,-4.93,-0.01,0.01,-0.03,,,,7.44,2.35,6.44,-0.03,0.01,0.0,,,,8.51,0.65,5.43,-0.02,0.01,-0.02,,,,9.43,-0.62,3.3,-0.06,0.02,0.01,,,,9.23,0.98,4.67,-0.07,0.01,-0.04,,,,paper
4.850291,-0.76,9.27,3.1,-0.01,0.01,-0.02,22.81,-19.31,4.94,8.6,0.44,-4.89,-0.01,0.02,-0.04,,,,7.47,2.38,6.73,-0.03,0.02,0.0,,,,8.54,0.73,5.71,-0.01,0.02,-0.02,,,,9.56,-0.52,3.56,-0.06,0.03,0.01,,,,9.2,0.96,4.85,-0.07,0.03,-0.03,,,,paper
4.890024,-0.8,9.31,3.1,0.01,-0.04,0.0,21.5,-20.56,2.56,8.59,0.45,-4.87,-0.02,0.02,-0.0,,,,7.44,2.39,6.71,-0.06,0.01,0.01,,,,8.53,0.73,5.67,-0.04,0.02,-0.02,,,,9.54,-0.58,3.5,-0.08,0.04,0.03,,,,9.25,0.98,4.84,-0.09,0.02,-0.03,,,,paper
4.933049,-0.8,9.38,2.91,0.0,-0.04,0.01,21.5,-20.56,2.56,8.48,0.42,-5.04,-0.01,0.03,0.0,,,,7.59,2.31,6.53,-0.07,0.03,0.01,,,,8.65,0.59,5.46,-0.05,0.03,-0.01,,,,9.59,-0.69,3.27,-0.07,0.06,0.04,,,,9.35,0.96,4.64,-0.1,0.02,-0.01,,,,paper
4.976539,-0.84,9.3,2.99,-0.01,-0.01,0.03,21.5,-20.56,2.56,8.52,0.4,-5.04,0.02,0.03,-0.01,,,,7.62,2.34,6.57,-0.06,0.03,0.04,,,,8.66,0.64,5.55,-0.03,0.04,0.02,,,,9.6,-0.61,3.36,-0.06,0.06,0.06,,,,9.33,1.02,4.71,-0.08,0.02,0.03,,,,paper
5.015668,-0.84,9.23,3.03,-0.01,-0.01,0.05,21.5,-20.56,2.56,8.45,0.46,-4.89,0.02,0.04,-0.0,,,,7.42,2.42,6.57,-0.06,0.04,0.05,,,,8.47,0.72,5.53,-0.04,0.05,0.03,,,,9.45,-0.54,3.4,-0.06,0.07,0.07,,,,9.15,0.97,4.71,-0.08,0.03,0.04,,,,paper
5.056206,-0.88,9.07,3.03,-0.01,-0.01,0.05,21.88,-20.5,2.31,8.29,0.55,-4.81,0.01,0.04,-0.01,,,,7.25,2.39,6.39,-0.05,0.05,0.03,,,,8.3,0.74,5.4,-0.03,0.05,0.01,,,,9.25,-0.51,3.33,-0.05,0.06,0.05,,,,9.02,0.95,4.67,-0.07,0.04,0.01,,,,paper
5.100648,-0.84,9.15,2.91,-0.01,0.01,0.01,21.88,-20.5,2.31,8.25,0.51,-4.84,0.01,0.02,-0.03,,,,7.3,2.34,6.36,-0.04,0.03,0.03,,,,8.34,0.7,5.35,-0.01,0.03,0.0,,,,9.28,-0.56,3.26,-0.04,0.05,0.04,,,,9.05,0.94,4.61,-0.05,0.03,0.0,,,,paper
5.13809,-0.8,9.15,2.91,-0.02,0.01,0.0,21.88,-20.5,2.31,8.35,0.43,-4.9,0.02,0.02,-0.04,,,,7.39,2.33,6.45,-0.03,0.02,0.03,,,,8.44,0.67,5.43,-0.0,0.02,0.01,,,,9.37,-0.59,3.28,-0.03,0.04,0.04,,,,9.14,0.92,4.62,-0.04,0.02,0.0,,,,paper
5.184246,-0.84,9.15,3.03,-0.03,0.03,-0.0,21.88,-20.5,2.31,8.47,0.43,-4.92,0.01,0.02,-0.05,,,,7.41,2.35,6.56,-0.01,0.02,0.02,,,,8.47,0.71,5.55,0.01,0.02,-0.01,,,,9.45,-0.52,3.45,-0.03,0.04,0.02,,,,9.12,0.98,4.84,-0.04,0.03,-0.01,,,,paper
5.221714,-0.8,9.27,3.06,-0.03,0.03,-0.0,21.63,-21.38,1.5,8.5,0.45,-4.87,0.01,0.01,-0.04,,,,7.41,2.34,6.63,-0.03,0.01,0.03,,,,8.48,0.7,5.57,-0.0,0.02,0.0,,,,9.45,-0.58,3.43,-0.04,0.03,0.04,,,,9.16,0.94,4.76,-0.06,0.02,-0.01,,,,paper
5.26786,-0.76,9.27,3.03,-0.02,0.0,0.01,21.63,-21.38,1.5,8.5,0.39,-4.89,0.01,0.02,-0.03,,,,7.45,2.33,6.62,-0.03,0.03,0.02,,,,8.51,0.68,5.6,-0.01,0.03,-0.01,,,,9.52,-0.59,3.46,-0.04,0.05,0.04,,,,9.19,0.93,4.77,-0.06,0.02,-0.01,,,,paper
5.307459,-0.8,9.27,3.03,-0.02,0.0,0.01,21.63,-21.94,2.75,8.5,0.41,-4.91,0.02,0.03,-0.02,,,,7.46,2.32,6.59,-0.04,0.03,0.03,,,,8.51,0.65,5.55,-0.02,0.04,0.0,,,,9.47,-0.62,3.41,-0.04,0.06,0.05,,,,9.22,0.91,4.72,-0.04,0.04,0.01,,,,paper
5.350545,-0.76,9.27,2.99,-0.01,0.01,0.02,22.0,-21.63,1.81,8.49,0.36,-4.88,0.02,0.03,-0.02,,,,7.44,2.25,6.58,-0.04,0.03,0.04,,,,8.49,0.58,5.54,-0.02,0.04,0.01,,,,9.42,-0.69,3.4,-0.05,0.06,0.05,,,,9.17,0.88,4.75,-0.06,0.03,0.0,,,,paper
5.394909,-0.68,9.11,3.03,-0.02,0.01,0.03,21.25,-21.94,2.81,8.4,0.39,-4.8,0.02,0.03,-0.03,,,,7.31,2.28,6.55,-0.03,0.03,0.03,,,,8.33,0.65,5.54,-0.01,0.03,0.0,,,,9.3,-0.61,3.46,-0.04,0.05,0.05,,,,9.07,0.88,4.81,-0.05,0.03,-0.0,,,,paper
5.437281,-0.88,9.15,3.03,-0.01,0.01,0.02,21.44,-20.94,2.5,8.37,0.48,-4.83,0.02,0.02,-0.03,,,,7.29,2.38,6.52,-0.04,0.01,0.04,,,,8.35,0.74,5.51,-0.02,0.02,0.0,,,,9.32,-0.51,3.43,-0.05,0.04,0.05,,,,9.04,0.95,4.77,-0.06,0.01,0.0,,,,paper
5.474589,-0.8,9.15,3.03,0.02,0.0,0.0,21.44,-20.94,2.5,8.36,0.49,-4.85,0.01,0.01,-0.03,,,,7.32,2.37,6.47,-0.03,0.01,0.03,,,,8.36,0.73,5.45,-0.02,0.01,-0.0,,,,9.39,-0.6,3.38,-0.05,0.03,0.04,,,,9.04,0.93,4.74,-0.05,0.01,-0.01,,,,paper
5.517185,-0.8,9.15,3.03,0.01,0.01,-0.01,22.31,-21.31,4.0,8.41,0.43,-4.82,0.01,-0.01,-0.04,,,,7.32,2.31,6.55,-0.02,-0.01,0.02,,,,8.39,0.66,5.56,-0.01,-0.0,-0.01,,,,9.34,-0.61,3.44,-0.05,0.02,0.03,,,,9.16,0.9,4.77,-0.05,-0.01,-0.02,,,,paper
5.562488,-0.72,9.31,3.1,0.02,0.0,-0.01,22.31,-21.31,4.0,8.59,0.4,-4.79,0.01,-0.01,-0.03,,,,7.39,2.33,6.72,-0.03,-0.01,0.02,,,,8.45,0.65,5.67,-0.02,-0.0,-0.0,,,,9.44,-0.64,3.54,-0.05,0.02,0.04,,,,9.18,0.87,4.87,-0.06,-0.0,-0.02,,,,paper
5.606987,-0.68,9.3,3.03,-0.01,0.0,0.0,22.31,-21.31,4.0,8.61,0.3,-4.92,0.0,0.01,-0.03,,,,7.55,2.25,6.73,-0.03,0.01,0.02,,,,8.59,0.59,5.71,-0.02,0.01,-0.01,,,,9.58,-0.69,3.53,-0.05,0.03,0.03,,,,9.3,0.88,4.81,-0.07,0.01,-0.01,,,,paper
5.646378,-0.72,9.23,3.1,0.01,-0.01,0.04,22.31,-21.31,4.0,8.54,0.35,-4.85,0.02,0.02,-0.01,,,,7.43,2.28,6.67,-0.06,0.02,0.04,,,,8.48,0.62,5.66,-0.04,0.03,0.01,,,,9.44,-0.65,3.53,-0.07,0.05,0.06,,,,9.18,0.84,4.8,-0.08,0.01,0.02,,,,paper
5.690084,-0.76,9.15,3.03,-0.01,-0.01,0.01,22.31,-21.31,4.0,8.43,0.42,-4.8,0.0,0.03,-0.02,,,,7.3,2.31,6.59,-0.05,0.03,0.03,,,,8.34,0.68,5.58,-0.03,0.03,0.0,,,,9.33,-0.62,3.47,-0.06,0.05,0.05,,,,9.1,0.86,4.78,-0.08,0.01,0.01,,,,paper
5.733927,-0.76,9.19,3.03,-0.01,-0.01,0.01,22.0,-19.75,2.06,8.37,0.45,-4.84,-0.0,0.03,-0.02,,,,7.33,2.29,6.49,-0.05,0.02,0.02,,,,8.37,0.63,5.46,-0.03,0.03,-0.01,,,,9.3,-0.66,3.35,-0.06,0.05,0.04,,,,9.08,0.86,4.7,-0.07,0.02,-0.0,,,,paper
5.776192,-0.8,9.11,2.99,-0.01,0.0,0.0,22.0,-19.75,2.06,8.31,0.45,-4.87,-0.0,0.01,-0.03,,,,7.32,2.31,6.43,-0.03,0.01,0.02,,,,8.33,0.68,5.45,-0.02,0.01,-0.02,,,,9.28,-0.6,3.38,-0.06,0.03,0.03,,,,9.08,0.88,4.74,-0.07,0.01,-0.01,,,,paper
5.820589,-0.76,9.27,3.03,0.01,0.0,-0.01,22.19,-20.5,1.94,8.39,0.41,-4.92,0.0,0.0,-0.04,,,,7.45,2.29,6.51,-0.02,0.0,0.02,,,,8.47,0.61,5.49,-0.01,0.01,-0.01,,,,9.43,-0.69,3.36,-0.05,0.03,0.03,,,,9.18,0.89,4.71,-0.05,0.0,-0.01,,,,paper
5.867119,-0.8,9.34,3.1,-0.02,0.01,-0.0,22.19,-20.5,1.94,8.55,0.41,-4.87,-0.0,0.02,-0.05,,,,7.46,2.33,6.68,-0.02,0.02,0.01,,,,8.5,0.67,5.65,-0.0,0.02,-0.02,,,,9.45,-0.63,3.51,-0.04,0.04,0.02,,,,9.22,0.89,4.83,-0.05,0.02,-0.03,,,,paper
5.906424,-0.72,9.27,2.99,-0.02,0.01,-0.0,22.25,-20.75,2.63,8.57,0.33,-4.94,0.01,0.02,-0.03,,,,7.51,2.28,6.68,-0.04,0.02,0.03,,,,8.57,0.62,5.67,-0.02,0.02,-0.01,,,,9.52,-0.71,3.49,-0.06,0.04,0.03,,,,9.27,0.86,4.78,-0.07,0.02,-0.01,,,,paper
5.949937,-0.72,9.23,2.99,-0.03,0.0,0.02,22.25,-20.75,2.63,8.46,0.31,-4.97,0.02,0.03,-0.02,,,,7.49,2.23,6.56,-0.04,0.03,0.04,,,,8.53,0.55,5.53,-0.02,0.04,0.01,,,,9.45,-0.7,3.44,-0.05,0.04,0.04,,,,9.21,0.85,4.74,-0.07,0.03,0.01,,,,paper
5.995371,-0.72,9.15,3.03,-0.01,0.0,0.02,22.19,-20.5,1.63,8.36,0.34,-4.83,0.02,0.03,-0.02,,,,7.32,2.22,6.5,-0.04,0.03,0.04,,,,8.34,0.6,5.5,-0.02,0.03,0.01,,,,9.29,-0.69,3.4,-0.05,0.05,0.05,,,,9.08,0.82,4.76,-0.06,0.02,0.0,,,,paper
6.037891,-0.68,9.07,2.95,0.03,-0.0,0.01,21.25,-21.13,1.13,8.29,0.39,-4.8,0.02,0.0,-0.03,,,,7.31,2.22,6.43,-0.04,0.01,0.04,,,,8.32,0.57,5.42,-0.02,0.01,0.01,,,,9.25,-0.74,3.31,-0.05,0.03,0.05,,,,9.09,0.77,4.63,-0.06,-0.0,0.0,,,,paper
6.076934,-0.76,9.15,2.95,-0.01,0.02,0.0,21.0,-20.13,4.0,8.35,0.34,-4.92,0.01,0.0,-0.04,,,,7.41,2.26,6.47,-0.03,0.0,0.03,,,,8.42,0.61,5.49,-0.01,0.01,0.0,,,,9.37,-0.67,3.39,-0.04,0.02,0.04,,,,9.16,0.88,4.71,-0.05,-0.0,0.0,,,,paper
6.116999,-0.72,9.23,2.99,0.03,0.02,0.01,21.0,-20.13,4.0,8.42,0.37,-4.86,0.02,0.01,-0.03,,,,7.43,2.25,6.53,-0.03,0.01,0.05,,,,8.45,0.59,5.5,-0.01,0.01,0.02,,,,9.38,-0.7,3.38,-0.04,0.03,0.06,,,,9.18,0.83,4.6,-0.05,0.0,0.02,,,,paper
6.162944,-0.68,9.19,2.99,0.01,0.03,-0.02,21.0,-20.13,4.0,8.26,0.36,-4.87,0.01,-0.02,-0.05,,,,7.29,2.26,6.46,0.01,-0.02,0.05,,,,8.29,0.54,5.36,0.02,-0.01,0.01,,,,9.22,-0.79,3.3,-0.03,0.01,0.04,,,,9.03,0.72,4.62,-0.02,0.01,-0.0,,,,paper
6.201745,-0.68,9.19,2.91,0.01,0.03,-0.02,22.06,-20.38,3.31,8.33,0.34,-4.88,0.01,-0.01,-0.08,,,,7.41,2.18,6.43,0.03,-0.01,0.04,,,,8.45,0.54,5.43,0.03,-0.0,-0.02,,,,9.34,-0.76,3.32,-0.01,0.02,0.02,,,,9.15,0.77,4.56,0.0,0.02,-0.03,,,,paper
6.243343,-0.64,9.19,2.87,-0.03,0.07,-0.02,22.06,-20.38,3.31,8.27,0.31,-4.95,0.02,-0.0,-0.09,,,,7.41,2.16,6.41,0.05,-0.0,0.04,,,,8.41,0.52,5.4,0.05,0.01,-0.02,,,,9.27,-0.76,3.31,0.01,0.02,0.02,,,,9.11,0.81,4.71,0.04,0.04,-0.03,,,,paper
6.285135,-0.68,9.38,2.95,0.06,0.07,-0.02,22.06,-20.38,3.31,8.41,0.29,-4.99,0.04,-0.03,-0.09,,,,7.55,2.19,6.51,0.04,-0.02,0.05,,,,8.55,0.5,5.49,0.05,-0.03,0.01,,,,9.48,-0.8,3.36,0.01,-0.02,0.04,,,,9.24,0.8,4.69,0.03,-0.0,-0.02,,,,paper
6.324082,-0.68,9.42,2.95,0.0,0.09,0.0,22.06,-20.38,3.31,8.47,0.22,-5.11,0.05,-0.01,-0.1,,,,7.67,2.14,6.53,0.04,0.0,0.05,,,,8.69,0.45,5.52,0.06,-0.01,0.02,,,,9.63,-0.9,3.33,0.03,0.0,0.04,,,,9.39,0.79,4.64,0.03,0.01,-0.01,,,,paper
6.368113,-0.68,9.34,2.99,0.01,0.11,0.04,22.06,-20.38,3.31,8.54,0.2,-5.09,0.08,-0.0,-0.1,,,,7.7,2.14,6.58,0.05,0.01,0.08,,,,8.71,0.5,5.6,0.07,0.01,0.05,,,,9.63,-0.83,3.43,0.04,0.02,0.07,,,,9.37,0.85,4.74,0.04,0.01,0.03,,,,paper
6.40732,-0.72,9.27,2.87,0.01,0.1,0.05,21.56,-20.81,3.25,8.35,0.25,-5.05,0.1,0.01,-0.08,,,,7.58,2.14,6.44,0.03,0.02,0.11,,,,8.6,0.65,5.64,0.04,0.04,0.06,,,,9.42,-0.86,3.27,0.03,0.02,0.09,,,,9.26,0.8,4.59,0.03,0.01,0.05,,,,paper
6.449464,-0.72,9.27,2.87,0.01,0.1,0.05,20.88,-22.0,2.75,8.34,0.34,-4.95,0.11,0.03,-0.1,,,,7.52,2.23,6.4,0.07,0.04,0.12,,,,8.54,0.56,5.39,0.11,0.06,0.1,,,,9.5,-0.91,3.12,0.08,0.05,0.08,,,,9.29,0.84,4.43,0.07,0.05,0.05,,,,paper
6.494786,-0.76,9.15,2.84,-0.04,0.17,0.06,20.88,-22.0,2.75,8.15,0.31,-5.05,0.14,0.01,-0.12,,,,7.52,2.13,6.24,0.11,0.02,0.15,,,,8.32,0.5,5.24,0.14,0.04,0.13,,,,9.22,-0.76,3.24,0.1,0.03,0.1,,,,9.1,0.82,4.63,0.1,0.03,0.05,,,,paper
6.537118,-0.72,9.23,2.87,0.03,0.17,0.04,20.88,-22.0,2.75,8.26,0.3,-5.06,0.15,-0.01,-0.15,,,,7.58,2.11,6.3,0.13,0.01,0.14,,,,8.5,0.44,5.35,0.15,-0.0,0.11,,,,9.37,-0.88,3.23,0.13,-0.01,0.1,,,,9.22,0.81,4.6,0.12,0.01,0.05,,,,paper
6.582566,-0.72,9.38,2.87,0.02,0.2,0.04,20.69,-22.81,2.69,8.48,0.26,-5.12,0.18,-0.01,-0.17,,,,7.74,2.18,6.51,0.15,0.03,0.15,,,,8.72,0.42,5.48,0.18,0.0,0.11,,,,9.65,-0.89,3.3,0.16,-0.01,0.1,,,,9.4,0.88,4.64,0.14,0.01,0.07,,,,paper
6.628024,-0.72,9.38,2.95,0.0,0.22,0.1,21.56,-20.81,3.25,8.45,0.32,-5.05,0.2,0.02,-0.16,,,,7.64,2.2,6.47,0.14,0.07,0.17,,,,8.61,0.5,5.49,0.18,0.03,0.14,,,,9.51,-0.82,3.34,0.17,0.01,0.13,,,,9.3,0.85,4.64,0.14,0.04,0.1,,,,paper
6.666595,-0.84,9.23,2.99,0.0,0.22,0.1,21.31,-20.44,4.0,8.42,0.4,-5.0,0.21,0.03,-0.18,,,,7.57,2.29,6.47,0.16,0.07,0.17,,,,8.51,0.62,5.54,0.19,0.02,0.13,,,,9.46,-0.66,3.44,0.17,0.0,0.12,,,,9.19,0.92,4.74,0.15,0.04,0.1,,,,paper
6.709456,-0.91,9.3,3.06,-0.01,0.23,0.09,21.19,-22.0,2.38,8.49,0.49,-4.94,0.2,0.04,-0.16,,,,7.49,2.42,6.56,0.14,0.08,0.16,,,,8.51,0.74,5.58,0.18,0.04,0.12,,,,9.48,-0.58,3.47,0.16,0.02,0.12,,,,9.16,1.02,4.83,0.13,0.05,0.1,,,,paper
6.753497,-0.91,9.27,3.06,-0.01,0.2,0.09,20.44,-21.0,3.81,8.47,0.55,-4.9,0.19,0.04,-0.15,,,,7.46,2.43,6.51,0.13,0.07,0.16,,,,8.46,0.78,5.59,0.17,0.04,0.12,,,,9.44,-0.52,3.49,0.15,0.03,0.12,,,,9.14,1.01,4.8,0.12,0.05,0.09,,,,paper
6.795984,-0.95,9.23,3.06,-0.03,0.2,0.09,21.0,-20.13,4.0,8.5,0.61,-4.87,0.17,0.04,-0.14,,,,7.41,2.53,6.58,0.11,0.07,0.14,,,,8.44,0.87,5.64,0.14,0.04,0.11,,,,9.47,-0.42,3.57,0.12,0.03,0.11,,,,9.12,1.1,4.89,0.1,0.04,0.08,,,,paper
6.838209,-0.91,9.19,3.14,-0.03,0.14,0.09,21.0,-20.44,4.63,8.44,0.63,-4.85,0.16,0.05,-0.11,,,,7.37,2.53,6.5,0.08,0.08,0.14,,,,8.4,0.87,5.58,0.12,0.05,0.1,,,,9.37,-0.45,3.5,0.11,0.05,0.11,,,,9.07,1.07,4.82,0.08,0.05,0.08,,,,paper
6.876092,-0.95,9.07,3.14,-0.04,0.14,0.07,21.0,-20.44,4.63,8.43,0.62,-4.8,0.14,0.04,-0.11,,,,7.31,2.51,6.53,0.08,0.07,0.12,,,,8.32,0.89,5.61,0.11,0.04,0.08,,,,9.32,-0.41,3.57,0.09,0.04,0.1,,,,8.98,1.05,4.9,0.07,0.05,0.06,,,,paper
6.92216,-0.99,9.07,3.14,-0.01,0.1,0.05,21.0,-20.44,4.63,8.48,0.63,-4.78,0.11,0.03,-0.09,,,,7.3,2.55,6.61,0.04,0.05,0.1,,,,8.3,0.99,5.73,0.07,0.03,0.07,,,,9.32,-0.29,3.65,0.05,0.03,0.08,,,,8.99,1.13,4.99,0.03,0.03,0.05,,,,paper
6.959313,-0.99,9.15,3.22,-0.01,0.1,0.05,19.56,-22.69,2.5,8.41,0.67,-4.76,0.07,0.03,-0.07,,,,7.29,2.54,6.5,0.02,0.04,0.08,,,,8.27,0.91,5.6,0.05,0.03,0.05,,,,9.28,-0.38,3.55,0.02,0.04,0.07,,,,8.95,1.06,4.93,-0.0,0.03,0.03,,,,paper
7.00957,-0.95,9.11,3.14,0.01,0.03,0.02,19.31,-21.69,2.25,8.46,0.62,-4.75,0.05,0.02,-0.05,,,,7.3,2.53,6.57,-0.0,0.03,0.06,,,,8.3,0.91,5.67,0.02,0.02,0.03,,,,9.32,-0.38,3.6,-0.01,0.04,0.06,,,,8.98,1.07,4.9,-0.04,0.02,0.01,,,,paper
7.046346,-0.95,9.11,3.1,0.01,0.03,0.02,20.5,-20.56,3.88,8.37,0.58,-4.78,0.02,0.01,-0.04,,,,7.25,2.47,6.46,-0.03,0.01,0.03,,,,8.24,0.85,5.56,-0.01,0.01,0.01,,,,9.25,-0.43,3.53,-0.04,0.03,0.04,,,,8.98,1.01,4.88,-0.06,0.0,-0.01,,,,paper
7.091762,-0.8,9.19,2.99,0.02,-0.0,-0.01,19.56,-21.75,4.75,8.35,0.46,-4.87,-0.0,0.01,-0.04,,,,7.41,2.31,6.41,-0.03,0.0,0.01,,,,8.39,0.65,5.47,-0.01,0.01,-0.01,,,,9.34,-0.63,3.38,-0.05,0.03,0.02,,,,9.09,0.96,4.73,-0.06,0.01,-0.03,,,,paper
7.137973,-0.84,9.23,2.99,0.01,0.0,-0.02,20.06,-21.56,5.5,8.34,0.48,-4.83,-0.0,0.0,-0.04,,,,7.35,2.34,6.42,-0.03,-0.0,0.01,,,,8.32,0.68,5.49,-0.01,0.0,-0.02,,,,9.26,-0.59,3.42,-0.05,0.02,0.02,,,,9.04,0.9,4.72,-0.06,0.0,-0.03,,,,paper
7.176415,-0.8,9.19,2.95,-0.0,-0.01,-0.04,20.5,-21.81,2.69,8.32,0.41,-4.92,-0.02,-0.01,-0.05,,,,7.46,2.27,6.39,-0.02,-0.02,-0.01,,,,8.39,0.62,5.47,-0.01,-0.01,-0.04,,,,9.37,-0.67,3.37,-0.05,0.01,-0.0,,,,9.1,0.9,4.68,-0.06,-0.0,-0.05,,,,paper
7.219181,-0.76,9.23,2.95,0.01,0.0,-0.04,20.5,-21.81,2.69,8.29,0.37,-4.96,-0.02,0.01,-0.06,,,,7.47,2.26,6.36,-0.01,-0.0,-0.01,,,,8.42,0.58,5.41,0.0,0.0,-0.03,,,,9.35,-0.7,3.33,-0.04,0.03,0.0,,,,9.11,0.9,4.68,-0.05,0.01,-0.05,,,,paper
7.261526,-0.8,9.27,2.95,-0.02,0.01,-0.03,20.75,-20.94,3.56,8.34,0.39,-4.95,-0.02,-0.01,-0.06,,,,7.5,2.26,6.41,-0.01,-0.01,-0.0,,,,8.46,0.62,5.46,0.01,-0.01,-0.03,,,,9.37,-0.68,3.36,-0.03,0.01,-0.0,,,,9.18,0.91,4.64,-0.05,0.0,-0.05,,,,paper
7.306151,-0.8,9.19,2.91,0.01,0.0,-0.04,20.75,-20.94,3.56,8.33,0.34,-5.01,-0.02,-0.02,-0.06,,,,7.54,2.23,6.35,-0.01,-0.02,-0.0,,,,8.48,0.56,5.41,0.0,-0.02,-0.03,,,,9.37,-0.69,3.36,-0.04,0.0,-0.0,,,,9.18,0.9,4.69,-0.04,-0.0,-0.06,,,,paper
7.345385,-0.76,9.3,2.95,0.01,0.0,-0.04,22.0,-21.0,4.0,8.38,0.33,-4.99,-0.01,-0.01,-0.06,,,,7.57,2.25,6.43,-0.01,-0.01,0.0,,,,8.54,0.56,5.49,0.01,-0.01,-0.03,,,,9.47,-0.76,3.36,-0.03,0.01,0.0,,,,9.23,0.87,4.63,-0.04,0.0,-0.05,,,,paper
7.387265,-0.8,9.27,2.91,0.01,0.04,-0.05,22.0,-21.0,4.0,8.36,0.33,-5.08,0.0,-0.02,-0.08,,,,7.62,2.24,6.39,0.01,-0.02,0.0,,,,8.55,0.56,5.47,0.02,-0.02,-0.03,,,,9.44,-0.74,3.35,-0.02,-0.0,-0.0,,,,9.25,0.9,4.68,-0.04,-0.01,-0.05,,,,paper
7.432588,-0.88,9.34,2.95,-0.01,0.04,-0.03,20.75,-21.0,3.19,8.44,0.35,-5.07,0.01,-0.0,-0.07,,,,7.68,2.28,6.46,0.01,0.0,0.01,,,,8.63,0.6,5.49,0.02,-0.0,-0.02,,,,9.56,-0.68,3.38,-0.02,0.01,0.0,,,,9.31,1.0,4.74,-0.04,0.01,-0.04,,,,paper
7.471971,-0.88,9.34,2.95,-0.01,0.03,-0.02,20.75,-21.0,3.19,8.42,0.38,-5.1,0.02,-0.01,-0.07,,,,7.67,2.3,6.42,0.0,-0.01,0.02,,,,8.64,0.6,5.47,0.02,-0.01,-0.0,,,,9.57,-0.7,3.33,-0.02,0.0,0.02,,,,9.31,0.99,4.65,-0.04,-0.01,-0.02,,,,paper
7.517815,-0.88,9.41,2.91,-0.0,0.03,0.0,21.25,-21.13,4.63,8.45,0.36,-5.15,0.02,0.0,-0.06,,,,7.72,2.3,6.45,-0.0,0.01,0.03,,,,8.73,0.58,5.48,0.01,0.01,0.0,,,,9.67,-0.7,3.34,-0.02,0.02,0.03,,,,9.39,1.02,4.66,-0.03,0.01,-0.01,,,,paper
7.555756,-0.91,9.38,2.95,-0.0,0.03,0.02,21.25,-21.13,4.63,8.5,0.43,-5.09,0.04,0.03,-0.05,,,,7.71,2.35,6.5,-0.01,0.03,0.05,,,,8.72,0.66,5.55,0.01,0.03,0.03,,,,9.66,-0.65,3.38,-0.01,0.04,0.06,,,,9.33,1.02,4.68,-0.04,0.03,0.02,,,,paper
7.598298,-0.91,9.23,2.99,-0.03,0.03,0.04,21.25,-21.13,4.63,8.36,0.44,-5.02,0.04,0.04,-0.04,,,,7.51,2.33,6.39,-0.02,0.04,0.05,,,,8.47,0.71,5.48,0.0,0.04,0.03,,,,9.41,-0.54,3.41,0.01,0.06,0.06,,,,9.15,0.99,4.77,-0.05,0.03,0.02,,,,paper
7.645483,-0.84,9.19,2.84,-0.01,0.02,0.04,21.25,-20.81,3.94,8.22,0.39,-5.05,0.04,0.03,-0.06,,,,7.53,2.23,6.25,-0.0,0.04,0.04,,,,8.47,0.58,5.33,0.02,0.03,0.02,,,,9.38,-0.7,3.22,0.0,0.05,0.05,,,,9.14,0.93,4.57,-0.03,0.03,0.0,,,,paper
7.687562,-0.84,9.23,2.87,-0.0,0.05,0.02,21.25,-20.81,3.94,8.22,0.42,-4.98,0.05,0.03,-0.07,,,,7.47,2.26,6.25,0.01,0.04,0.05,,,,8.43,0.56,5.32,0.04,0.03,0.02,,,,9.32,-0.7,3.24,0.01,0.04,0.05,,,,9.12,0.89,4.57,-0.01,0.03,0.0,,,,paper
7.731836,-0.84,9.23,2.91,0.0,0.06,0.0,21.44,-21.19,3.19,8.33,0.36,-5.04,0.04,0.02,-0.08,,,,7.55,2.26,6.39,0.02,0.02,0.04,,,,8.51,0.6,5.44,0.04,0.02,0.01,,,,9.44,-0.68,3.34,0.0,0.03,0.04,,,,9.18,0.92,4.63,-0.01,0.02,-0.0,,,,paper
7.777494,-0.88,9.23,2.95,-0.0,0.06,0.01,21.5,-21.44,4.25,8.32,0.37,-5.07,0.05,0.03,-0.08,,,,7.62,2.23,6.35,0.03,0.04,0.05,,,,8.54,0.57,5.4,0.05,0.02,0.02,,,,9.45,-0.7,3.31,0.02,0.03,0.04,,,,9.21,0.96,4.69,0.0,0.03,0.0,,,,paper
7.815446,-0.91,9.31,2.95,-0.0,0.08,0.02,21.5,-21.44,4.25,8.43,0.41,-5.03,0.06,0.02,-0.08,,,,7.59,2.33,6.45,0.03,0.03,0.06,,,,8.57,0.65,5.5,0.05,0.02,0.03,,,,9.51,-0.63,3.4,0.02,0.03,0.05,,,,9.25,0.97,4.69,0.0,0.03,0.01,,,,paper
7.861679,-0.88,9.31,2.95,-0.03,0.07,0.03,20.5,-21.19,5.19,8.38,0.4,-5.07,0.06,0.03,-0.09,,,,7.6,2.31,6.4,0.03,0.04,0.06,,,,8.58,0.64,5.49,0.06,0.04,0.03,,,,9.5,-0.65,3.36,0.03,0.04,0.04,,,,9.25,0.99,4.7,0.0,0.04,0.01,,,,paper
7.898601,-0.84,9.27,2.95,-0.03,0.07,0.03,20.5,-21.19,5.19,8.39,0.4,-5.03,0.07,0.04,-0.08,,,,7.59,2.29,6.42,0.03,0.05,0.06,,,,8.56,0.58,5.46,0.06,0.04,0.03,,,,9.47,-0.69,3.35,0.03,0.05,0.05,,,,9.22,0.94,4.68,0.0,0.04,0.02,,,,paper
7.939725,-0.76,9.23,2.84,-0.03,0.08,0.04,21.0,-21.63,3.44,8.34,0.28,-5.06,0.07,0.04,-0.09,,,,7.6,2.19,6.37,0.03,0.05,0.07,,,,8.52,0.51,5.43,0.06,0.04,0.04,,,,9.43,-0.75,3.31,0.03,0.04,0.06,,,,9.23,0.88,4.64,0.01,0.04,0.03,,,,paper
7.98137,-0.72,9.34,2.76,-0.02,0.1,0.04,21.0,-21.63,3.44,8.28,0.2,-5.14,0.08,0.04,-0.09,,,,7.69,2.07,6.28,0.04,0.05,0.07,,,,8.58,0.38,5.32,0.07,0.03,0.04,,,,9.46,-0.88,3.21,0.05,0.04,0.07,,,,9.28,0.81,4.51,0.02,0.04,0.03,,,,paper
8.02597,-0.64,9.34,2.72,-0.0,0.11,0.06,21.0,-21.63,3.44,8.19,0.08,-5.22,0.12,0.03,-0.1,,,,7.78,1.97,6.16,0.06,0.05,0.1,,,,8.65,0.23,5.17,0.09,0.03,0.08,,,,9.45,-1.04,3.04,0.07,0.03,0.09,,,,9.33,0.74,4.35,0.04,0.03,0.05,,,,paper
8.06508,-0.61,9.27,2.68,-0.02,0.18,0.09,21.0,-21.63,3.44,8.06,0.02,-5.3,0.16,0.03,-0.13,,,,7.8,1.88,6.07,0.09,0.06,0.14,,,,8.63,0.18,5.07,0.13,0.03,0.11,,,,9.43,-1.08,2.96,0.12,0.03,0.11,,,,9.32,0.74,4.28,0.09,0.04,0.08,,,,paper
8.109079,-0.72,9.27,2.76,-0.01,0.22,0.09,21.0,-21.63,3.44,8.1,0.14,-5.19,0.2,0.02,-0.15,,,,7.69,2.01,6.1,0.13,0.06,0.17,,,,8.55,0.29,5.15,0.17,0.02,0.13,,,,9.37,-0.96,3.06,0.16,0.01,0.12,,,,9.25,0.79,4.41,0.13,0.03,0.09,,,,paper
8.148012,-0.72,9.3,2.8,0.0,0.24,0.09,18.94,-22.38,3.19,8.26,0.19,-5.2,0.23,0.0,-0.17,,,,7.76,2.08,6.21,0.17,0.05,0.19,,,,8.66,0.35,5.27,0.2,0.0,0.15,,,,9.5,-0.92,3.14,0.19,-0.01,0.13,,,,9.33,0.84,4.44,0.16,0.02,0.1,,,,paper
8.192334,-0.8,9.38,2.87,-0.0,0.27,0.12,20.44,-22.38,3.31,8.41,0.26,-5.18,0.26,0.02,-0.18,,,,7.74,2.19,6.38,0.18,0.08,0.21,,,,8.71,0.46,5.42,0.22,0.03,0.17,,,,9.61,-0.84,3.25,0.22,0.01,0.16,,,,9.36,0.91,4.58,0.18,0.04,0.13,,,,paper
8.235292,-0.84,9.3,2.91,-0.02,0.28,0.13,20.06,-21.63,5.13,8.36,0.3,-5.09,0.28,0.04,-0.2,,,,7.62,2.21,6.39,0.19,0.1,0.22,,,,8.55,0.56,5.46,0.24,0.04,0.18,,,,9.44,-0.68,3.35,0.23,0.02,0.16,,,,9.18,0.94,4.72,0.19,0.05,0.15,,,,paper
8.280696,-0.84,9.23,2.87,-0.01,0.29,0.11,18.94,-21.81,5.69,8.24,0.4,-4.94,0.28,0.03,-0.2,,,,7.44,2.24,6.28,0.2,0.08,0.22,,,,8.39,0.58,5.35,0.24,0.03,0.18,,,,9.3,-0.68,3.29,0.23,0.0,0.15,,,,9.09,0.87,4.59,0.21,0.05,0.13,,,,paper
8.322091,-0.84,9.11,2.8,-0.02,0.3,0.1,18.94,-21.81,5.69,8.08,0.36,-5.02,0.31,0.01,-0.21,,,,7.57,2.17,6.15,0.2,0.07,0.22,,,,8.45,0.53,5.24,0.24,0.02,0.17,,,,9.28,-0.68,3.18,0.23,-0.01,0.16,,,,9.08,0.97,4.59,0.21,0.03,0.13,,,,paper
8.367332,-0.91,9.15,2.87,0.0,0.33,0.11,18.5,-21.56,5.0,8.12,0.42,-5.03,0.3,0.0,-0.23,,,,7.48,2.29,6.14,0.23,0.07,0.23,,,,8.41,0.65,5.25,0.26,0.01,0.18,,,,9.29,-0.62,3.17,0.25,-0.02,0.16,,,,9.05,1.0,4.56,0.24,0.02,0.13,,,,paper
8.412137,-1.03,9.23,3.03,0.04,0.33,0.1,18.75,-22.19,5.0,8.31,0.59,-4.99,0.28,-0.02,-0.23,,,,7.46,2.49,6.33,0.24,0.04,0.22,,,,8.43,0.85,5.42,0.27,-0.02,0.17,,,,9.4,-0.43,3.38,0.25,-0.05,0.15,,,,9.08,1.12,4.76,0.23,-0.0,0.12,,,,paper
8.452317,-1.18,9.27,3.22,0.03,0.32,0.08,18.0,-22.63,5.88,8.53,0.68,-5.02,0.28,-0.01,-0.22,,,,7.58,2.62,6.52,0.22,0.04,0.22,,,,8.65,0.94,5.57,0.26,-0.01,0.18,,,,9.66,-0.36,3.45,0.25,-0.04,0.15,,,,9.21,1.3,4.84,0.23,0.01,0.12,,,,paper
8.497636,-1.26,9.11,3.25,-0.04,0.29,0.1,18.94,-22.0,6.44,8.53,0.81,-4.92,0.26,0.02,-0.22,,,,7.4,2.78,6.53,0.21,0.08,0.2,,,,8.46,1.15,5.63,0.26,0.02,0.16,,,,9.49,-0.15,3.58,0.25,-0.0,0.14,,,,9.07,1.35,5.0,0.21,0.04,0.12,,,,paper
8.535666,-1.22,9.15,3.33,0.0,0.27,0.08,18.69,-22.25,4.56,8.54,0.87,-4.76,0.23,0.02,-0.21,,,,7.22,2.82,6.62,0.19,0.06,0.18,,,,8.35,1.19,5.7,0.23,0.01,0.14,,,,9.39,-0.1,3.67,0.21,-0.01,0.12,,,,8.96,1.29,5.04,0.18,0.04,0.1,,,,paper
8.578412,-1.11,9.15,3.22,-0.02,0.22,0.05,18.69,-22.25,4.56,8.48,0.72,-4.8,0.19,0.01,-0.19,,,,7.32,2.64,6.51,0.16,0.05,0.14,,,,8.35,0.98,5.64,0.19,0.01,0.11,,,,9.39,-0.29,3.6,0.17,-0.0,0.09,,,,9.02,1.16,4.99,0.14,0.04,0.06,,,,paper
8.62369,-0.91,9.34,3.03,-0.01,0.21,0.04,18.19,-21.25,5.0,8.55,0.37,-5.08,0.17,0.02,-0.17,,,,7.69,2.35,6.54,0.15,0.04,0.14,,,,8.67,0.66,5.59,0.18,0.01,0.11,,,,9.64,-0.62,3.45,0.15,0.0,0.09,,,,9.31,1.06,4.8,0.12,0.03,0.06,,,,paper
8.66912,-0.84,9.34,2.87,-0.04,0.18,0.08,18.13,-21.63,5.31,8.54,0.31,-5.12,0.18,0.05,-0.15,,,,7.76,2.28,6.5,0.14,0.05,0.15,,,,8.71,0.6,5.58,0.17,0.04,0.12,,,,9.65,-0.74,3.36,0.16,0.03,0.11,,,,9.35,1.01,4.81,0.11,0.05,0.08,,,,paper
8.7071,-0.88,9.41,2.91,-0.0,0.18,0.11,18.13,-21.63,5.31,8.5,0.28,-5.16,0.19,0.05,-0.13,,,,7.79,2.3,6.52,0.11,0.07,0.17,,,,8.76,0.57,5.54,0.15,0.05,0.14,,,,9.71,-0.7,3.41,0.15,0.04,0.13,,,,9.41,1.01,4.73,0.1,0.05,0.11,,,,paper
8.751558,-0.95,9.38,3.14,-0.03,0.17,0.14,18.13,-21.63,5.31,8.6,0.41,-5.04,0.18,0.06,-0.11,,,,7.63,2.43,6.6,0.09,0.09,0.17,,,,8.61,0.76,5.73,0.13,0.06,0.14,,,,9.58,-0.54,3.57,0.13,0.06,0.15,,,,9.28,1.02,4.91,0.08,0.05,0.13,,,,paper
8.787245,-0.95,9.41,3.22,-0.04,0.14,0.14,17.81,-21.94,6.31,8.76,0.44,-5.01,0.17,0.08,-0.09,,,,7.67,2.5,6.78,0.05,0.11,0.16,,,,8.7,0.79,5.84,0.1,0.08,0.13,,,,9.73,-0.49,3.68,0.1,0.08,0.15,,,,9.37,1.09,5.0,0.05,0.07,0.13,,,,paper
8.831237,-0.84,9.61,3.37,-0.06,0.12,0.14,16.88,-22.44,5.81,8.91,0.46,-4.96,0.17,0.12,-0.07,,,,7.71,2.48,6.88,0.03,0.14,0.16,,,,8.77,0.74,5.94,0.08,0.13,0.12,,,,9.81,-0.62,3.73,0.09,0.12,0.14,,,,9.45,1.0,5.04,0.03,0.11,0.13,,,,paper
8.877108,-0.64,9.49,3.56,-0.13,0.08,0.2,16.13,-22.5,6.44,9.17,0.28,-4.88,0.17,0.17,-0.04,,,,7.75,2.39,7.19,-0.01,0.19,0.16,,,,8.8,0.69,6.25,0.05,0.18,0.13,,,,9.88,-0.64,4.06,0.07,0.18,0.16,,,,9.47,0.95,5.35,-0.01,0.15,0.16,,,,paper
8.914828,-0.64,9.46,3.52,-0.13,0.04,0.22,16.13,-22.5,6.44,9.19,0.26,-4.75,0.17,0.2,0.01,,,,7.61,2.39,7.28,-0.07,0.22,0.17,,,,8.67,0.7,6.34,0.0,0.22,0.15,,,,9.78,-0.6,4.15,0.02,0.22,0.19,,,,9.36,0.88,5.37,-0.06,0.17,0.19,,,,paper
8.96119,-0.68,9.3,3.29,-0.13,-0.04,0.27,16.13,-22.5,6.44,8.9,0.28,-4.75,0.16,0.24,0.07,,,,7.49,2.33,6.96,-0.13,0.24,0.18,,,,8.49,0.67,6.06,-0.05,0.25,0.16,,,,9.55,-0.63,3.94,-0.02,0.26,0.22,,,,9.2,0.86,5.22,-0.13,0.18,0.21,,,,paper
8.998935,-0.68,9.15,3.29,-0.13,-0.04,0.27,14.94,-23.38,4.13,8.66,0.33,-4.68,0.15,0.25,0.09,,,,7.32,2.29,6.74,-0.16,0.25,0.18,,,,8.3,0.64,5.84,-0.07,0.26,0.16,,,,9.3,-0.62,3.8,-0.04,0.27,0.22,,,,9.05,0.81,5.11,-0.15,0.18,0.22,,,,paper
9.045,-0.64,8.95,3.33,-0.14,-0.07,0.26,14.94,-23.38,4.13,8.61,0.33,-4.43,0.13,0.25,0.1,,,,7.05,2.29,6.78,-0.18,0.26,0.15,,,,8.04,0.7,5.93,-0.09,0.27,0.14,,,,9.06,-0.55,3.93,-0.06,0.28,0.21,,,,8.78,0.67,5.12,-0.17,0.19,0.21,,,,paper
9.084244,-0.49,8.77,3.45,-0.14,-0.07,0.26,13.44,-24.19,2.56,8.52,0.19,-4.29,0.09,0.23,0.11,,,,6.9,2.09,6.71,-0.19,0.23,0.12,,,,7.82,0.53,5.9,-0.11,0.25,0.12,,,,8.82,-0.7,3.96,-0.09,0.26,0.18,,,,8.62,0.51,5.23,-0.19,0.17,0.17,,,,paper
9.12866,-0.34,8.81,3.41,-0.11,-0.12,0.18,12.88,-23.81,3.56,8.5,0.17,-4.19,0.05,0.21,0.11,,,,6.81,2.0,6.74,-0.18,0.19,0.09,,,,7.69,0.47,5.91,-0.11,0.22,0.09,,,,8.7,-0.79,3.98,-0.11,0.24,0.14,,,,8.56,0.37,5.2,-0.2,0.15,0.12,,,,paper
9.175933,-0.22,8.96,3.33,-0.11,-0.12,0.18,12.81,-23.56,2.56,8.56,-0.01,-4.35,0.02,0.16,0.1,,,,7.0,1.89,6.81,-0.18,0.14,0.05,,,,7.87,0.32,5.95,-0.12,0.16,0.04,,,,8.85,-0.91,3.97,-0.13,0.2,0.1,,,,8.75,0.35,5.18,-0.21,0.12,0.07,,,,paper
9.212449,-0.15,9.11,3.33,-0.11,-0.12,0.18,12.81,-23.56,2.56,8.72,-0.12,-4.36,-0.0,0.16,0.1,,,,7.24,1.78,6.92,-0.19,0.15,0.03,,,,8.11,0.17,6.03,-0.13,0.17,0.03,,,,9.04,-1.0,4.01,-0.1,0.21,0.11,,,,8.96,0.33,5.06,-0.2,0.13,0.07,,,,paper
9.258973,-0.07,8.96,3.22,-0.08,-0.13,0.11,12.81,-23.56,2.56,8.57,-0.18,-4.34,-0.01,0.16,0.1,,,,7.06,1.74,6.8,-0.19,0.14,0.04,,,,7.92,0.14,5.94,-0.14,0.16,0.03,,,,8.85,-1.04,3.99,-0.13,0.2,0.1,,,,8.78,0.22,5.1,-0.21,0.11,0.06,,,,paper
9.299035,0.01,8.77,3.14,-0.08,-0.13,0.11,11.38,-24.31,1.25,8.4,-0.29,-4.34,-0.02,0.14,0.1,,,,7.02,1.55,6.63,-0.19,0.12,0.03,,,,7.79,0.0,5.77,-0.14,0.15,0.02,,,,8.68,-1.17,3.85,-0.14,0.18,0.09,,,,8.66,0.12,4.99,-0.2,0.09,0.05,,,,paper
9.342826,0.08,8.77,3.14,-0.02,-0.07,0.05,11.38,-24.31,1.25,8.15,-0.31,-4.35,0.01,0.1,0.07,,,,6.94,1.45,6.45,-0.13,0.07,0.03,,,,7.68,-0.11,5.57,-0.09,0.09,0.02,,,,8.55,-1.3,3.66,-0.11,0.12,0.08,,,,8.6,-0.01,4.79,-0.15,0.05,0.03,,,,paper
9.381696,0.04,8.84,3.18,-0.02,-0.07,0.05,11.63,-25.25,2.25,8.26,-0.38,-4.29,0.0,0.07,0.0,,,,6.93,1.41,6.52,-0.07,0.06,0.02,,,,7.73,-0.13,5.65,-0.04,0.07,-0.0,,,,8.63,-1.3,3.75,-0.07,0.09,0.04,,,,8.54,-0.01,4.89,-0.09,0.06,0.01,,,,paper
9.423186,0.04,8.65,3.1,-0.02,-0.07,0.05,10.56,-24.81,1.5,8.23,-0.39,-4.24,0.02,0.02,-0.04,,,,6.85,1.41,6.51,-0.02,0.01,0.03,,,,7.63,-0.18,5.64,-0.0,0.02,0.01,,,,8.49,-1.38,3.73,-0.03,0.04,0.03,,,,8.55,-0.09,4.83,-0.05,0.02,-0.01,,,,paper
9.465912,0.08,8.65,3.14,0.01,0.07,-0.06,11.63,-25.25,2.25,8.18,-0.36,-4.17,0.01,-0.03,-0.09,,,,6.71,1.47,6.5,0.03,-0.03,0.0,,,,7.44,-0.02,5.7,0.04,-0.03,-0.03,,,,8.33,-1.19,3.87,-0.0,-0.02,-0.01,,,,8.44,-0.11,4.93,0.02,-0.01,-0.06,,,,paper
9.505483,0.04,8.77,3.14,0.06,0.08,-0.1,12.38,-23.63,2.5,8.24,-0.35,-4.2,-0.01,-0.08,-0.13,,,,6.91,1.41,6.5,0.07,-0.08,-0.02,,,,7.69,-0.15,5.61,0.06,-0.09,-0.06,,,,8.56,-1.35,3.68,0.01,-0.06,-0.03,,,,8.61,0.0,4.82,0.06,-0.05,-0.09,,,,paper
9.544418,0.01,8.85,3.06,0.06,0.08,-0.1,12.31,-23.44,1.44,8.24,-0.36,-4.41,-0.01,-0.1,-0.18,,,,7.06,1.45,6.48,0.12,-0.1,-0.03,,,,7.83,-0.12,5.56,0.11,-0.12,-0.07,,,,8.6,-1.27,3.66,0.06,-0.08,-0.05,,,,8.7,0.1,4.81,0.09,-0.07,-0.12,,,,paper
9.590074,-0.15,8.89,2.91,0.06,0.16,-0.15,12.69,-25.5,1.69,8.14,-0.34,-4.52,0.02,-0.13,-0.22,,,,7.14,1.47,6.34,0.17,-0.11,-0.01,,,,7.95,-0.14,5.42,0.16,-0.14,-0.05,,,,8.7,-1.32,3.48,0.09,-0.13,-0.05,,,,8.79,0.18,4.64,0.14,-0.08,-0.12,,,,paper
9.629587,-0.22,8.73,2.91,0.07,0.21,-0.15,13.19,-23.5,2.63,8.05,-0.22,-4.45,0.04,-0.16,-0.26,,,,7.05,1.6,6.26,0.21,-0.13,-0.0,,,,7.81,0.01,5.38,0.2,-0.17,-0.05,,,,8.61,-1.16,3.48,0.13,-0.17,-0.06,,,,8.62,0.27,4.66,0.19,-0.1,-0.13,,,,paper
9.673734,-0.38,8.69,2.95,0.13,0.27,-0.2,13.19,-23.5,2.63,7.97,-0.03,-4.46,0.04,-0.22,-0.3,,,,6.92,1.77,6.14,0.26,-0.19,-0.0,,,,7.87,0.09,5.3,0.24,-0.24,-0.05,,,,8.56,-0.99,3.44,0.15,-0.24,-0.08,,,,8.59,0.4,4.65,0.24,-0.15,-0.15,,,,paper
9.716326,-0.53,8.73,2.99,0.17,0.29,-0.25,13.19,-23.5,2.63,8.09,-0.0,-4.7,0.05,-0.26,-0.31,,,,7.18,1.87,6.17,0.29,-0.23,0.0,,,,7.94,0.3,5.28,0.26,-0.27,-0.04,,,,8.82,-0.94,3.36,0.17,-0.29,-0.07,,,,8.8,0.62,4.67,0.31,-0.16,-0.15,,,,paper
9.761717,-0.68,8.95,2.87,0.18,0.3,-0.25,15.25,-23.63,4.13,8.25,0.09,-4.89,0.11,-0.31,-0.34,,,,7.49,1.96,6.26,0.31,-0.29,0.05,,,,8.38,0.34,5.41,0.27,-0.33,-0.0,,,,9.21,-0.85,3.4,0.2,-0.34,-0.03,,,,9.0,0.78,4.71,0.34,-0.2,-0.12,,,,paper
9.802907,-0.8,9.31,3.06,0.18,0.3,-0.25,15.69,-22.94,3.19,8.44,0.29,-4.75,0.1,-0.29,-0.35,,,,7.4,2.21,6.47,0.32,-0.26,0.04,,,,8.31,0.55,5.58,0.29,-0.31,-0.01,,,,9.24,-0.68,3.57,0.2,-0.31,-0.06,,,,8.96,0.82,4.87,0.31,-0.19,-0.14,,,,paper
9.846056,-0.95,9.07,3.03,0.15,0.33,-0.27,14.69,-24.5,4.0,8.45,0.36,-4.78,0.07,-0.29,-0.35,,,,7.38,2.33,6.49,0.32,-0.26,0.0,,,,8.35,0.63,5.57,0.28,-0.31,-0.05,,,,9.25,-0.51,3.65,0.19,-0.3,-0.09,,,,8.96,0.98,4.93,0.3,-0.2,-0.19,,,,paper
9.885177,-1.07,9.11,2.99,0.18,0.3,-0.27,16.56,-21.56,5.19,8.4,0.47,-4.89,0.04,-0.33,-0.3,,,,7.42,2.41,6.37,0.28,-0.31,-0.01,,,,8.36,0.77,5.48,0.23,-0.35,-0.05,,,,9.25,-0.4,3.55,0.13,-0.34,-0.09,,,,9.05,1.09,4.86,0.25,-0.25,-0.2,,,,paper
9.929578,-1.22,9.3,2.87,0.21,0.24,-0.28,16.94,-23.56,5.31,8.38,0.55,-4.97,-0.0,-0.31,-0.29,,,,7.57,2.51,6.29,0.26,-0.29,-0.04,,,,8.65,0.71,5.32,0.22,-0.32,-0.08,,,,9.52,-0.47,3.3,0.13,-0.31,-0.12,,,,9.18,1.21,4.58,0.21,-0.22,-0.23,,,,paper
9.969341,-1.34,9.27,2.76,0.17,0.23,-0.28,17.5,-22.44,8.31,8.35,0.51,-5.23,-0.01,-0.27,-0.24,,,,7.75,2.5,6.16,0.25,-0.28,-0.05,,,,8.71,0.85,5.26,0.21,-0.32,-0.08,,,,9.55,-0.29,3.27,0.12,-0.3,-0.11,,,,9.27,1.35,4.56,0.19,-0.22,-0.24,,,,paper
10.00902,-1.45,9.46,2.76,0.18,0.22,-0.27,17.5,-22.44,8.31,8.31,0.5,-5.49,-0.03,-0.29,-0.25,,,,7.99,2.49,6.03,0.23,-0.28,-0.05,,,,8.98,0.76,5.14,0.19,-0.32,-0.08,,,,9.79,-0.46,3.04,0.09,-0.3,-0.12,,,,9.43,1.46,4.5,0.17,-0.22,-0.23,,,,paper
10.053294,-1.53,9.65,2.72,0.21,0.21,-0.25,17.5,-22.44,8.31,8.46,0.55,-5.6,-0.01,-0.28,-0.24,,,,8.2,2.68,6.23,0.21,-0.27,-0.03,,,,9.21,0.9,5.25,0.17,-0.3,-0.06,,,,10.12,-0.38,3.08,0.1,-0.3,-0.09,,,,9.69,1.65,4.45,0.17,-0.2,-0.19,,,,paper
10.095653,-1.6,9.88,2.8,0.09,0.17,-0.17,17.5,-22.44,8.31,8.66,0.67,-5.65,-0.0,-0.2,-0.2,,,,8.3,2.81,6.34,0.17,-0.18,-0.02,,,,9.41,0.98,5.39,0.14,-0.21,-0.06,,,,10.35,-0.39,3.08,0.11,-0.2,-0.07,,,,9.84,1.69,4.44,0.13,-0.12,-0.14,,,,paper
10.133504,-1.6,9.91,2.84,0.03,0.18,-0.16,17.5,-22.44,8.31,8.57,0.59,-5.85,0.04,-0.13,-0.18,,,,8.55,2.68,6.19,0.14,-0.12,-0.02,,,,9.53,0.83,5.22,0.13,-0.13,-0.05,,,,10.37,-0.4,3.03,0.1,-0.13,-0.05,,,,9.85,1.71,4.55,0.1,-0.08,-0.11,,,,paper
10.176304,-1.68,9.72,2.72,0.11,0.16,-0.09,17.5,-22.44,8.31,8.53,0.62,-5.9,0.08,-0.13,-0.16,,,,8.49,2.75,6.17,0.13,-0.1,0.05,,,,9.54,0.88,5.17,0.13,-0.13,0.02,,,,10.41,-0.4,2.98,0.09,-0.12,0.02,,,,9.92,1.74,4.44,0.1,-0.09,-0.05,,,,paper
10.220631,-1.68,9.76,2.72,0.05,0.16,-0.04,20.81,-21.19,11.19,8.43,0.68,-5.85,0.09,-0.06,-0.15,,,,8.41,2.77,6.05,0.11,-0.02,0.05,,,,9.44,0.92,5.09,0.12,-0.05,0.01,,,,10.28,-0.37,2.9,0.1,-0.04,0.02,,,,9.85,1.76,4.36,0.09,-0.01,-0.04,,,,paper
10.25567,-1.72,9.57,2.68,-0.01,0.16,-0.02,20.81,-21.19,11.19,8.25,0.59,-5.91,0.11,-0.04,-0.14,,,,8.42,2.69,5.9,0.1,-0.01,0.08,,,,9.39,0.84,4.93,0.12,-0.03,0.05,,,,10.18,-0.37,2.79,0.09,-0.03,0.05,,,,9.76,1.75,4.3,0.08,-0.01,0.0,,,,paper
10.29618,-1.64,9.72,2.64,0.02,0.16,0.03,20.81,-21.19,11.19,8.08,0.6,-5.89,0.12,-0.0,-0.15,,,,8.37,2.6,5.69,0.11,0.03,0.1,,,,9.33,0.74,4.72,0.14,-0.0,0.06,,,,10.1,-0.49,2.58,0.12,-0.0,0.06,,,,9.72,1.65,4.01,0.1,0.03,0.02,,,,paper
10.338311,-1.6,9.65,2.38,-0.04,0.2,0.04,20.31,-20.44,9.13,7.93,0.41,-6.08,0.16,0.01,-0.18,,,,8.52,2.44,5.54,0.16,0.05,0.12,,,,9.49,0.4,4.47,0.19,0.01,0.09,,,,10.14,-0.66,2.43,0.16,-0.0,0.08,,,,9.81,1.63,3.89,0.14,0.04,0.05,,,,paper
10.379641,-1.53,9.72,2.34,-0.04,0.25,0.07,20.31,-20.44,9.13,7.96,0.3,-6.13,0.21,0.04,-0.2,,,,8.61,2.34,5.56,0.18,0.08,0.16,,,,9.45,0.51,4.58,0.23,0.03,0.13,,,,10.18,-0.79,2.36,0.2,0.02,0.11,,,,9.86,1.54,3.85,0.17,0.06,0.09,,,,paper
10.425432,-1.45,9.72,2.34,-0.06,0.29,0.12,19.44,-21.56,10.0,7.89,0.22,-6.16,0.28,0.07,-0.23,,,,8.61,2.25,5.47,0.22,0.13,0.22,,,,9.5,0.33,4.46,0.28,0.07,0.18,,,,10.14,-0.87,2.31,0.27,0.05,0.16,,,,9.89,1.51,3.8,0.22,0.09,0.15,,,,paper
10.467472,-1.49,9.57,2.38,-0.06,0.29,0.12,19.81,-21.19,9.38,7.86,0.31,-5.99,0.36,0.09,-0.26,,,,8.45,2.33,5.48,0.27,0.15,0.3,,,,9.33,0.46,4.44,0.34,0.1,0.24,,,,9.99,-0.79,2.28,0.35,0.07,0.2,,,,9.72,1.48,3.75,0.28,0.12,0.21,,,,paper
10.511583,-1.57,9.38,2.34,-0.12,0.43,0.21,19.81,-21.19,9.38,7.7,0.34,-5.93,0.41,0.1,-0.28,,,,8.34,2.29,5.26,0.32,0.16,0.34,,,,9.34,0.27,4.27,0.38,0.1,0.28,,,,9.82,-0.62,2.31,0.38,0.08,0.21,,,,9.53,1.52,3.76,0.32,0.15,0.24,,,,paper
10.554113,-1.6,9.38,2.3,-0.11,0.46,0.22,19.81,-21.19,9.38,7.58,0.41,-5.91,0.44,0.09,-0.31,,,,8.23,2.36,5.24,0.34,0.18,0.33,,,,9.05,0.61,4.32,0.42,0.11,0.28,,,,9.65,-0.47,2.34,0.44,0.07,0.24,,,,9.5,1.51,3.7,0.36,0.15,0.24,,,,paper
10.59428,-1.57,9.34,2.22,-0.11,0.46,0.22,17.75,-21.63,9.13,7.51,0.32,-5.96,0.51,0.09,-0.34,,,,8.26,2.27,5.16,0.37,0.21,0.35,,,,9.08,0.49,4.24,0.43,0.11,0.29,,,,9.72,-0.69,2.16,0.45,0.06,0.25,,,,9.43,1.49,3.66,0.39,0.14,0.26,,,,paper
10.63986,-1.53,9.3,2.18,-0.1,0.56,0.23,17.13,-22.19,8.0,7.5,0.37,-5.93,0.51,0.1,-0.38,,,,8.22,2.35,5.14,0.42,0.21,0.37,,,,9.04,0.59,4.24,0.5,0.1,0.32,,,,9.67,-0.57,2.17,0.52,0.04,0.25,,,,9.37,1.59,3.71,0.45,0.14,0.28,,,,paper
10.679553,-1.79,9.27,2.41,-0.1,0.56,0.23,17.0,-22.63,7.19,7.55,0.64,-5.73,0.52,0.08,-0.39,,,,7.98,2.66,5.23,0.44,0.2,0.38,,,,8.86,0.88,4.37,0.5,0.09,0.32,,,,9.58,-0.27,2.35,0.52,0.03,0.26,,,,9.26,1.7,3.9,0.47,0.13,0.28,,,,paper
10.723526,-1.87,9.27,2.64,-0.06,0.58,0.21,16.63,-21.81,9.69,7.67,0.78,-5.68,0.5,0.06,-0.39,,,,7.95,2.8,5.32,0.44,0.18,0.37,,,,8.89,1.02,4.47,0.5,0.07,0.31,,,,9.64,-0.16,2.45,0.52,0.01,0.25,,,,9.22,1.81,4.0,0.47,0.11,0.27,,,,paper
10.763123,-1.95,9.31,2.72,-0.07,0.58,0.21,16.06,-22.63,9.19,7.87,0.94,-5.55,0.49,0.07,-0.41,,,,7.88,2.98,5.58,0.45,0.18,0.36,,,,8.88,1.23,4.7,0.51,0.07,0.3,,,,9.67,0.06,2.67,0.52,0.01,0.24,,,,9.22,1.92,4.23,0.48,0.11,0.25,,,,paper
10.808545,-2.02,9.31,2.76,-0.07,0.53,0.2,16.06,-22.63,9.19,8.08,1.02,-5.53,0.47,0.06,-0.38,,,,7.88,3.09,5.77,0.42,0.17,0.34,,,,8.93,1.37,4.91,0.48,0.07,0.29,,,,9.81,0.17,2.88,0.48,0.01,0.22,,,,9.28,2.06,4.45,0.43,0.11,0.24,,,,paper
10.847327,-2.02,9.31,2.76,-0.07,0.47,0.2,16.06,-22.63,9.19,8.16,1.04,-5.5,0.43,0.07,-0.34,,,,7.86,3.16,5.89,0.37,0.16,0.32,,,,8.91,1.45,5.02,0.43,0.07,0.28,,,,9.83,0.22,2.98,0.43,0.03,0.22,,,,9.26,2.04,4.51,0.37,0.11,0.23,,,,paper
10.893191,-1.87,9.34,2.8,-0.07,0.47,0.2,13.75,-23.56,7.88,8.17,1.01,-5.43,0.38,0.09,-0.29,,,,7.82,3.09,5.92,0.31,0.17,0.28,,,,8.89,1.34,5.03,0.37,0.09,0.24,,,,9.78,0.12,2.98,0.38,0.06,0.2,,,,9.26,1.93,4.47,0.31,0.12,0.2,,,,paper
10.931394,-1.83,9.34,2.76,-0.09,0.36,0.18,13.75,-23.56,7.88,8.22,0.83,-5.54,0.35,0.09,-0.26,,,,7.97,2.94,5.92,0.27,0.17,0.26,,,,9.0,1.18,5.05,0.33,0.1,0.23,,,,9.89,-0.03,2.99,0.34,0.07,0.2,,,,9.39,1.89,4.5,0.27,0.12,0.2,,,,paper
10.971145,-1.72,9.49,2.72,-0.09,0.31,0.19,12.06,-23.69,9.75,8.29,0.65,-5.67,0.34,0.1,-0.22,,,,8.15,2.79,5.95,0.23,0.17,0.26,,,,9.12,1.02,5.09,0.29,0.11,0.24,,,,9.98,-0.19,3.02,0.3,0.08,0.21,,,,9.51,1.76,4.5,0.23,0.12,0.2,,,,paper
11.013206,-1.53,9.8,2.76,-0.08,0.29,0.22,11.69,-24.94,8.56,8.52,0.46,-5.76,0.34,0.12,-0.19,,,,8.35,2.66,6.18,0.19,0.19,0.28,,,,9.34,0.87,5.26,0.26,0.12,0.25,,,,10.24,-0.35,3.13,0.27,0.11,0.23,,,,9.75,1.69,4.52,0.2,0.13,0.23,,,,paper
11.051101,-1.45,9.76,2.76,-0.1,0.25,0.29,11.69,-24.94,8.56,8.53,0.34,-5.72,0.35,0.18,-0.14,,,,8.39,2.52,6.2,0.13,0.24,0.3,,,,9.34,0.7,5.25,0.22,0.19,0.27,,,,10.19,-0.53,3.08,0.25,0.17,0.26,,,,9.75,1.55,4.5,0.15,0.17,0.27,,,,paper
11.096947,-1.34,9.61,2.72,-0.12,0.24,0.32,9.56,-25.44,7.63,8.49,0.26,-5.7,0.37,0.18,-0.09,,,,8.31,2.43,6.21,0.09,0.24,0.33,,,,9.27,0.66,5.29,0.19,0.19,0.31,,,,10.09,-0.56,3.17,0.22,0.18,0.31,,,,9.7,1.46,4.54,0.11,0.16,0.31,,,,paper
11.134285,-1.22,9.72,2.76,-0.12,0.24,0.32,10.56,-25.38,6.38,8.55,0.21,-5.62,0.38,0.23,-0.07,,,,8.28,2.4,6.29,0.06,0.29,0.35,,,,9.22,0.62,5.38,0.16,0.25,0.32,,,,10.09,-0.63,3.2,0.21,0.23,0.33,,,,9.66,1.35,4.53,0.09,0.2,0.35,,,,paper
11.174072,-1.11,9.5,2.87,-0.14,0.2,0.4,10.56,-25.38,6.38,8.49,0.24,-5.39,0.39,0.25,-0.04,,,,8.03,2.35,6.31,0.03,0.31,0.35,,,,8.93,0.57,5.39,0.14,0.28,0.33,,,,9.79,-0.62,3.33,0.19,0.26,0.34,,,,9.48,1.21,4.63,0.07,0.21,0.36,,,,paper
11.219761,-0.95,9.38,2.76,-0.16,0.15,0.4,7.75,-25.94,9.5,8.46,0.06,-5.3,0.36,0.27,-0.01,,,,7.96,2.16,6.3,-0.0,0.32,0.35,,,,8.82,0.42,5.41,0.11,0.29,0.33,,,,9.67,-0.75,3.37,0.16,0.28,0.34,,,,9.4,1.08,4.67,0.03,0.22,0.36,,,,paper
11.261475,-0.84,9.41,2.72,-0.15,0.13,0.41,7.13,-25.0,5.69,8.37,-0.09,-5.28,0.36,0.29,0.01,,,,7.94,2.0,6.22,-0.03,0.34,0.35,,,,8.77,0.29,5.34,0.09,0.31,0.33,,,,9.61,-0.92,3.27,0.15,0.3,0.35,,,,9.36,0.92,4.5,0.01,0.23,0.37,,,,paper
11.304149,-0.72,9.34,2.68,-0.17,0.14,0.42,7.94,-24.81,6.13,8.15,-0.17,-5.24,0.37,0.3,0.0,,,,7.85,1.84,6.02,-0.02,0.35,0.35,,,,8.63,0.08,5.12,0.1,0.32,0.34,,,,9.38,-1.09,3.11,0.16,0.31,0.36,,,,9.25,0.78,4.4,0.02,0.24,0.38,,,,paper
11.342924,-0.68,9.27,2.72,-0.17,0.14,0.42,6.31,-25.44,6.25,8.18,-0.16,-5.07,0.37,0.31,-0.02,,,,7.74,1.84,6.1,0.0,0.36,0.35,,,,8.5,0.14,5.22,0.12,0.33,0.33,,,,9.28,-1.03,3.22,0.18,0.32,0.34,,,,9.14,0.72,4.37,0.03,0.26,0.37,,,,paper
11.387746,-0.57,8.89,2.68,-0.19,0.17,0.41,6.31,-25.44,6.25,7.91,-0.28,-5.06,0.37,0.29,-0.02,,,,7.53,1.69,5.89,0.01,0.35,0.35,,,,8.22,0.06,5.07,0.12,0.31,0.32,,,,8.95,-1.07,3.18,0.18,0.3,0.35,,,,8.91,0.62,4.44,0.05,0.24,0.36,,,,paper
11.425269,-0.45,8.93,2.68,-0.12,0.2,0.37,6.31,-25.44,6.25,7.76,-0.29,-4.93,0.38,0.24,-0.05,,,,7.39,1.6,5.77,0.04,0.3,0.35,,,,8.07,-0.06,4.94,0.15,0.26,0.33,,,,8.77,-1.19,3.07,0.2,0.24,0.34,,,,8.83,0.47,4.29,0.08,0.2,0.35,,,,paper
11.469879,-0.34,8.89,2.68,-0.12,0.25,0.32,6.31,-25.44,6.25,7.82,-0.41,-4.9,0.38,0.19,-0.1,,,,7.39,1.5,5.85,0.1,0.26,0.34,,,,8.07,-0.15,5.03,0.19,0.21,0.31,,,,8.77,-1.26,3.16,0.23,0.19,0.31,,,,8.79,0.42,4.37,0.13,0.17,0.31,,,,paper
11.508623,-0.38,8.88,2.76,-0.07,0.28,0.3,6.31,-25.44,6.25,7.95,-0.37,-4.73,0.39,0.14,-0.12,,,,7.29,1.56,6.03,0.13,0.22,0.34,,,,8.0,-0.04,5.25,0.21,0.16,0.31,,,,8.72,-1.15,3.38,0.25,0.14,0.3,,,,8.74,0.42,4.55,0.16,0.13,0.3,,,,paper
11.554838,-0.3,8.8,2.87,-0.04,0.28,0.29,0.56,-27.88,3.75,7.98,-0.29,-4.49,0.36,0.11,-0.15,,,,7.05,1.59,6.11,0.16,0.18,0.31,,,,7.76,-0.01,5.3,0.23,0.12,0.28,,,,8.52,-1.13,3.5,0.25,0.1,0.27,,,,8.56,0.32,4.67,0.18,0.1,0.26,,,,paper
11.592228,-0.3,8.65,2.91,-0.02,0.3,0.2,0.56,-27.88,3.75,7.99,-0.32,-4.45,0.34,0.05,-0.17,,,,6.99,1.55,6.17,0.18,0.11,0.29,,,,7.69,0.01,5.37,0.24,0.05,0.26,,,,8.49,-1.08,3.6,0.25,0.03,0.24,,,,8.52,0.31,4.76,0.2,0.05,0.22,,,,paper
11.635002,-0.3,8.8,2.91,-0.02,0.3,0.2,1.13,-26.38,3.25,8.09,-0.31,-4.39,0.3,-0.0,-0.18,,,,6.99,1.58,6.27,0.2,0.06,0.25,,,,7.7,0.05,5.49,0.24,0.0,0.22,,,,8.51,-1.09,3.68,0.23,-0.02,0.2,,,,8.52,0.31,4.88,0.21,0.01,0.16,,,,paper
11.672196,-0.26,8.81,2.87,0.06,0.28,0.09,1.13,-26.38,3.25,8.07,-0.34,-4.44,0.26,-0.05,-0.19,,,,7.01,1.57,6.25,0.2,0.0,0.22,,,,7.76,0.01,5.46,0.23,-0.05,0.18,,,,8.54,-1.11,3.64,0.22,-0.07,0.16,,,,8.59,0.32,4.8,0.21,-0.03,0.12,,,,paper
11.714711,-0.34,8.73,2.87,0.08,0.3,0.06,1.0,-27.13,3.19,7.97,-0.29,-4.45,0.23,-0.1,-0.2,,,,6.97,1.61,6.14,0.21,-0.04,0.2,,,,7.7,0.05,5.33,0.23,-0.1,0.16,,,,8.47,-1.07,3.52,0.2,-0.11,0.14,,,,8.53,0.32,4.69,0.21,-0.07,0.08,,,,paper
11.752398,-0.38,8.69,2.76,0.13,0.29,-0.02,1.0,-27.13,3.19,7.86,-0.24,-4.47,0.2,-0.15,-0.22,,,,6.99,1.62,6.0,0.23,-0.1,0.16,,,,7.69,0.04,5.19,0.23,-0.15,0.12,,,,8.45,-1.07,3.38,0.2,-0.17,0.1,,,,8.5,0.38,4.54,0.23,-0.11,0.03,,,,paper
11.794934,-0.57,8.73,2.76,0.15,0.3,-0.04,1.5,-27.0,3.94,7.83,-0.02,-4.33,0.15,-0.17,-0.27,,,,6.83,1.82,6.01,0.26,-0.12,0.1,,,,7.61,0.25,5.2,0.26,-0.17,0.05,,,,8.4,-0.88,3.4,0.2,-0.19,0.02,,,,8.28,0.43,4.45,0.26,-0.11,-0.05,,,,paper
11.833283,-0.68,8.57,2.8,0.11,0.29,-0.17,1.5,-27.0,3.94,7.73,-0.0,-4.52,0.1,-0.23,-0.29,,,,6.89,1.86,5.87,0.28,-0.19,0.05,,,,7.59,0.33,5.09,0.25,-0.24,-0.01,,,,8.37,-0.74,3.37,0.18,-0.25,-0.04,,,,8.37,0.61,4.61,0.26,-0.15,-0.13,,,,paper
11.880442,-0.76,8.96,2.76,0.21,0.3,-0.26,0.94,-27.25,6.0,7.85,0.11,-4.65,0.04,-0.32,-0.33,,,,7.13,1.96,5.89,0.32,-0.27,-0.02,,,,7.92,0.35,5.09,0.28,-0.34,-0.06,,,,8.72,-0.77,3.27,0.18,-0.33,-0.11,,,,8.65,0.71,4.42,0.28,-0.22,-0.21,,,,paper
11.917431,-0.76,9.11,2.84,0.18,0.31,-0.33,0.94,-27.25,6.0,7.98,0.01,-4.89,0.01,-0.32,-0.38,,,,7.42,1.92,5.96,0.36,-0.28,-0.06,,,,8.19,0.29,5.15,0.31,-0.34,-0.11,,,,8.96,-0.87,3.25,0.2,-0.35,-0.16,,,,8.89,0.77,4.49,0.3,-0.21,-0.26,,,,paper
11.96381,-0.88,9.41,2.91,0.18,0.35,-0.37,2.31,-27.44,5.0,8.39,0.06,-5.01,-0.02,-0.31,-0.43,,,,7.73,2.08,6.3,0.39,-0.28,-0.11,,,,8.63,0.34,5.39,0.33,-0.35,-0.15,,,,9.46,-0.89,3.32,0.22,-0.34,-0.21,,,,9.22,0.94,4.55,0.31,-0.19,-0.29,,,,paper
12.008065,-1.07,9.46,2.76,0.07,0.31,-0.37,2.31,-27.44,5.0,8.61,0.01,-5.25,-0.04,-0.26,-0.43,,,,8.04,2.12,6.43,0.38,-0.23,-0.13,,,,8.95,0.38,5.5,0.33,-0.3,-0.18,,,,9.76,-0.84,3.38,0.22,-0.3,-0.22,,,,9.42,1.1,4.63,0.29,-0.14,-0.29,,,,paper
12.04706,-1.11,9.57,2.8,0.07,0.3,-0.33,2.31,-27.44,5.0,8.44,0.05,-5.38,-0.04,-0.23,-0.4,,,,7.99,2.2,6.25,0.34,-0.2,-0.12,,,,8.9,0.47,5.33,0.3,-0.26,-0.16,,,,9.71,-0.68,3.31,0.2,-0.26,-0.2,,,,9.41,1.24,4.6,0.27,-0.11,-0.27,,,,paper
12.086659,-1.18,9.23,2.72,0.08,0.27,-0.32,5.25,-25.5,7.56,8.15,0.27,-5.37,-0.03,-0.24,-0.37,,,,7.82,2.34,5.98,0.32,-0.21,-0.1,,,,8.7,0.62,5.08,0.28,-0.26,-0.14,,,,9.5,-0.51,3.14,0.17,-0.27,-0.19,,,,9.22,1.33,4.53,0.25,-0.13,-0.26,,,,paper
12.130665,-1.41,9.23,2.68,0.13,0.24,-0.33,5.56,-27.06,6.06,8.05,0.34,-5.44,-0.05,-0.26,-0.34,,,,7.93,2.44,5.8,0.29,-0.23,-0.11,,,,8.82,0.67,4.92,0.24,-0.28,-0.14,,,,9.59,-0.48,2.9,0.14,-0.28,-0.18,,,,9.28,1.44,4.27,0.22,-0.15,-0.27,,,,paper
12.176479,-1.49,9.41,2.49,0.11,0.27,-0.32,7.44,-25.88,7.06,7.91,0.29,-5.8,-0.05,-0.26,-0.35,,,,8.25,2.38,5.62,0.3,-0.23,-0.11,,,,9.11,0.54,4.66,0.26,-0.29,-0.14,,,,9.8,-0.66,2.56,0.16,-0.29,-0.19,,,,9.51,1.5,3.98,0.23,-0.15,-0.27,,,,paper
12.595038,-1.49,9.65,2.49,0.11,0.27,-0.32,7.13,-27.13,6.19,7.93,0.18,-5.99,-0.02,-0.23,-0.36,,,,8.45,2.3,5.57,0.32,-0.2,-0.09,,,,9.32,0.44,4.62,0.29,-0.26,-0.12,,,,9.98,-0.64,2.56,0.19,-0.26,-0.18,,,,9.7,1.55,3.91,0.25,-0.12,-0.25,,,,paper
12.596904,-1.57,9.69,2.34,0.09,0.31,-0.26,7.44,-26.25,7.38,7.98,0.24,-6.02,0.03,-0.23,-0.35,,,,8.41,2.38,5.57,0.33,-0.21,-0.02,,,,9.53,0.27,4.56,0.31,-0.26,-0.04,,,,10.02,-0.59,2.58,0.19,-0.25,-0.14,,,,9.68,1.55,4.03,0.26,-0.13,-0.21,,,,paper
12.597048,-1.64,9.88,2.49,0.09,0.29,-0.24,8.0,-26.56,6.31,8.24,0.28,-6.11,0.04,-0.21,-0.33,,,,8.65,2.53,5.8,0.32,-0.19,-0.02,,,,9.63,0.59,4.79,0.31,-0.23,-0.03,,,,10.4,-0.6,2.6,0.18,-0.24,-0.11,,,,9.97,1.76,4.03,0.25,-0.12,-0.17,,,,paper
12.597177,-1.79,10.03,2.49,0.07,0.29,-0.18,8.0,-26.56,6.31,8.33,0.38,-6.33,0.07,-0.15,-0.31,,,,8.91,2.63,5.82,0.29,-0.11,0.01,,,,9.88,0.69,4.82,0.27,-0.16,-0.02,,,,10.66,-0.48,2.61,0.19,-0.16,-0.07,,,,10.15,1.97,4.07,0.24,-0.07,-0.11,,,,paper
12.597314,-1.98,9.84,2.64,0.02,0.29,-0.09,8.56,-24.81,8.31,8.37,0.61,-6.16,0.12,-0.09,-0.26,,,,8.73,2.85,5.84,0.24,-0.04,0.06,,,,9.76,0.9,4.86,0.24,-0.09,0.03,,,,10.52,-0.23,2.67,0.19,-0.09,0.01,,,,9.94,2.11,4.22,0.2,-0.03,-0.04,,,,paper
12.597447,-2.14,9.65,2.68,0.02,0.29,-0.09,7.94,-24.88,5.81,8.21,0.79,-6.04,0.11,-0.05,-0.21,,,,8.46,3.04,5.75,0.18,-0.0,0.07,,,,9.5,1.13,4.83,0.19,-0.05,0.04,,,,10.27,0.01,2.7,0.16,-0.05,0.03,,,,9.72,2.17,4.24,0.15,-0.0,-0.01,,,,paper
12.597566,-2.18,9.65,2.41,0.03,0.16,-0.0,7.94,-24.88,5.81,8.02,0.81,-6.17,0.13,-0.05,-0.16,,,,8.51,2.97,5.52,0.13,-0.02,0.09,,,,9.53,1.08,4.59,0.14,-0.05,0.06,,,,10.28,-0.03,2.49,0.11,-0.05,0.05,,,,9.74,2.22,4.03,0.1,-0.02,0.01,,,,paper
12.598384,-2.21,9.65,2.49,0.0,0.15,0.04,7.94,-25.75,7.44,7.93,0.9,-6.15,0.13,-0.02,-0.14,,,,8.44,3.04,5.42,0.11,0.02,0.1,,,,9.47,1.15,4.51,0.14,-0.01,0.08,,,,10.21,0.05,2.44,0.11,-0.01,0.07,,,,9.68,2.29,4.07,0.09,0.01,0.03,,,,paper
12.59852,-2.33,9.5,2.61,0.03,0.13,0.04,7.94,-25.75,7.44,8.09,0.99,-6.0,0.13,-0.0,-0.1,,,,8.37,3.21,5.6,0.06,0.02,0.12,,,,9.45,1.35,4.72,0.09,0.0,0.09,,,,10.25,0.25,2.62,0.07,0.0,0.09,,,,9.61,2.39,4.19,0.03,0.01,0.06,,,,paper
12.598649,-2.33,9.54,2.61,0.0,0.06,0.07,7.94,-25.75,7.44,7.94,0.97,-6.09,0.1,0.01,-0.06,,,,8.41,3.13,5.46,0.02,0.03,0.11,,,,9.42,1.23,4.56,0.05,0.02,0.08,,,,10.19,0.11,2.5,0.03,0.03,0.09,,,,9.64,2.28,4.09,-0.01,0.02,0.05,,,,paper
12.636351,-2.1,9.8,2.45,0.0,0.06,0.07,8.63,-26.06,7.13,8.11,0.74,-6.27,0.1,0.06,-0.05,,,,8.79,2.92,5.57,0.01,0.08,0.1,,,,9.81,0.97,4.59,0.05,0.07,0.08,,,,10.56,-0.15,2.39,0.03,0.08,0.1,,,,9.92,2.27,3.94,-0.01,0.06,0.07,,,,paper
12.673395,-1.98,9.72,2.34,-0.07,0.06,0.15,8.63,-26.06,7.13,7.92,0.54,-6.36,0.15,0.1,-0.04,,,,8.78,2.71,5.37,-0.0,0.13,0.16,,,,9.73,0.74,4.39,0.05,0.12,0.13,,,,10.42,-0.36,2.25,0.06,0.13,0.16,,,,9.88,2.1,3.8,-0.01,0.1,0.13,,,,paper
13.107102,-1.83,9.54,2.22,-0.09,0.1,0.21,8.63,-26.06,7.13,7.68,0.45,-6.13,0.19,0.16,-0.04,,,,8.51,2.55,5.19,0.01,0.19,0.19,,,,9.4,0.64,4.25,0.09,0.17,0.17,,,,10.04,-0.43,2.18,0.1,0.18,0.19,,,,9.59,1.9,3.62,0.01,0.14,0.18,,,,paper
13.107322,-1.79,9.15,1.91,-0.11,0.12,0.23,6.75,-27.19,6.56,7.06,0.41,-6.11,0.24,0.15,-0.08,,,,8.23,2.3,4.61,0.06,0.2,0.23,,,,9.03,0.42,3.68,0.14,0.17,0.2,,,,9.56,-0.65,1.7,0.16,0.16,0.21,,,,9.33,1.7,3.23,0.07,0.15,0.2,,,,paper
13.107495,-1.6,9.11,1.57,-0.11,0.12,0.23,7.06,-26.0,7.0,6.71,0.14,-6.29,0.33,0.14,-0.18,,,,8.31,1.95,4.25,0.18,0.2,0.28,,,,9.19,-0.21,3.17,0.29,0.12,0.31,,,,9.45,-0.96,1.41,0.35,0.14,0.24,,,,9.29,1.52,3.02,0.19,0.16,0.22,,,,paper
13.10764,-1.45,9.3,1.46,-0.09,0.37,0.21,6.63,-24.88,8.13,6.64,-0.08,-6.48,0.41,0.08,-0.27,,,,8.55,1.72,4.1,0.3,0.17,0.32,,,,9.14,-0.16,3.18,0.4,0.08,0.32,,,,9.49,-1.24,1.19,0.44,0.06,0.26,,,,9.53,1.4,2.73,0.32,0.13,0.23,,,,paper
13.107776,-1.34,9.53,1.3,-0.09,0.37,0.21,5.81,-26.19,6.88,6.62,-0.37,-6.8,0.56,0.04,-0.41,,,,8.81,1.58,4.22,0.51,0.16,0.45,,,,9.48,-0.55,3.06,0.58,0.04,0.4,,,,9.76,-1.52,1.12,0.61,0.01,0.3,,,,9.79,1.3,2.62,0.51,0.12,0.29,,,,paper
13.107897,-1.3,9.69,1.46,-0.09,0.82,0.28,5.69,-27.25,7.44,6.79,-0.22,-6.66,0.7,0.06,-0.51,,,,8.96,1.65,4.5,0.66,0.19,0.51,,,,9.57,-0.3,3.56,0.73,0.03,0.45,,,,9.96,-1.34,1.53,0.75,-0.04,0.34,,,,9.93,1.33,3.04,0.67,0.12,0.36,,,,paper
13.108018,-1.57,10.07,1.95,-0.03,0.89,0.3,5.69,-27.25,7.44,7.7,-0.13,-6.68,0.79,0.03,-0.58,,,,9.28,2.04,5.15,0.72,0.19,0.58,,,,10.03,0.03,4.13,0.79,0.02,0.53,,,,10.59,-1.05,1.91,0.83,-0.06,0.4,,,,10.27,1.66,3.33,0.74,0.11,0.43,,,,paper
13.108875,-1.91,10.07,2.22,-0.12,0.9,0.41,5.69,-27.25,7.44,8.1,0.26,-6.57,0.84,0.09,-0.56,,,,9.09,2.61,5.53,0.69,0.27,0.63,,,,9.99,0.69,4.57,0.79,0.1,0.57,,,,10.58,-0.45,2.28,0.87,-0.0,0.43,,,,10.12,2.07,3.91,0.74,0.17,0.5,,,,paper
13.109007,-2.29,9.84,2.64,-0.1,0.85,0.46,2.06,-26.69,5.44,8.26,0.95,-6.07,0.84,0.16,-0.52,,,,8.52,3.27,5.68,0.64,0.34,0.64,,,,9.67,1.23,4.66,0.75,0.17,0.57,,,,10.51,0.14,2.56,0.82,0.09,0.47,,,,9.83,2.33,4.05,0.69,0.23,0.53,,,,paper
13.109132,-2.37,9.61,2.72,-0.21,0.8,0.47,2.06,-26.69,5.44,8.11,1.12,-6.03,0.78,0.21,-0.48,,,,8.25,3.4,5.59,0.58,0.38,0.59,,,,9.36,1.52,4.74,0.7,0.22,0.53,,,,10.19,0.49,2.8,0.76,0.14,0.43,,,,9.56,2.47,4.55,0.62,0.26,0.51,,,,paper
13.141394,-2.18,9.76,2.76,-0.16,0.71,0.45,-0.44,-26.13,5.25,8.66,0.92,-5.88,0.74,0.21,-0.4,,,,8.53,3.26,6.19,0.48,0.36,0.57,,,,9.67,1.36,5.25,0.59,0.22,0.52,,,,10.58,0.22,3.09,0.64,0.16,0.44,,,,9.86,2.26,4.55,0.52,0.25,0.51,,,,paper
13.186554,-1.57,10.14,2.68,-0.22,0.54,0.52,-0.88,-27.13,3.38,8.76,0.24,-6.23,0.69,0.27,-0.29,,,,8.88,2.7,6.28,0.36,0.4,0.56,,,,9.86,0.77,5.33,0.49,0.29,0.52,,,,10.69,-0.31,3.21,0.55,0.23,0.47,,,,10.15,1.88,4.72,0.4,0.27,0.53,,,,paper
13.617173,-1.45,10.38,2.72,-0.17,0.51,0.55,-4.19,-28.44,3.63,9.06,-0.0,-6.19,0.68,0.3,-0.18,,,,9.04,2.51,6.59,0.24,0.43,0.58,,,,10.04,0.56,5.6,0.39,0.34,0.55,,,,10.88,-0.55,3.38,0.46,0.29,0.51,,,,10.34,1.67,4.73,0.3,0.28,0.58,,,,paper
13.617329,-1.07,10.26,2.72,-0.2,0.34,0.67,-4.81,-28.38,1.5,8.95,-0.21,-5.95,0.68,0.39,-0.09,,,,8.83,2.16,6.53,0.14,0.51,0.6,,,,9.79,0.2,5.54,0.31,0.44,0.58,,,,10.59,-0.9,3.35,0.4,0.4,0.56,,,,10.13,1.33,4.63,0.21,0.35,0.63,,,,paper
13.617482,-0.88,9.41,2.99,-0.27,0.33,0.73,-5.63,-27.63,3.25,8.75,-0.04,-5.19,0.69,0.48,-0.05,,,,8.02,2.22,6.53,0.08,0.6,0.61,,,,8.94,0.38,5.61,0.27,0.53,0.59,,,,9.8,-0.7,3.59,0.38,0.49,0.58,,,,9.43,1.06,4.77,0.14,0.41,0.67,,,,paper
13.617608,-0.84,9.07,2.99,-0.35,0.27,0.73,-7.06,-27.25,0.0,8.62,0.0,-4.75,0.61,0.53,0.0,,,,7.44,2.28,6.57,0.0,0.62,0.55,,,,8.34,0.62,5.77,0.2,0.57,0.53,,,,9.24,-0.38,3.9,0.3,0.55,0.54,,,,8.9,0.98,5.06,0.05,0.45,0.64,,,,paper
13.617754,-0.68,8.92,2.72,-0.26,0.05,0.65,-7.06,-27.25,0.0,8.15,-0.12,-4.74,0.51,0.5,0.1,,,,7.26,2.01,6.16,-0.11,0.57,0.5,,,,8.06,0.39,5.36,0.07,0.54,0.48,,,,8.83,-0.59,3.57,0.17,0.53,0.51,,,,8.68,0.8,4.79,-0.06,0.4,0.58,,,,paper
13.617892,-0.53,8.81,2.68,-0.26,0.03,0.6,-7.06,-27.25,0.0,7.83,-0.26,-4.66,0.44,0.48,0.13,,,,7.15,1.72,5.86,-0.15,0.53,0.44,,,,7.89,0.05,5.02,0.03,0.52,0.43,,,,8.59,-0.91,3.26,0.12,0.51,0.46,,,,8.52,0.55,4.41,-0.11,0.37,0.53,,,,paper
13.618013,-0.26,8.35,2.61,-0.19,0.03,0.51,-10.19,-27.13,-0.63,7.46,-0.52,-4.57,0.38,0.39,0.11,,,,6.86,1.4,5.64,-0.15,0.42,0.38,,,,7.43,-0.13,4.91,-0.0,0.41,0.37,,,,8.08,-0.98,3.31,0.06,0.42,0.41,,,,8.22,0.28,4.51,-0.11,0.28,0.45,,,,paper
13.619011,-0.03,8.5,2.72,-0.11,0.02,0.45,-12.88,-28.19,-2.38,7.64,-0.57,-4.11,0.31,0.31,0.11,,,,6.69,1.24,5.88,-0.15,0.34,0.32,,,,7.31,-0.33,5.08,-0.03,0.34,0.31,,,,8.02,-1.27,3.37,0.02,0.35,0.35,,,,8.16,0.0,4.35,-0.12,0.23,0.38,,,,paper
13.619144,0.27,8.12,2.64,-0.19,0.02,0.33,-12.88,-28.19,-2.38,7.29,-0.9,-4.08,0.24,0.27,0.06,,,,6.47,0.85,5.64,-0.11,0.29,0.25,,,,6.89,-0.55,4.96,-0.01,0.28,0.24,,,,7.47,-1.38,3.44,0.03,0.29,0.27,,,,7.84,-0.28,4.53,-0.1,0.19,0.29,,,,paper
13.619269,0.35,8.04,2.57,-0.19,0.02,0.33,-13.0,-26.81,-2.63,7.13,-0.82,-3.84,0.18,0.11,0.03,,,,6.15,0.85,5.54,-0.07,0.14,0.2,,,,6.6,-0.62,4.82,-0.01,0.13,0.18,,,,7.2,-1.5,3.36,-0.0,0.14,0.2,,,,7.69,-0.54,4.34,-0.07,0.07,0.17,,,,paper
13.644045,0.31,8.19,2.61,0.04,0.05,0.02,-13.63,-27.69,-3.06,7.24,-0.96,-4.09,0.1,-0.01,-0.03,,,,6.45,0.79,5.59,-0.0,-0.0,0.11,,,,6.9,-0.7,4.89,0.02,-0.01,0.09,,,,7.51,-1.56,3.39,-0.0,0.0,0.1,,,,7.95,-0.39,4.45,-0.02,-0.03,0.05,,,,paper
13.688242,0.16,8.57,2.72,0.13,0.07,-0.07,-13.69,-26.56,-2.31,7.62,-0.9,-4.11,0.07,-0.11,-0.1,,,,6.66,0.96,5.91,0.05,-0.1,0.05,,,,7.28,-0.64,5.16,0.05,-0.11,0.03,,,,7.93,-1.49,3.56,0.01,-0.08,0.03,,,,8.2,-0.27,4.47,0.02,-0.09,-0.04,,,,paper
14.127069,0.01,8.35,2.84,0.11,0.09,-0.14,-13.63,-28.25,-1.75,7.75,-0.64,-3.84,-0.02,-0.14,-0.13,,,,6.44,1.2,6.08,0.07,-0.14,-0.03,,,,7.01,-0.26,5.37,0.05,-0.16,-0.05,,,,7.78,-1.24,3.73,-0.01,-0.13,-0.05,,,,7.99,-0.16,4.7,0.03,-0.12,-0.13,,,,paper
14.127206,-0.07,8.23,2.72,0.13,0.04,-0.26,-13.63,-28.25,-1.75,7.52,-0.48,-3.9,-0.13,-0.21,-0.15,,,,6.31,1.3,5.82,0.08,-0.23,-0.12,,,,6.9,-0.2,5.13,0.03,-0.23,-0.15,,,,7.63,-1.13,3.57,-0.05,-0.2,-0.14,,,,7.86,-0.11,4.59,0.02,-0.17,-0.25,,,,paper
14.127342,-0.3,8.5,2.72,0.17,0.03,-0.42,-13.63,-28.25,-1.75,7.6,-0.46,-4.39,-0.23,-0.28,-0.2,,,,6.77,1.45,5.8,0.12,-0.32,-0.23,,,,7.45,-0.17,5.04,0.04,-0.33,-0.26,,,,8.05,-0.95,3.47,-0.05,-0.28,-0.26,,,,8.26,0.21,4.5,0.03,-0.21,-0.38,,,,paper
14.127466,-0.61,9.19,2.72,0.2,0.05,-0.51,-11.88,-27.56,-1.56,7.99,-0.45,-4.8,-0.28,-0.35,-0.22,,,,7.4,1.56,6.0,0.13,-0.39,-0.28,,,,8.09,-0.1,5.17,0.03,-0.4,-0.31,,,,8.85,-1.05,3.39,-0.1,-0.36,-0.31,,,,8.82,0.54,4.53,0.04,-0.26,-0.44,,,,paper
14.127597,-0.61,9.27,2.72,0.24,-0.01,-0.5,-10.38,-27.06,0.75,8.27,-0.45,-5.02,-0.31,-0.39,-0.2,,,,7.72,1.7,6.17,0.12,-0.43,-0.28,,,,8.43,-0.06,5.32,0.01,-0.44,-0.32,,,,9.15,-0.99,3.51,-0.12,-0.38,-0.32,,,,9.03,0.64,4.71,0.0,-0.29,-0.47,,,,paper
14.127732,-0.64,9.49,2.72,0.24,-0.01,-0.5,-10.38,-28.5,-0.06,8.49,-0.6,-5.28,-0.33,-0.37,-0.16,,,,7.99,1.81,6.56,0.1,-0.47,-0.28,,,,8.85,-0.14,5.46,-0.06,-0.42,-0.35,,,,9.6,-1.02,3.6,-0.2,-0.36,-0.33,,,,9.42,0.78,4.71,-0.05,-0.3,-0.47,,,,paper
14.127856,-0.57,9.69,2.68,0.24,-0.12,-0.44,-8.31,-28.69,1.81,8.54,-0.73,-5.35,-0.32,-0.35,-0.09,,,,8.29,1.52,6.33,0.01,-0.43,-0.25,,,,9.02,-0.29,5.45,-0.12,-0.36,-0.32,,,,9.75,-1.34,3.39,-0.25,-0.31,-0.27,,,,9.54,0.64,4.46,-0.11,-0.29,-0.42,,,,paper
14.128916,-0.49,9.53,2.38,0.19,-0.11,-0.41,-6.75,-27.81,0.31,8.18,-0.82,-5.61,-0.31,-0.32,-0.08,,,,8.22,1.41,5.98,-0.03,-0.39,-0.27,,,,8.85,-0.45,5.08,-0.13,-0.34,-0.31,,,,9.49,-1.4,3.18,-0.25,-0.3,-0.27,,,,9.53,0.58,4.35,-0.11,-0.28,-0.4,,,,paper
14.129047,-0.72,9.92,2.45,0.27,-0.11,-0.42,-6.75,-27.81,0.31,8.28,-0.79,-5.74,-0.23,-0.34,-0.05,,,,8.58,1.49,6.01,-0.05,-0.4,-0.24,,,,9.27,-0.45,5.11,-0.16,-0.36,-0.28,,,,9.95,-1.44,3.07,-0.27,-0.31,-0.23,,,,9.87,0.78,4.23,-0.12,-0.3,-0.38,,,,paper
14.12917,-0.8,9.84,2.38,0.24,-0.12,-0.32,-5.94,-28.25,1.38,8.21,-0.65,-5.83,-0.22,-0.31,-0.02,,,,8.59,1.57,5.83,-0.08,-0.36,-0.2,,,,9.28,-0.38,4.91,-0.15,-0.32,-0.23,,,,9.91,-1.37,2.91,-0.25,-0.28,-0.18,,,,9.86,0.85,4.16,-0.13,-0.28,-0.32,,,,paper
14.150407,-1.03,9.84,2.38,0.24,-0.12,-0.33,-4.81,-27.13,3.0,8.15,-0.43,-5.86,-0.26,-0.3,-0.02,,,,8.53,1.76,5.74,-0.07,-0.35,-0.2,,,,9.26,-0.17,4.86,-0.15,-0.31,-0.23,,,,9.89,-1.18,2.88,-0.25,-0.27,-0.19,,,,9.84,0.95,4.08,-0.13,-0.27,-0.32,,,,paper
14.190458,-1.11,9.92,2.38,0.2,-0.11,-0.33,-4.81,-27.13,3.0,8.23,-0.52,-6.14,-0.26,-0.28,-0.02,,,,8.83,1.76,5.73,-0.05,-0.33,-0.18,,,,9.55,-0.2,4.84,-0.13,-0.3,-0.23,,,,10.21,-1.19,2.81,-0.23,-0.25,-0.18,,,,10.0,1.16,4.11,-0.12,-0.25,-0.31,,,,paper
14.637292,-1.22,10.0,2.61,0.22,-0.09,-0.27,-4.81,-27.13,3.0,8.49,-0.23,-5.95,-0.23,-0.28,-0.01,,,,8.6,2.16,6.07,-0.07,-0.32,-0.15,,,,9.44,0.2,5.18,-0.15,-0.29,-0.2,,,,10.17,-0.8,3.19,-0.24,-0.24,-0.14,,,,9.91,1.27,4.51,-0.14,-0.25,-0.26,,,,paper
14.637432,-1.45,10.22,2.72,0.22,-0.11,-0.27,-2.88,-28.44,4.81,8.93,-0.06,-5.99,-0.28,-0.24,0.06,,,,8.87,2.38,6.39,-0.15,-0.31,-0.19,,,,9.81,0.4,5.49,-0.22,-0.26,-0.23,,,,10.65,-0.66,3.37,-0.32,-0.2,-0.15,,,,10.27,1.5,4.6,-0.22,-0.23,-0.28,,,,paper
14.63757,-1.53,10.56,2.76,0.22,-0.11,-0.27,-1.81,-26.81,4.69,9.33,-0.09,-6.23,-0.28,-0.11,0.1,,,,9.36,2.49,6.7,-0.23,-0.18,-0.19,,,,10.43,0.38,5.68,-0.26,-0.11,-0.22,,,,11.28,-0.72,3.37,-0.33,-0.05,-0.13,,,,10.63,1.79,4.64,-0.29,-0.12,-0.23,,,,paper
14.637694,-1.68,10.11,2.84,0.03,-0.4,-0.04,-1.81,-26.81,4.69,9.22,0.17,-5.93,-0.25,0.03,0.21,,,,8.91,2.72,6.68,-0.36,-0.05,-0.14,,,,9.89,0.79,5.78,-0.35,0.04,-0.16,,,,10.79,-0.28,3.63,-0.4,0.1,-0.07,,,,10.18,1.83,4.92,-0.42,-0.02,-0.14,,,,paper
14.63784,-1.83,9.72,2.87,0.0,-0.56,-0.04,-1.81,-26.81,4.69,9.01,0.5,-5.58,-0.32,0.1,0.33,,,,8.4,2.97,6.58,-0.51,0.01,-0.18,,,,9.43,1.15,5.71,-0.49,0.12,-0.19,,,,10.35,0.12,3.66,-0.53,0.19,-0.06,,,,9.72,1.92,4.96,-0.56,0.02,-0.14,,,,paper
14.63796,-2.06,9.31,2.8,-0.01,-0.74,-0.04,-3.13,-28.63,3.38,8.5,0.86,-5.41,-0.42,0.15,0.45,,,,8.0,3.15,6.08,-0.65,0.02,-0.24,,,,8.99,1.45,5.32,-0.63,0.17,-0.24,,,,9.89,0.43,3.4,-0.68,0.26,-0.09,,,,9.28,2.08,4.83,-0.72,0.03,-0.16,,,,paper
14.638081,-2.33,9.15,2.87,-0.07,-0.88,-0.09,-3.13,-28.63,3.38,8.35,1.21,-5.2,-0.56,0.2,0.53,,,,7.71,3.48,5.94,-0.78,0.04,-0.33,,,,8.81,1.76,5.17,-0.76,0.21,-0.33,,,,9.67,0.78,3.32,-0.81,0.32,-0.15,,,,8.97,2.29,4.82,-0.86,0.06,-0.23,,,,paper
14.639132,-2.41,9.0,2.72,-0.07,-0.88,-0.09,-0.5,-26.75,6.25,7.86,1.26,-5.4,-0.7,0.19,0.64,,,,7.62,3.46,5.42,-0.92,-0.02,-0.43,,,,8.6,1.81,4.7,-0.91,0.19,-0.42,,,,9.41,0.88,2.97,-0.97,0.32,-0.21,,,,8.8,2.35,4.6,-1.01,0.01,-0.32,,,,paper
14.639269,-2.33,9.03,2.38,0.07,-1.17,-0.25,-0.81,-28.0,5.44,7.62,1.03,-5.63,-0.83,0.13,0.73,,,,7.8,3.11,5.09,-1.05,-0.1,-0.52,,,,8.85,1.41,4.3,-1.05,0.14,-0.5,,,,9.57,0.43,2.49,-1.12,0.28,-0.28,,,,9.01,2.23,4.09,-1.13,-0.05,-0.41,,,,paper
14.639393,-1.87,9.04,1.84,0.07,-1.17,-0.25,1.56,-26.06,5.75,7.23,0.68,-5.81,-0.92,0.14,0.77,,,,7.95,2.81,4.77,-1.09,-0.11,-0.6,,,,8.81,0.97,3.91,-1.11,0.15,-0.58,,,,9.43,-0.02,2.12,-1.19,0.3,-0.33,,,,9.12,1.9,3.65,-1.2,-0.04,-0.46,,,,paper
14.650095,-1.83,9.11,1.72,0.02,-1.26,-0.29,1.75,-27.0,6.44,7.1,0.44,-5.95,-0.98,0.09,0.78,,,,8.04,2.57,4.6,-1.12,-0.17,-0.64,,,,8.81,0.81,3.83,-1.15,0.09,-0.63,,,,9.31,-0.1,2.08,-1.25,0.24,-0.38,,,,9.07,1.8,3.67,-1.24,-0.1,-0.52,,,,paper
14.690175,-1.79,9.38,1.72,0.02,-1.26,-0.29,3.0,-24.88,7.13,7.14,0.34,-6.11,-1.05,0.02,0.81,,,,8.26,2.45,4.54,-1.15,-0.25,-0.69,,,,9.04,0.62,3.74,-1.21,0.02,-0.68,,,,9.56,-0.36,1.88,-1.31,0.17,-0.42,,,,9.32,1.72,3.46,-1.28,-0.16,-0.59,,,,paper
14.732775,-1.6,9.69,1.53,0.15,-1.32,-0.42,4.31,-25.25,8.63,7.23,0.02,-6.48,-1.04,-0.01,0.8,,,,8.81,2.19,4.52,-1.13,-0.28,-0.69,,,,9.52,0.21,3.63,-1.19,-0.01,-0.68,,,,10.01,-0.76,1.67,-1.3,0.15,-0.42,,,,9.78,1.67,3.15,-1.25,-0.18,-0.59,,,,paper
15.147105,-1.57,9.72,1.68,0.12,-1.24,-0.39,4.31,-25.25,8.63,7.39,-0.06,-6.39,-1.02,0.01,0.77,,,,8.76,2.12,4.69,-1.11,-0.24,-0.69,,,,9.5,0.19,3.85,-1.16,0.02,-0.67,,,,9.99,-0.81,1.86,-1.27,0.18,-0.42,,,,9.74,1.54,3.3,-1.23,-0.15,-0.58,,,,paper
15.147249,-1.37,9.5,1.57,0.12,-1.25,-0.39,8.25,-25.13,9.31,7.28,-0.22,-6.33,-1.01,0.02,0.76,,,,8.67,1.94,4.62,-1.1,-0.24,-0.67,,,,9.35,0.03,3.78,-1.15,0.02,-0.66,,,,9.8,-0.93,1.85,-1.25,0.18,-0.42,,,,9.66,1.39,3.27,-1.22,-0.15,-0.58,,,,paper
15.147381,-1.3,9.61,1.42,0.12,-1.25,-0.39,8.63,-25.13,9.0,7.11,-0.37,-6.49,-0.99,0.02,0.74,,,,8.84,1.72,4.43,-1.06,-0.24,-0.66,,,,9.45,-0.25,3.54,-1.11,0.01,-0.65,,,,9.84,-1.22,1.61,-1.22,0.16,-0.41,,,,9.81,1.26,3.04,-1.18,-0.15,-0.57,,,,paper
15.147506,-1.26,9.91,1.27,0.1,-1.16,-0.39,8.0,-26.31,9.19,7.16,-0.59,-6.78,-0.94,0.01,0.68,,,,9.18,1.56,4.44,-0.99,-0.23,-0.63,,,,9.75,-0.48,3.5,-1.04,0.0,-0.61,,,,10.13,-1.48,1.49,-1.14,0.15,-0.39,,,,10.1,1.23,2.91,-1.11,-0.14,-0.55,,,,paper
15.147632,-1.22,9.92,1.34,0.1,-1.06,-0.34,10.13,-25.25,8.75,7.32,-0.71,-6.81,-0.85,0.01,0.64,,,,9.29,1.49,4.62,-0.93,-0.21,-0.56,,,,9.86,-0.57,3.66,-0.97,0.01,-0.55,,,,10.24,-1.51,1.63,-1.06,0.15,-0.34,,,,10.18,1.2,2.99,-1.04,-0.12,-0.49,,,,paper
15.147763,-1.11,9.72,1.53,0.08,-0.96,-0.27,10.13,-25.25,8.75,7.31,-0.63,-6.52,-0.78,0.04,0.6,,,,8.97,1.5,4.69,-0.87,-0.16,-0.51,,,,9.5,-0.48,3.75,-0.9,0.04,-0.5,,,,9.9,-1.49,1.79,-0.99,0.16,-0.31,,,,9.96,1.03,3.09,-0.97,-0.1,-0.44,,,,paper
15.147886,-1.07,9.72,1.57,0.06,-0.92,-0.27,11.19,-24.56,10.0,7.39,-0.66,-6.43,-0.74,0.02,0.55,,,,8.88,1.49,4.81,-0.81,-0.17,-0.48,,,,9.44,-0.44,3.94,-0.84,0.02,-0.48,,,,9.88,-1.37,2.04,-0.93,0.14,-0.29,,,,9.87,1.09,3.35,-0.91,-0.1,-0.42,,,,paper
15.148983,-1.26,9.69,1.99,0.07,-0.84,-0.23,11.19,-24.56,10.0,7.65,-0.43,-6.17,-0.68,0.04,0.52,,,,8.71,1.75,5.1,-0.77,-0.14,-0.44,,,,9.38,-0.17,4.22,-0.8,0.04,-0.44,,,,9.9,-1.15,2.29,-0.88,0.15,-0.26,,,,9.78,1.22,3.61,-0.87,-0.08,-0.38,,,,paper
15.149116,-1.34,9.61,2.07,0.06,-0.85,-0.23,12.38,-24.31,10.13,7.73,-0.25,-6.1,-0.66,0.04,0.52,,,,8.6,1.99,5.21,-0.77,-0.14,-0.43,,,,9.32,0.07,4.33,-0.79,0.04,-0.43,,,,9.88,-0.9,2.4,-0.87,0.15,-0.25,,,,9.72,1.35,3.73,-0.86,-0.08,-0.38,,,,paper
15.149246,-1.53,9.61,2.18,0.04,-0.86,-0.21,12.38,-24.31,10.13,7.75,-0.1,-6.09,-0.66,0.07,0.52,,,,8.62,2.1,5.17,-0.77,-0.11,-0.43,,,,9.34,0.18,4.3,-0.79,0.07,-0.43,,,,9.92,-0.8,2.37,-0.86,0.18,-0.25,,,,9.67,1.47,3.77,-0.86,-0.06,-0.36,,,,paper
15.181947,-1.53,9.57,2.26,0.04,-0.85,-0.21,13.25,-23.13,9.25,7.75,0.01,-6.01,-0.66,0.07,0.5,,,,8.49,2.19,5.18,-0.75,-0.1,-0.43,,,,9.27,0.26,4.36,-0.76,0.07,-0.43,,,,9.86,-0.72,2.43,-0.84,0.18,-0.26,,,,9.62,1.48,3.79,-0.85,-0.04,-0.37,,,,paper
15.226584,-1.45,9.61,2.3,-0.01,-0.84,-0.22,14.75,-21.75,9.94,7.83,-0.05,-5.95,-0.66,0.1,0.49,,,,8.46,2.13,5.28,-0.74,-0.07,-0.44,,,,9.26,0.22,4.43,-0.75,0.1,-0.44,,,,9.88,-0.74,2.53,-0.83,0.21,-0.27,,,,9.6,1.47,3.92,-0.85,-0.01,-0.37,,,,paper
15.657142,-1.37,9.46,2.26,-0.01,-0.84,-0.22,15.13,-21.75,9.56,7.7,-0.15,-5.89,-0.65,0.11,0.49,,,,8.35,2.05,5.22,-0.75,-0.06,-0.43,,,,9.14,0.32,4.57,-0.75,0.1,-0.42,,,,9.71,-0.81,2.49,-0.82,0.22,-0.26,,,,9.5,1.35,3.85,-0.85,-0.0,-0.36,,,,paper
15.657284,-1.3,9.34,2.18,-0.01,-0.84,-0.22,15.31,-22.38,9.19,7.94,-0.38,-6.04,-0.64,0.11,0.47,,,,8.29,2.0,5.04,-0.73,-0.07,-0.43,,,,8.97,0.18,4.23,-0.74,0.09,-0.43,,,,9.5,-0.75,2.42,-0.81,0.2,-0.27,,,,9.42,1.35,3.83,-0.83,-0.02,-0.37,,,,paper
15.657423,-1.49,9.54,2.26,0.07,-0.8,-0.21,17.44,-21.88,10.13,7.73,-0.09,-5.98,-0.62,0.08,0.49,,,,8.49,2.09,5.16,-0.73,-0.1,-0.42,,,,9.29,0.21,4.34,-0.75,0.07,-0.42,,,,9.84,-0.77,2.4,-0.82,0.17,-0.25,,,,9.58,1.46,3.76,-0.82,-0.05,-0.36,,,,paper
15.657554,-1.49,9.45,2.34,0.01,-0.8,-0.2,16.13,-22.88,6.81,7.77,-0.03,-5.95,-0.63,0.1,0.48,,,,8.45,2.19,5.3,-0.73,-0.07,-0.41,,,,9.23,0.31,4.42,-0.74,0.09,-0.41,,,,9.81,-0.61,2.57,-0.81,0.2,-0.24,,,,9.52,1.53,3.97,-0.82,-0.03,-0.33,,,,paper
15.657675,-1.57,9.42,2.45,0.09,-0.84,-0.19,17.63,-22.06,8.38,7.99,0.12,-5.75,-0.63,0.07,0.51,,,,8.29,2.39,5.5,-0.76,-0.11,-0.4,,,,9.13,0.53,4.68,-0.78,0.07,-0.4,,,,9.81,-0.45,2.8,-0.85,0.17,-0.22,,,,9.48,1.57,4.19,-0.84,-0.06,-0.33,,,,paper
15.657804,-1.57,9.49,2.68,0.09,-0.84,-0.19,17.63,-22.06,8.38,8.15,0.2,-5.66,-0.67,0.1,0.54,,,,8.23,2.5,5.65,-0.8,-0.08,-0.42,,,,9.1,0.65,4.84,-0.81,0.1,-0.42,,,,9.8,-0.3,2.95,-0.88,0.22,-0.24,,,,9.41,1.62,4.34,-0.89,-0.03,-0.35,,,,paper
15.657924,-1.57,9.31,2.64,0.04,-0.95,-0.2,17.63,-22.06,8.38,8.06,0.31,-5.56,-0.7,0.12,0.58,,,,8.12,2.54,5.59,-0.84,-0.07,-0.44,,,,9.01,0.72,4.76,-0.85,0.12,-0.44,,,,9.73,-0.27,2.86,-0.92,0.23,-0.25,,,,9.31,1.67,4.24,-0.94,-0.03,-0.36,,,,paper
15.659175,-1.68,9.23,2.61,-0.01,-0.96,-0.2,19.38,-21.06,8.31,7.84,0.4,-5.57,-0.74,0.15,0.59,,,,8.01,2.61,5.37,-0.87,-0.05,-0.47,,,,8.86,0.83,4.59,-0.87,0.15,-0.47,,,,9.53,-0.09,2.79,-0.95,0.26,-0.27,,,,9.14,1.74,4.24,-0.97,-0.0,-0.38,,,,paper
15.659311,-1.79,9.11,2.57,0.01,-1.0,-0.23,18.94,-22.31,6.75,7.67,0.57,-5.5,-0.78,0.13,0.6,,,,7.87,2.72,5.21,-0.89,-0.08,-0.51,,,,8.74,0.91,4.41,-0.9,0.13,-0.5,,,,9.4,-0.05,2.62,-0.98,0.25,-0.3,,,,9.02,1.8,4.11,-1.0,-0.02,-0.42,,,,paper
15.659438,-1.79,9.03,2.41,0.01,-1.04,-0.3,20.19,-21.75,6.56,7.52,0.51,-5.62,-0.83,0.1,0.6,,,,7.91,2.64,5.08,-0.9,-0.12,-0.55,,,,8.71,0.89,4.29,-0.93,0.09,-0.55,,,,9.33,-0.04,2.56,-1.02,0.21,-0.34,,,,8.97,1.81,4.12,-1.02,-0.05,-0.46,,,,paper
15.682389,-1.76,9.3,2.49,0.06,-1.05,-0.34,20.19,-21.75,6.56,7.66,0.44,-5.63,-0.87,0.06,0.61,,,,8.01,2.57,5.17,-0.91,-0.16,-0.59,,,,8.88,0.78,4.36,-0.95,0.05,-0.59,,,,9.52,-0.19,2.58,-1.05,0.18,-0.38,,,,9.16,1.72,4.04,-1.04,-0.08,-0.51,,,,paper
15.727024,-1.49,9.45,2.38,0.05,-1.07,-0.37,21.06,-20.94,6.38,7.74,0.17,-5.85,-0.9,0.05,0.62,,,,8.28,2.35,5.22,-0.93,-0.18,-0.61,,,,9.09,0.51,4.37,-0.97,0.04,-0.6,,,,9.68,-0.45,2.54,-1.07,0.17,-0.39,,,,9.36,1.61,4.04,-1.05,-0.09,-0.53,,,,paper
16.166203,-1.37,9.49,2.38,0.06,-1.06,-0.36,22.5,-19.31,5.63,7.81,-0.01,-5.87,-0.89,0.06,0.61,,,,8.4,2.21,5.28,-0.92,-0.17,-0.61,,,,9.2,0.32,4.42,-0.96,0.05,-0.6,,,,9.8,-0.65,2.53,-1.06,0.18,-0.39,,,,9.48,1.49,3.97,-1.04,-0.08,-0.52,,,,paper
16.166709,-1.3,9.38,2.26,0.04,-1.05,-0.34,22.5,-19.31,5.63,7.71,-0.09,-5.84,-0.87,0.06,0.61,,,,8.37,2.08,5.19,-0.92,-0.16,-0.6,,,,9.1,0.23,4.35,-0.95,0.05,-0.59,,,,9.67,-0.73,2.49,-1.05,0.18,-0.38,,,,9.42,1.38,3.88,-1.03,-0.08,-0.51,,,,paper
16.166849,-1.22,9.45,2.14,0.04,-1.03,-0.34,23.88,-19.81,5.38,7.58,-0.23,-5.97,-0.85,0.05,0.58,,,,8.46,1.92,5.03,-0.87,-0.17,-0.58,,,,9.14,0.0,4.17,-0.91,0.04,-0.57,,,,9.65,-0.94,2.34,-1.01,0.16,-0.38,,,,9.49,1.28,3.75,-0.99,-0.08,-0.51,,,,paper
16.16698,-1.22,9.53,2.14,0.04,-1.03,-0.34,22.75,-20.88,4.06,7.62,-0.34,-6.04,-0.81,0.04,0.53,,,,8.56,1.81,5.07,-0.82,-0.16,-0.56,,,,9.23,-0.07,4.22,-0.86,0.03,-0.56,,,,9.76,-1.02,2.35,-0.95,0.15,-0.37,,,,9.58,1.25,3.72,-0.93,-0.08,-0.49,,,,paper
16.167146,-1.07,9.54,2.18,0.05,-0.86,-0.31,24.38,-19.31,5.75,7.68,-0.45,-5.97,-0.76,0.04,0.49,,,,8.53,1.72,5.13,-0.78,-0.15,-0.52,,,,9.17,-0.18,4.27,-0.81,0.03,-0.52,,,,9.7,-1.11,2.42,-0.9,0.14,-0.34,,,,9.56,1.14,3.75,-0.88,-0.08,-0.46,,,,paper
16.167283,-0.91,9.5,2.22,0.05,-0.86,-0.31,24.13,-18.94,2.63,7.67,-0.51,-5.93,-0.71,0.02,0.46,,,,8.47,1.63,5.18,-0.73,-0.16,-0.49,,,,9.09,-0.26,4.31,-0.76,0.02,-0.49,,,,9.61,-1.24,2.46,-0.85,0.12,-0.32,,,,9.57,1.0,3.78,-0.83,-0.08,-0.43,,,,paper
16.167409,-0.99,9.57,2.41,0.04,-0.74,-0.27,24.13,-18.94,2.63,7.97,-0.58,-5.88,-0.65,0.03,0.43,,,,8.56,1.7,5.49,-0.68,-0.14,-0.45,,,,9.25,-0.23,4.63,-0.71,0.03,-0.45,,,,9.82,-1.16,2.73,-0.8,0.12,-0.29,,,,9.67,1.08,3.99,-0.77,-0.07,-0.4,,,,paper
16.168184,-0.99,9.53,2.49,0.06,-0.71,-0.23,24.13,-18.94,2.63,7.83,-0.53,-5.9,-0.59,0.01,0.43,,,,8.52,1.61,5.33,-0.65,-0.14,-0.39,,,,9.13,-0.25,4.53,-0.67,0.02,-0.39,,,,9.68,-1.19,2.7,-0.75,0.11,-0.24,,,,9.57,1.03,4.02,-0.73,-0.08,-0.36,,,,paper
16.16832,-0.95,9.61,2.49,0.02,-0.64,-0.22,26.13,-17.63,4.69,7.96,-0.51,-5.76,-0.55,0.05,0.35,,,,8.47,1.66,5.47,-0.57,-0.09,-0.38,,,,9.17,-0.28,4.6,-0.58,0.05,-0.38,,,,9.73,-1.29,2.7,-0.66,0.13,-0.24,,,,9.62,1.0,3.99,-0.66,-0.03,-0.33,,,,paper
16.168446,-0.95,9.38,2.61,0.0,-0.58,-0.18,26.13,-17.63,4.69,8.0,-0.52,-5.72,-0.49,0.06,0.32,,,,8.35,1.69,5.59,-0.53,-0.06,-0.33,,,,9.02,-0.17,4.76,-0.54,0.06,-0.34,,,,9.6,-1.12,2.88,-0.61,0.14,-0.21,,,,9.48,0.98,4.14,-0.61,-0.01,-0.29,,,,paper
16.188664,-0.88,9.49,2.49,-0.0,-0.53,-0.18,26.13,-17.63,4.69,7.74,-0.57,-5.62,-0.4,0.06,0.27,,,,8.37,1.5,5.4,-0.48,-0.05,-0.31,,,,8.96,-0.39,4.55,-0.48,0.06,-0.32,,,,9.5,-1.36,2.7,-0.55,0.13,-0.19,,,,9.49,0.83,4.0,-0.56,-0.01,-0.27,,,,paper
16.230339,-0.8,9.46,2.38,-0.01,-0.44,-0.16,27.06,-17.69,2.69,7.82,-0.73,-5.72,-0.37,0.06,0.22,,,,8.41,1.43,5.42,-0.4,-0.04,-0.26,,,,9.04,-0.47,4.57,-0.4,0.06,-0.28,,,,9.57,-1.37,2.73,-0.46,0.12,-0.17,,,,9.55,0.82,3.92,-0.48,0.0,-0.24,,,,paper
16.268214,-0.8,9.34,2.34,-0.02,-0.38,-0.12,27.06,-17.69,2.69,7.75,-0.81,-5.76,-0.31,0.06,0.19,,,,8.41,1.36,5.38,-0.35,-0.02,-0.21,,,,8.98,-0.53,4.52,-0.34,0.06,-0.22,,,,9.5,-1.45,2.67,-0.4,0.12,-0.12,,,,9.49,0.77,3.86,-0.41,0.01,-0.19,,,,paper
16.677582,-0.72,9.34,2.34,-0.01,-0.34,-0.09,27.81,-17.88,2.75,7.61,-0.82,-5.74,-0.23,0.03,0.12,,,,8.3,1.29,5.22,-0.26,-0.03,-0.16,,,,8.86,-0.58,4.41,-0.25,0.03,-0.18,,,,9.36,-1.48,2.62,-0.31,0.08,-0.09,,,,9.45,0.72,3.87,-0.32,-0.01,-0.16,,,,paper
16.677757,-0.76,9.42,2.49,0.02,-0.19,-0.08,27.13,-18.56,1.19,7.88,-0.76,-5.66,-0.16,0.02,0.07,,,,8.35,1.42,5.49,-0.19,-0.02,-0.1,,,,8.97,-0.47,4.64,-0.19,0.02,-0.12,,,,9.51,-1.4,2.79,-0.23,0.06,-0.06,,,,9.48,0.78,4.0,-0.24,-0.01,-0.12,,,,paper
16.677901,-0.84,9.34,2.61,0.01,-0.15,-0.05,26.75,-18.63,1.19,8.0,-0.68,-5.58,-0.1,-0.0,0.05,,,,8.28,1.55,5.65,-0.14,-0.03,-0.05,,,,8.89,-0.31,4.82,-0.13,-0.0,-0.07,,,,9.46,-1.18,3.03,-0.17,0.03,-0.01,,,,9.38,0.88,4.32,-0.18,-0.03,-0.07,,,,paper
16.678029,-0.95,9.38,2.72,0.01,-0.15,-0.05,27.13,-18.88,1.5,8.17,-0.36,-5.33,-0.07,0.0,0.02,,,,8.05,1.82,5.82,-0.11,-0.02,-0.03,,,,8.8,-0.02,5.02,-0.09,0.0,-0.05,,,,9.47,-1.0,3.17,-0.13,0.03,-0.01,,,,9.34,0.93,4.33,-0.14,-0.01,-0.06,,,,paper
16.678155,-1.07,9.38,2.72,0.0,-0.04,-0.02,26.94,-18.38,2.94,8.28,-0.37,-5.43,-0.04,0.02,-0.0,,,,8.2,1.9,5.89,-0.08,-0.0,-0.02,,,,8.95,0.05,5.08,-0.07,0.02,-0.04,,,,9.64,-0.88,3.24,-0.11,0.04,0.01,,,,9.4,1.13,4.51,-0.12,0.01,-0.05,,,,paper
16.678277,-1.14,9.41,2.84,0.0,-0.04,-0.02,27.88,-16.94,1.44,8.29,-0.17,-5.38,-0.01,0.04,-0.01,,,,8.1,2.05,5.9,-0.07,0.03,0.01,,,,8.89,0.2,5.08,-0.05,0.04,-0.02,,,,9.58,-0.75,3.27,-0.08,0.06,0.03,,,,9.32,1.23,4.56,-0.1,0.03,-0.02,,,,paper
16.678401,-1.18,9.23,2.84,-0.02,-0.03,0.02,26.0,-18.06,0.75,8.23,-0.12,-5.24,0.0,0.04,-0.01,,,,7.91,2.12,5.91,-0.06,0.03,0.02,,,,8.7,0.33,5.13,-0.04,0.04,-0.0,,,,9.41,-0.58,3.36,-0.07,0.06,0.03,,,,9.15,1.22,4.62,-0.09,0.03,-0.0,,,,paper
16.679373,-1.18,9.11,2.8,-0.01,-0.03,0.01,26.0,-18.06,0.75,8.08,-0.04,-5.16,-0.01,0.03,-0.02,,,,7.75,2.14,5.81,-0.06,0.03,0.01,,,,8.5,0.36,5.01,-0.04,0.03,-0.02,,,,9.23,-0.57,3.3,-0.07,0.05,0.02,,,,8.97,1.19,4.66,-0.09,0.02,-0.02,,,,paper
16.679529,-1.14,9.19,2.8,0.03,-0.03,-0.01,26.0,-18.06,0.75,8.16,-0.12,-5.24,-0.0,0.0,-0.01,,,,7.91,2.07,5.86,-0.06,0.0,0.02,,,,8.66,0.31,5.06,-0.04,0.01,-0.01,,,,9.37,-0.61,3.3,-0.08,0.03,0.02,,,,9.1,1.22,4.58,-0.1,-0.0,-0.02,,,,paper
16.685168,-1.11,9.27,2.76,0.03,-0.03,-0.0,26.44,-19.5,0.38,8.1,-0.17,-5.28,-0.01,0.0,-0.02,,,,7.91,1.99,5.77,-0.05,0.0,0.01,,,,8.64,0.22,5.0,-0.03,0.01,-0.02,,,,9.33,-0.71,3.27,-0.07,0.03,0.02,,,,9.12,1.14,4.57,-0.08,-0.0,-0.02,,,,paper
16.729373,-1.14,9.34,2.84,0.04,-0.01,-0.01,26.25,-19.06,1.06,8.27,-0.17,-5.28,0.01,-0.0,-0.03,,,,8.03,2.08,5.95,-0.04,-0.0,0.02,,,,8.8,0.26,5.15,-0.03,0.0,-0.01,,,,9.51,-0.69,3.33,-0.07,0.02,0.03,,,,9.24,1.2,4.58,-0.08,-0.01,-0.02,,,,paper
16.77417,-1.26,9.3,2.87,0.02,0.0,0.01,26.44,-17.63,0.5,8.34,-0.02,-5.21,0.01,-0.0,-0.02,,,,7.94,2.22,5.97,-0.05,-0.01,0.03,,,,8.75,0.4,5.2,-0.03,0.0,-0.0,,,,9.5,-0.55,3.41,-0.07,0.02,0.04,,,,9.19,1.28,4.71,-0.07,-0.01,-0.01,,,,paper
17.187438,-1.3,9.27,2.99,0.01,-0.02,0.0,27.56,-19.94,0.75,8.37,0.05,-5.19,-0.01,0.01,-0.01,,,,7.9,2.31,6.02,-0.06,0.0,0.02,,,,8.72,0.52,5.27,-0.04,0.01,-0.01,,,,9.49,-0.43,3.48,-0.08,0.03,0.03,,,,9.14,1.36,4.81,-0.09,-0.0,-0.01,,,,paper
17.187598,-1.37,9.19,3.1,0.03,-0.05,-0.0,26.44,-18.63,1.88,8.41,0.24,-5.0,-0.03,0.01,0.02,,,,7.75,2.49,6.1,-0.1,0.0,-0.0,,,,8.61,0.71,5.35,-0.08,0.02,-0.03,,,,9.39,-0.25,3.56,-0.12,0.05,0.02,,,,9.0,1.42,4.87,-0.13,-0.0,-0.03,,,,paper
17.187788,-1.41,9.11,3.1,0.03,-0.05,-0.0,26.44,-18.63,1.88,8.34,0.31,-5.03,-0.07,0.01,0.03,,,,7.66,2.55,6.06,-0.12,-0.01,-0.03,,,,8.54,0.8,5.31,-0.1,0.01,-0.05,,,,9.34,-0.17,3.57,-0.15,0.04,-0.01,,,,8.94,1.5,4.95,-0.16,-0.01,-0.06,,,,paper
17.187924,-1.6,9.3,3.25,0.03,-0.13,-0.06,27.63,-18.06,1.31,8.57,0.43,-5.05,-0.13,0.02,0.05,,,,7.73,2.73,6.27,-0.16,-0.02,-0.08,,,,8.66,1.02,5.55,-0.15,0.01,-0.11,,,,9.54,0.02,3.75,-0.2,0.05,-0.04,,,,9.07,1.6,5.08,-0.21,-0.01,-0.1,,,,paper
17.18806,-1.57,9.57,3.52,0.01,-0.2,-0.07,26.88,-19.38,0.38,8.93,0.47,-5.09,-0.18,0.05,0.1,,,,7.91,2.85,6.56,-0.23,-0.01,-0.12,,,,8.9,1.08,5.82,-0.23,0.04,-0.14,,,,9.82,0.08,3.97,-0.28,0.09,-0.06,,,,9.26,1.68,5.28,-0.3,0.01,-0.12,,,,paper
17.188189,-1.57,9.61,3.64,-0.04,-0.34,-0.07,26.31,-19.0,1.75,9.37,0.44,-5.2,-0.25,0.08,0.16,,,,8.15,2.98,6.98,-0.31,-0.0,-0.17,,,,9.18,1.16,6.2,-0.31,0.07,-0.18,,,,10.15,0.17,4.34,-0.36,0.13,-0.09,,,,9.53,1.81,5.73,-0.39,0.02,-0.14,,,,paper
17.188319,-1.53,10.18,4.06,-0.03,-0.41,-0.07,27.44,-18.25,-0.13,9.99,0.55,-5.04,-0.28,0.14,0.29,,,,8.36,3.15,7.58,-0.48,0.04,-0.16,,,,9.61,1.2,6.7,-0.46,0.15,-0.18,,,,10.72,0.04,4.56,-0.5,0.22,-0.06,,,,9.91,1.78,5.69,-0.54,0.06,-0.12,,,,paper
17.189214,-1.45,10.14,4.06,-0.24,-0.6,0.05,27.44,-18.25,-0.13,10.06,0.34,-5.24,-0.35,0.31,0.37,,,,8.52,3.01,7.63,-0.6,0.19,-0.22,,,,9.59,1.14,6.76,-0.55,0.31,-0.22,,,,10.62,0.11,4.78,-0.58,0.39,-0.07,,,,9.86,1.76,6.1,-0.67,0.19,-0.1,,,,paper
17.189348,-1.3,9.95,4.06,-0.21,-0.69,0.08,27.13,-19.19,-1.31,10.01,0.36,-4.98,-0.4,0.42,0.5,,,,8.26,2.94,7.58,-0.76,0.27,-0.23,,,,9.39,1.08,6.73,-0.68,0.43,-0.22,,,,10.44,0.02,4.73,-0.7,0.51,-0.05,,,,9.72,1.61,6.0,-0.84,0.25,-0.08,,,,paper
17.199585,-1.18,9.61,3.83,-0.26,-0.96,0.15,27.13,-19.19,-1.31,9.57,0.3,-4.95,-0.46,0.51,0.6,,,,8.03,2.79,7.19,-0.89,0.34,-0.25,,,,9.09,0.93,6.36,-0.79,0.52,-0.24,,,,10.09,-0.14,4.42,-0.8,0.61,-0.05,,,,9.49,1.46,5.73,-0.97,0.31,-0.06,,,,paper
17.239872,-1.07,9.38,3.56,-0.26,-0.96,0.15,25.31,-19.31,-3.19,9.2,0.23,-4.84,-0.51,0.58,0.65,,,,7.86,2.6,6.85,-0.95,0.39,-0.29,,,,8.85,0.74,6.04,-0.85,0.58,-0.27,,,,9.77,-0.33,4.15,-0.85,0.69,-0.06,,,,9.27,1.24,5.42,-1.04,0.37,-0.07,,,,paper
17.286199,-0.76,9.15,3.45,-0.4,-1.03,0.17,25.31,-19.31,-3.19,8.83,0.03,-4.68,-0.54,0.65,0.64,,,,7.62,2.3,6.57,-0.97,0.46,-0.33,,,,8.47,0.47,5.77,-0.85,0.65,-0.3,,,,9.31,-0.57,3.98,-0.85,0.76,-0.1,,,,8.96,0.94,5.25,-1.07,0.43,-0.08,,,,paper
17.700116,-0.41,8.8,3.37,-0.4,-1.03,0.17,23.0,-19.13,-7.25,8.61,-0.16,-4.46,-0.55,0.65,0.63,,,,7.3,2.03,6.48,-0.97,0.45,-0.35,,,,8.07,0.34,5.77,-0.86,0.64,-0.33,,,,8.85,-0.63,4.09,-0.86,0.75,-0.12,,,,8.65,0.67,5.32,-1.08,0.42,-0.1,,,,paper
17.700268,-0.26,8.81,3.56,-0.4,-1.03,0.17,23.0,-19.13,-7.25,8.73,-0.31,-4.29,-0.58,0.63,0.63,,,,7.26,1.87,6.62,-0.98,0.43,-0.38,,,,8.05,0.15,5.87,-0.87,0.63,-0.36,,,,8.83,-0.81,4.19,-0.88,0.74,-0.15,,,,8.63,0.5,5.33,-1.09,0.42,-0.14,,,,paper
17.700395,0.12,8.65,3.48,-0.33,-1.03,0.09,21.56,-18.94,-6.69,8.63,-0.66,-4.22,-0.55,0.6,0.62,,,,7.23,1.48,6.56,-0.97,0.4,-0.38,,,,7.84,-0.16,5.86,-0.87,0.6,-0.35,,,,8.59,-1.08,4.25,-0.88,0.71,-0.15,,,,8.54,0.19,5.38,-1.08,0.39,-0.15,,,,paper
17.700523,0.35,8.73,3.41,-0.32,-1.04,0.08,21.56,-18.94,-6.69,8.63,-0.9,-4.02,-0.56,0.59,0.61,,,,7.18,1.21,6.62,-0.95,0.39,-0.38,,,,7.77,-0.48,5.88,-0.85,0.58,-0.35,,,,8.66,-1.48,4.18,-0.85,0.72,-0.14,,,,8.5,-0.07,5.21,-1.06,0.39,-0.15,,,,paper
17.700643,0.58,8.27,3.18,-0.31,-0.99,0.08,21.56,-18.94,-6.69,8.24,-1.34,-4.01,-0.44,0.56,0.58,,,,7.32,0.45,5.96,-0.85,0.33,-0.32,,,,7.28,-0.5,5.93,-0.77,0.56,-0.31,,,,7.99,-1.63,4.13,-0.8,0.67,-0.13,,,,8.23,-0.39,5.17,-1.02,0.35,-0.15,,,,paper
17.700776,0.89,8.04,3.14,-0.25,-0.92,0.05,17.5,-20.94,-11.75,7.95,-1.49,-3.78,-0.44,0.5,0.52,,,,6.71,0.44,5.92,-0.8,0.29,-0.32,,,,6.84,-0.94,5.47,-0.75,0.52,-0.34,,,,7.51,-1.71,4.07,-0.77,0.62,-0.16,,,,7.84,-0.75,4.81,-0.95,0.34,-0.18,,,,paper
17.700901,1.04,7.7,2.95,-0.32,-0.87,0.01,17.88,-19.75,-10.94,7.39,-1.5,-3.25,-0.49,0.45,0.44,,,,6.15,0.24,5.84,-0.73,0.26,-0.34,,,,6.4,-1.14,5.23,-0.68,0.44,-0.36,,,,6.91,-1.93,3.85,-0.7,0.54,-0.2,,,,7.42,-1.01,4.7,-0.85,0.3,-0.22,,,,paper
17.701902,1.16,7.5,2.87,-0.32,-0.87,0.01,17.13,-20.13,-13.5,7.0,-1.53,-2.98,-0.53,0.31,0.34,,,,5.57,0.1,5.55,-0.62,0.14,-0.39,,,,5.79,-1.26,4.97,-0.58,0.29,-0.4,,,,6.28,-2.01,3.79,-0.64,0.36,-0.26,,,,7.07,-1.32,4.57,-0.72,0.19,-0.3,,,,paper
17.702037,1.27,7.39,2.84,-0.13,-0.62,-0.24,17.13,-20.44,-12.75,6.94,-1.73,-3.07,-0.57,0.11,0.2,,,,5.64,-0.09,5.5,-0.46,-0.04,-0.44,,,,5.79,-1.4,4.96,-0.47,0.07,-0.46,,,,6.25,-2.15,3.8,-0.56,0.15,-0.34,,,,7.02,-1.4,4.69,-0.56,0.04,-0.41,,,,paper
17.712388,1.2,7.93,2.91,-0.13,-0.62,-0.24,17.31,-19.31,-13.0,7.32,-1.87,-3.24,-0.55,-0.1,0.08,,,,6.08,-0.13,5.77,-0.29,-0.23,-0.46,,,,6.28,-1.53,5.15,-0.35,-0.13,-0.48,,,,6.78,-2.29,3.87,-0.46,-0.07,-0.4,,,,7.44,-1.28,4.69,-0.4,-0.1,-0.5,,,,paper
17.749988,1.16,8.04,2.95,0.13,-0.3,-0.51,18.06,-19.56,-13.0,7.55,-1.88,-3.35,-0.52,-0.22,0.01,,,,6.24,-0.02,5.98,-0.19,-0.32,-0.45,,,,6.46,-1.43,5.36,-0.27,-0.25,-0.48,,,,7.02,-2.2,4.01,-0.39,-0.19,-0.41,,,,7.61,-1.2,4.73,-0.29,-0.18,-0.54,,,,paper
17.798523,0.96,8.08,2.95,0.25,-0.18,-0.59,18.06,-19.56,-13.0,7.69,-1.79,-3.46,-0.49,-0.35,-0.05,,,,6.41,0.14,6.03,-0.1,-0.44,-0.43,,,,6.67,-1.32,5.42,-0.2,-0.39,-0.46,,,,7.23,-2.06,4.04,-0.33,-0.33,-0.42,,,,7.74,-0.98,4.85,-0.18,-0.29,-0.57,,,,paper
18.207282,0.77,8.12,2.91,0.25,-0.18,-0.59,19.25,-19.0,-13.5,7.6,-1.63,-3.63,-0.46,-0.45,-0.1,,,,6.47,0.33,5.9,-0.02,-0.53,-0.41,,,,6.78,-1.07,5.35,-0.14,-0.48,-0.45,,,,7.36,-1.91,3.89,-0.28,-0.42,-0.43,,,,7.8,-0.83,4.69,-0.11,-0.35,-0.6,,,,paper
18.208106,0.46,8.27,2.8,0.35,-0.01,-0.72,19.25,-19.0,-13.5,7.63,-1.43,-3.89,-0.44,-0.57,-0.17,,,,6.97,0.3,5.4,0.11,-0.66,-0.39,,,,6.95,-0.87,5.17,-0.04,-0.61,-0.42,,,,7.54,-1.77,3.67,-0.23,-0.54,-0.46,,,,7.95,-0.58,4.63,-0.0,-0.43,-0.65,,,,paper
18.208244,0.35,8.57,2.72,0.35,-0.01,-0.72,22.0,-17.94,-11.38,8.31,-1.76,-4.38,-0.39,-0.61,-0.18,,,,7.03,0.61,5.73,0.17,-0.74,-0.39,,,,7.61,-1.26,4.87,0.01,-0.7,-0.41,,,,7.88,-1.75,3.57,-0.16,-0.62,-0.47,,,,8.23,-0.39,4.52,0.06,-0.49,-0.68,,,,paper
18.20838,0.16,8.96,2.8,0.39,0.13,-0.8,22.0,-17.94,-11.38,7.8,-1.34,-4.55,-0.42,-0.7,-0.25,,,,7.45,0.78,5.77,0.22,-0.77,-0.42,,,,7.85,-0.92,5.07,0.06,-0.77,-0.44,,,,8.38,-1.72,3.52,-0.13,-0.71,-0.49,,,,8.7,-0.17,4.57,0.14,-0.55,-0.71,,,,paper
18.208507,-0.18,9.61,2.8,0.39,0.13,-0.8,24.94,-16.94,-10.69,8.44,-1.4,-5.13,-0.38,-0.77,-0.3,,,,8.25,1.04,6.09,0.28,-0.8,-0.4,,,,8.78,-0.86,5.33,0.08,-0.81,-0.45,,,,9.37,-1.73,3.56,-0.09,-0.77,-0.47,,,,9.43,0.21,4.58,0.21,-0.58,-0.69,,,,paper
18.208642,-0.49,9.99,2.87,0.44,0.23,-0.77,26.31,-17.5,-8.19,8.98,-1.28,-5.47,-0.35,-0.73,-0.32,,,,8.77,1.33,6.44,0.3,-0.74,-0.37,,,,9.39,-0.64,5.65,0.11,-0.75,-0.42,,,,10.04,-1.5,3.78,-0.06,-0.73,-0.44,,,,9.89,0.6,4.81,0.24,-0.54,-0.63,,,,paper
18.208838,-0.72,10.3,3.1,0.44,0.18,-0.58,27.75,-16.13,-7.88,9.32,-1.17,-5.7,-0.28,-0.68,-0.26,,,,9.1,1.54,6.65,0.25,-0.68,-0.27,,,,9.79,-0.48,5.84,0.08,-0.68,-0.33,,,,10.47,-1.36,3.86,-0.06,-0.66,-0.33,,,,10.23,0.93,5.01,0.23,-0.51,-0.53,,,,paper
18.209772,-0.88,10.22,2.99,0.44,0.18,-0.58,27.75,-16.13,-7.88,9.33,-1.06,-5.77,-0.21,-0.58,-0.23,,,,9.17,1.71,6.68,0.22,-0.58,-0.2,,,,9.87,-0.34,5.85,0.08,-0.59,-0.25,,,,10.62,-1.24,3.87,-0.05,-0.57,-0.26,,,,10.24,1.04,4.95,0.19,-0.45,-0.42,,,,paper
18.209913,-1.03,10.11,2.99,0.35,0.2,-0.46,30.75,-15.75,-6.25,9.23,-0.81,-5.72,-0.15,-0.48,-0.18,,,,9.0,1.92,6.55,0.17,-0.48,-0.13,,,,9.78,-0.13,5.74,0.06,-0.49,-0.18,,,,10.51,-1.04,3.78,-0.05,-0.47,-0.18,,,,10.12,1.22,4.97,0.14,-0.37,-0.33,,,,paper
18.219785,-1.45,10.04,2.84,0.25,0.12,-0.31,30.75,-15.75,-6.25,9.04,-0.47,-5.75,-0.12,-0.38,-0.15,,,,8.86,2.21,6.32,0.12,-0.39,-0.1,,,,9.68,0.18,5.53,0.04,-0.39,-0.14,,,,10.43,-0.72,3.63,-0.05,-0.37,-0.13,,,,10.03,1.42,4.82,0.09,-0.31,-0.27,,,,paper
18.259359,-1.6,10.14,2.76,0.21,0.07,-0.27,30.75,-15.75,-6.25,8.86,-0.45,-6.11,-0.12,-0.32,-0.12,,,,9.11,2.25,6.05,0.09,-0.33,-0.09,,,,9.88,0.2,5.28,0.02,-0.33,-0.13,,,,10.57,-0.7,3.35,-0.07,-0.31,-0.11,,,,10.18,1.61,4.67,0.05,-0.26,-0.24,,,,paper
18.303925,-1.72,10.26,2.72,0.19,0.07,-0.2,31.06,-14.81,-5.0,8.87,-0.36,-6.19,-0.08,-0.25,-0.1,,,,9.23,2.37,6.0,0.05,-0.25,-0.05,,,,10.07,0.25,5.18,0.01,-0.25,-0.09,,,,10.75,-0.68,3.2,-0.07,-0.22,-0.07,,,,10.27,1.74,4.47,0.02,-0.2,-0.17,,,,paper
18.717092,-1.76,10.04,2.68,0.12,0.03,-0.13,31.06,-14.81,-5.0,8.66,-0.35,-6.2,-0.05,-0.17,-0.06,,,,9.11,2.31,5.81,0.01,-0.18,-0.02,,,,9.9,0.25,5.01,-0.01,-0.18,-0.05,,,,10.55,-0.66,3.1,-0.07,-0.15,-0.03,,,,10.13,1.76,4.45,-0.01,-0.15,-0.12,,,,paper
18.717245,-1.68,9.91,2.68,0.12,0.03,-0.13,33.88,-12.69,-3.5,8.49,-0.29,-6.04,-0.04,-0.11,-0.04,,,,8.88,2.3,5.7,-0.01,-0.11,-0.01,,,,9.7,0.25,4.92,-0.02,-0.1,-0.04,,,,10.34,-0.66,3.01,-0.07,-0.08,-0.01,,,,9.98,1.64,4.28,-0.04,-0.09,-0.09,,,,paper
18.717373,-1.68,9.91,2.61,0.06,0.01,-0.06,33.25,-13.06,-2.56,8.39,-0.33,-6.11,-0.03,-0.04,-0.06,,,,8.93,2.22,5.54,-0.01,-0.05,-0.01,,,,9.71,0.17,4.78,-0.0,-0.04,-0.04,,,,10.34,-0.76,2.9,-0.05,-0.02,-0.01,,,,10.0,1.61,4.19,-0.04,-0.02,-0.07,,,,paper
18.717498,-1.76,10.07,2.53,0.06,0.01,-0.06,34.25,-14.5,-4.06,8.46,-0.44,-6.35,-0.0,0.0,-0.07,,,,9.21,2.19,5.55,-0.01,0.0,0.0,,,,10.0,0.09,4.77,0.01,0.0,-0.02,,,,10.61,-0.79,2.84,-0.03,0.02,0.01,,,,10.24,1.74,4.14,-0.04,0.01,-0.03,,,,paper
18.717624,-1.68,10.18,2.41,-0.1,0.02,0.1,32.63,-15.81,-3.25,8.4,-0.58,-6.42,0.05,0.09,-0.06,,,,9.31,2.04,5.47,-0.01,0.1,0.05,,,,10.05,-0.09,4.67,0.03,0.1,0.03,,,,10.61,-0.97,2.73,0.01,0.12,0.06,,,,10.29,1.63,4.0,-0.05,0.1,0.03,,,,paper
18.71776,-1.49,9.95,2.18,-0.1,0.02,0.1,33.0,-15.13,-4.5,8.22,-0.75,-6.42,0.11,0.13,-0.05,,,,9.24,1.88,5.37,-0.02,0.15,0.1,,,,9.92,-0.2,4.56,0.04,0.14,0.09,,,,10.47,-1.09,2.64,0.03,0.16,0.12,,,,10.2,1.47,3.89,-0.05,0.12,0.11,,,,paper
18.717884,-1.41,9.95,2.03,-0.13,0.07,0.21,32.88,-14.69,-3.13,7.95,-0.85,-6.47,0.17,0.18,-0.05,,,,9.24,1.68,5.08,0.0,0.2,0.15,,,,9.84,-0.4,4.27,0.07,0.19,0.13,,,,10.31,-1.25,2.41,0.07,0.2,0.16,,,,10.16,1.36,3.67,-0.03,0.16,0.16,,,,paper
18.720792,-1.41,9.91,1.99,-0.14,0.1,0.25,32.31,-14.56,-4.56,7.92,-0.84,-6.37,0.23,0.23,-0.08,,,,9.16,1.67,5.06,0.03,0.27,0.2,,,,9.78,-0.39,4.26,0.12,0.24,0.18,,,,10.25,-1.25,2.35,0.13,0.24,0.2,,,,10.1,1.33,3.59,0.01,0.21,0.22,,,,paper
18.720919,-1.41,9.84,1.99,-0.18,0.18,0.31,31.75,-15.06,-5.06,7.83,-0.89,-6.44,0.3,0.24,-0.11,,,,9.14,1.61,4.96,0.08,0.29,0.25,,,,9.7,-0.45,4.19,0.17,0.25,0.23,,,,10.17,-1.3,2.39,0.19,0.24,0.24,,,,10.05,1.29,3.71,0.06,0.22,0.27,,,,paper
18.724475,-1.22,10.14,1.95,-0.15,0.21,0.33,30.75,-16.38,-5.19,8.01,-1.23,-6.53,0.37,0.25,-0.13,,,,9.44,1.31,5.11,0.12,0.32,0.3,,,,9.97,-0.83,4.31,0.22,0.27,0.29,,,,10.44,-1.7,2.4,0.25,0.26,0.29,,,,10.39,1.08,3.64,0.1,0.24,0.33,,,,paper
18.765805,-0.64,10.3,1.8,-0.17,0.32,0.47,32.25,-14.94,-4.63,8.09,-1.79,-6.75,0.53,0.27,-0.15,,,,9.73,0.85,5.2,0.18,0.36,0.44,,,,10.17,-1.35,4.31,0.3,0.3,0.43,,,,10.52,-2.23,2.31,0.38,0.26,0.4,,,,10.58,0.76,3.6,0.18,0.25,0.46,,,,paper
18.804795,-0.26,10.5,1.68,-0.16,0.37,0.53,32.25,-14.94,-4.63,8.26,-2.0,-6.6,0.68,0.29,-0.17,,,,9.98,0.21,4.86,0.24,0.42,0.55,,,,10.23,-1.79,4.3,0.42,0.31,0.56,,,,10.64,-2.65,2.32,0.46,0.29,0.52,,,,10.82,0.44,3.42,0.27,0.28,0.58,,,,paper
19.226077,-0.41,10.38,2.18,-0.27,0.57,0.8,29.5,-15.38,-3.81,8.37,-2.11,-6.62,0.84,0.39,-0.22,,,,9.81,0.69,5.61,0.33,0.54,0.69,,,,10.21,-1.46,4.72,0.5,0.42,0.68,,,,10.66,-2.2,2.8,0.58,0.39,0.64,,,,10.7,0.55,3.86,0.36,0.37,0.74,,,,paper
19.226697,-0.41,10.34,2.18,-0.21,0.59,0.86,29.5,-15.38,-3.81,8.51,-1.86,-6.34,0.96,0.42,-0.19,,,,9.64,0.84,5.71,0.33,0.6,0.82,,,,10.07,-1.31,4.81,0.52,0.47,0.8,,,,10.54,-2.14,2.84,0.62,0.42,0.76,,,,10.49,0.53,3.9,0.39,0.39,0.87,,,,paper
19.226845,-0.34,9.72,2.26,-0.29,0.68,1.0,29.5,-15.38,-3.81,8.21,-1.66,-5.95,1.07,0.49,-0.21,,,,8.99,0.96,5.52,0.36,0.69,0.92,,,,9.41,-1.06,4.72,0.57,0.55,0.89,,,,9.87,-1.87,2.92,0.7,0.48,0.85,,,,9.91,0.47,4.07,0.44,0.44,0.97,,,,paper
