time,s1_X,s1_Y,s1_Z,s1_gyro_x,s1_gyro_y,s1_gyro_z,s1_mag_x,s1_mag_y,s1_mag_z,s2_X,s2_Y,s2_Z,s2_gyro_x,s2_gyro_y,s2_gyro_z,s3_X,s3_Y,s3_Z,s3_gyro_x,s3_gyro_y,s3_gyro_z,s4_X,s4_Y,s4_Z,s4_gyro_x,s4_gyro_y,s4_gyro_z,s5_X,s5_Y,s5_Z,s5_gyro_x,s5_gyro_y,s5_gyro_z,s6_X,s6_Y,s6_Z,s6_gyro_x,s6_gyro_y,s6_gyro_z,label
0.018173,0.125,0.2,0.972,0.688,0.229,0.688,-0.047,-0.518,-0.854,0.925,0.374,-0.063,-0.535,0.267,-0.802,0.356,0.779,0.516,-0.514,0.514,0.686,0.399,0.713,0.576,-0.0,0.949,0.316,0.182,0.817,0.547,-0.492,0.615,0.615,-0.077,0.421,0.904,-0.973,0.162,0.162,none
0.062268,0.113,0.192,0.975,0.196,0.588,0.784,-0.047,-0.518,-0.854,0.923,0.378,-0.071,0.408,0.408,-0.816,0.354,0.785,0.509,-0.154,0.617,0.772,0.391,0.721,0.572,0.196,0.784,0.588,0.174,0.822,0.542,-0.309,0.722,0.619,-0.089,0.425,0.901,-0.816,0.408,0.408,none
0.10812,0.112,0.17,0.979,0.169,0.507,0.845,-0.055,-0.517,-0.854,0.912,0.404,-0.068,0.436,0.218,-0.873,0.327,0.802,0.499,-0.174,0.696,0.696,0.366,0.739,0.565,0.218,0.873,0.436,0.146,0.832,0.535,-0.359,0.717,0.598,-0.114,0.413,0.904,-0.811,0.487,0.324,none
0.146073,0.116,0.166,0.979,0.577,0.577,0.577,-0.047,-0.533,-0.845,0.912,0.405,-0.066,0.0,0.316,-0.949,0.327,0.802,0.5,-0.64,0.426,0.64,0.363,0.739,0.568,-0.0,0.894,0.447,0.143,0.833,0.535,-0.469,0.625,0.625,-0.118,0.411,0.904,-0.973,0.162,-0.162,none
0.192857,0.123,0.188,0.974,0.333,-0.667,-0.667,-0.038,-0.53,-0.847,0.916,0.396,-0.061,-0.408,0.408,-0.816,0.333,0.795,0.507,-0.913,0.365,0.183,0.378,0.728,0.572,-0.0,1.0,0.0,0.166,0.824,0.542,-0.426,0.64,0.64,-0.098,0.418,0.903,-0.889,0.254,-0.381,none
0.229493,0.116,0.194,0.974,0.333,-0.667,-0.667,-0.046,-0.537,-0.843,0.919,0.388,-0.065,-0.457,0.457,-0.762,0.344,0.79,0.508,-0.845,0.507,-0.169,0.388,0.724,0.57,-0.236,0.943,-0.236,0.174,0.825,0.537,-0.487,0.811,0.324,-0.095,0.422,0.901,-0.921,0.276,-0.276,none
0.269392,0.118,0.185,0.976,-0.588,-0.784,0.196,-0.06,-0.531,-0.845,0.919,0.388,-0.067,-0.384,0.512,-0.768,0.339,0.794,0.504,-0.7,0.7,-0.14,0.379,0.73,0.568,-0.0,0.986,-0.164,0.167,0.829,0.534,-0.381,0.889,0.254,-0.102,0.421,0.901,-0.91,0.331,-0.248,none
0.315012,0.123,0.178,0.976,0.267,-0.802,-0.535,-0.06,-0.531,-0.845,0.917,0.393,-0.064,-0.625,0.469,-0.625,0.323,0.799,0.507,-0.949,0.316,0.0,0.361,0.737,0.572,-0.688,0.688,-0.229,0.153,0.832,0.533,-0.557,0.743,0.371,-0.103,0.416,0.903,-0.941,0.188,-0.282,none
0.35969,0.12,0.185,0.975,-0.514,-0.686,-0.514,-0.029,-0.5,-0.865,0.919,0.39,-0.064,-0.855,0.367,-0.367,0.339,0.793,0.506,-0.958,-0.0,-0.287,0.375,0.729,0.572,-0.749,0.094,-0.656,0.16,0.829,0.536,-0.889,0.254,-0.381,-0.098,0.416,0.904,-0.88,0.176,-0.44,none
0.399359,0.125,0.186,0.975,0.174,-0.696,-0.696,-0.029,-0.5,-0.865,0.924,0.378,-0.059,-0.811,0.487,-0.324,0.354,0.782,0.513,-0.99,-0.099,-0.099,0.399,0.714,0.575,-0.87,0.097,-0.483,0.183,0.821,0.541,-0.988,0.11,-0.11,-0.085,0.421,0.903,-0.993,0.083,-0.083,none
0.44186,0.129,0.203,0.971,0.174,-0.696,-0.696,-0.064,-0.542,-0.838,0.926,0.373,-0.055,-0.429,0.857,-0.286,0.35,0.778,0.522,-0.968,0.176,0.176,0.396,0.71,0.582,-0.928,0.309,-0.206,0.178,0.819,0.545,-0.928,0.371,0.0,-0.089,0.413,0.907,-0.996,0.066,0.066,none
0.480896,0.126,0.196,0.973,0.217,-0.976,0.0,-0.064,-0.542,-0.838,0.927,0.37,-0.054,-0.243,0.97,-0.0,0.351,0.776,0.524,-0.905,0.302,0.302,0.397,0.709,0.583,-0.891,0.445,0.089,0.185,0.817,0.547,-0.953,0.293,0.073,-0.089,0.409,0.908,-0.998,-0.0,0.059,none
0.52651,0.146,0.188,0.971,0.85,-0.523,0.065,-0.058,-0.529,-0.846,0.932,0.36,-0.053,0.182,0.818,0.545,0.36,0.769,0.528,-0.733,0.262,0.628,0.397,0.704,0.589,-0.715,0.26,0.65,0.182,0.814,0.552,-0.754,0.189,0.629,-0.08,0.408,0.91,-0.899,-0.337,0.281,none
0.566894,0.136,0.195,0.971,0.919,-0.379,0.108,-0.058,-0.529,-0.846,0.933,0.357,-0.051,0.245,0.552,0.797,0.356,0.767,0.534,-0.57,0.071,0.819,0.397,0.703,0.59,-0.659,0.088,0.747,0.177,0.817,0.548,-0.728,0.043,0.685,-0.087,0.404,0.911,-0.717,-0.493,0.493,none
0.606768,0.132,0.195,0.972,0.9,-0.435,0.029,-0.058,-0.529,-0.846,0.93,0.364,-0.05,0.283,0.445,0.85,0.346,0.772,0.533,-0.649,0.081,0.757,0.386,0.709,0.591,-0.64,0.032,0.768,0.178,0.818,0.547,-0.672,-0.034,0.74,-0.091,0.398,0.913,-0.683,-0.58,0.444,none
0.649183,0.138,0.227,0.964,0.832,-0.555,0.0,-0.076,-0.542,-0.837,0.929,0.368,-0.04,0.244,0.593,0.767,0.366,0.762,0.534,-0.66,0.152,0.736,0.411,0.692,0.593,-0.684,0.149,0.714,0.193,0.812,0.551,-0.688,0.036,0.725,-0.073,0.397,0.915,-0.849,-0.439,0.293,none
0.693737,0.143,0.225,0.964,0.4,-0.907,0.133,-0.076,-0.542,-0.837,0.933,0.359,-0.028,0.241,0.784,0.573,0.357,0.757,0.547,-0.658,0.317,0.683,0.4,0.69,0.603,-0.71,0.409,0.573,0.192,0.808,0.557,-0.789,0.275,0.549,-0.067,0.384,0.921,-0.947,-0.248,0.203,none
0.73843,0.166,0.239,0.957,0.109,-0.985,0.137,-0.076,-0.542,-0.837,0.933,0.357,-0.031,0.127,0.95,0.285,0.372,0.754,0.542,-0.624,0.538,0.567,0.465,0.671,0.577,-0.221,0.414,0.883,0.216,0.808,0.549,-0.558,0.614,0.558,-0.061,0.368,0.928,-0.995,-0.019,0.094,none
0.776984,0.187,0.229,0.955,-0.273,-0.943,0.189,-0.076,-0.542,-0.837,0.936,0.351,-0.023,0.081,0.995,0.054,0.385,0.746,0.544,-0.326,0.711,0.623,0.428,0.679,0.597,0.326,0.072,0.942,0.188,0.813,0.552,0.671,0.503,0.545,-0.061,0.351,0.934,-0.994,0.112,0.016,none
0.821669,0.201,0.212,0.956,-0.297,-0.946,0.13,-0.139,-0.56,-0.817,0.937,0.348,-0.017,0.104,0.991,-0.078,0.382,0.75,0.54,0.112,0.478,0.871,0.413,0.692,0.592,0.48,-0.0,0.877,0.182,0.821,0.542,0.879,-0.037,0.476,-0.076,0.324,0.943,-0.996,0.089,-0.03,none
0.860454,0.215,0.226,0.95,-0.324,-0.941,0.097,-0.139,-0.56,-0.817,0.94,0.34,-0.017,0.091,0.975,-0.204,0.424,0.741,0.521,0.384,0.432,0.816,0.5,0.669,0.549,0.626,0.031,0.779,0.211,0.829,0.518,0.994,-0.079,-0.079,-0.083,0.309,0.947,-0.981,0.137,-0.137,none
0.906485,0.27,0.201,0.942,-0.372,-0.919,0.128,-0.172,-0.544,-0.821,0.945,0.327,0.017,0.134,0.974,-0.185,0.392,0.734,0.555,0.377,0.621,0.687,0.456,0.674,0.581,0.642,0.329,0.692,0.215,0.82,0.531,0.734,0.451,-0.508,-0.07,0.286,0.956,-0.981,0.109,-0.163,none
0.94448,0.282,0.202,0.938,-0.303,-0.945,0.121,-0.172,-0.544,-0.821,0.939,0.341,0.034,0.061,0.964,-0.26,0.382,0.74,0.553,0.285,0.832,0.476,0.453,0.681,0.575,0.622,0.563,0.544,0.212,0.826,0.523,0.205,0.717,-0.666,-0.079,0.246,0.966,-0.981,0.111,-0.162,none
0.987326,0.311,0.174,0.935,-0.328,-0.938,0.113,-0.172,-0.544,-0.821,0.943,0.326,0.062,0.015,0.973,-0.232,0.404,0.725,0.559,0.123,0.931,0.343,0.484,0.67,0.563,0.645,0.523,0.558,0.215,0.829,0.516,0.479,0.852,-0.213,-0.091,0.204,0.975,-0.98,0.059,-0.188,none
1.032722,0.36,0.148,0.921,-0.273,-0.956,0.102,-0.285,-0.479,-0.83,0.945,0.318,0.083,0.135,0.991,-0.015,0.427,0.72,0.547,0.082,0.735,0.673,0.525,0.666,0.531,0.592,0.344,0.729,0.223,0.837,0.5,0.505,0.348,0.79,-0.078,0.165,0.983,-0.984,-0.105,-0.147,none
1.07249,0.39,0.148,0.909,0.278,-0.96,0.013,-0.298,-0.508,-0.808,0.96,0.274,0.058,0.61,0.777,0.155,0.469,0.693,0.547,0.195,0.414,0.889,0.572,0.648,0.504,0.622,0.069,0.78,0.281,0.834,0.474,0.608,0.041,0.793,-0.074,0.129,0.989,-0.958,-0.287,-0.011,none
1.119606,0.449,0.177,0.876,0.587,-0.807,-0.061,-0.298,-0.508,-0.808,0.941,0.319,0.117,0.766,0.598,0.236,0.453,0.708,0.542,0.18,0.306,0.935,0.56,0.671,0.486,0.581,0.087,0.809,0.25,0.853,0.457,0.558,0.057,0.828,-0.04,0.081,0.996,-0.887,-0.454,0.084,none
1.155645,0.472,0.157,0.868,0.61,-0.79,-0.06,-0.298,-0.508,-0.808,0.951,0.291,0.105,0.891,0.426,0.155,0.502,0.685,0.528,0.363,0.213,0.907,0.607,0.643,0.466,0.653,0.106,0.75,0.329,0.848,0.415,0.623,0.075,0.779,-0.015,0.078,0.997,-0.91,-0.36,0.205,none
1.198434,0.502,0.157,0.85,0.61,-0.79,-0.06,-0.377,-0.58,-0.722,0.937,0.324,0.131,0.924,0.308,0.229,0.461,0.712,0.529,0.385,0.125,0.914,0.569,0.691,0.445,0.634,0.089,0.768,0.286,0.878,0.384,0.635,0.084,0.768,-0.044,-0.051,0.998,-0.859,-0.427,0.283,none
1.242032,0.52,0.249,0.817,0.816,-0.517,-0.258,-0.377,-0.58,-0.722,0.935,0.352,0.051,0.963,0.171,0.207,0.562,0.709,0.426,0.499,0.02,0.867,0.666,0.663,0.342,0.701,0.057,0.711,0.404,0.873,0.273,0.697,0.026,0.716,0.036,-0.052,0.998,-0.865,-0.398,0.305,none
1.287776,0.507,0.297,0.809,0.751,-0.491,-0.443,-0.377,-0.58,-0.722,0.966,0.257,0.022,0.989,0.034,0.143,0.689,0.624,0.369,0.643,-0.027,0.765,0.759,0.596,0.261,0.759,0.022,0.65,0.527,0.837,0.143,0.769,0.037,0.639,-0.07,-0.23,0.971,-0.876,-0.418,0.24,none
1.325145,0.502,0.354,0.789,0.751,-0.491,-0.443,-0.382,-0.66,-0.647,0.943,0.33,0.04,0.986,-0.006,0.168,0.662,0.666,0.345,0.687,-0.003,0.727,0.759,0.614,0.217,0.722,-0.072,0.688,0.561,0.825,0.072,0.791,0.063,0.609,0.014,-0.201,0.98,-0.874,-0.48,0.079,none
1.371221,0.518,0.377,0.768,0.711,-0.231,-0.665,-0.382,-0.66,-0.647,0.951,0.297,0.082,0.974,-0.017,0.228,0.684,0.626,0.375,0.718,0.079,0.692,0.786,0.581,0.211,0.7,-0.131,0.702,0.591,0.806,0.008,0.793,0.137,0.593,0.1,-0.361,0.927,-0.826,-0.562,-0.026,none
1.408965,0.507,0.438,0.742,0.711,-0.231,-0.665,-0.37,-0.706,-0.604,0.947,0.307,0.093,0.911,0.038,0.411,0.683,0.631,0.368,0.576,0.097,0.812,0.746,0.616,0.252,0.582,-0.149,0.799,0.526,0.85,0.04,0.603,0.095,0.792,0.141,-0.406,0.903,-0.768,-0.624,-0.144,none
1.451786,0.528,0.436,0.729,0.523,0.665,-0.534,-0.343,-0.729,-0.592,0.981,0.182,0.062,0.755,0.043,0.655,0.769,0.53,0.357,0.412,-0.048,0.91,0.848,0.479,0.227,0.208,-0.317,0.925,0.651,0.754,0.084,0.351,-0.097,0.931,0.327,-0.472,0.819,-0.628,-0.734,-0.258,none
1.490561,0.511,0.457,0.728,0.523,0.665,-0.534,-0.308,-0.779,-0.546,0.995,0.088,0.045,0.596,-0.069,0.8,0.842,0.431,0.324,0.31,-0.218,0.925,0.924,0.341,0.174,0.261,-0.378,0.888,0.77,0.636,0.043,0.181,-0.17,0.969,0.342,-0.593,0.729,-0.429,-0.885,-0.182,none
1.53271,0.462,0.499,0.734,0.328,0.871,-0.366,-0.294,-0.76,-0.579,1.0,0.03,-0.009,0.508,0.029,0.861,0.893,0.381,0.238,0.237,-0.212,0.948,0.961,0.274,0.042,0.237,-0.365,0.9,0.786,0.613,-0.079,0.456,0.011,0.89,0.332,-0.591,0.735,-0.277,-0.858,-0.432,none
1.57509,0.444,0.492,0.749,0.419,0.742,-0.523,-0.238,-0.818,-0.524,0.996,-0.085,-0.015,0.386,0.014,0.922,0.944,0.261,0.203,0.179,-0.234,0.956,0.987,0.159,0.016,0.214,-0.346,0.914,0.846,0.528,-0.076,0.487,-0.046,0.872,0.61,-0.628,0.484,0.121,-0.791,-0.599,none
1.619335,0.211,0.596,0.775,0.374,0.848,-0.374,-0.238,-0.818,-0.524,0.986,-0.164,-0.008,0.371,-0.018,0.928,0.97,0.174,0.172,0.198,-0.244,0.949,0.997,0.059,-0.05,0.243,-0.368,0.898,0.885,0.437,-0.159,0.498,-0.063,0.865,0.578,-0.438,0.689,0.398,-0.745,-0.535,none
1.658726,0.193,0.611,0.768,0.369,0.811,-0.455,-0.238,-0.818,-0.524,0.973,-0.229,-0.031,0.303,0.052,0.951,0.986,0.108,0.126,0.154,-0.255,0.955,0.994,-0.008,-0.106,0.181,-0.405,0.896,0.902,0.379,-0.207,0.443,-0.107,0.89,0.616,-0.363,0.699,0.406,-0.669,-0.623,none
1.701923,0.099,0.662,0.743,0.433,0.775,-0.461,-0.238,-0.818,-0.524,0.946,-0.323,-0.006,0.274,0.167,0.947,0.994,-0.007,0.112,0.124,-0.202,0.972,0.984,-0.121,-0.131,0.178,-0.357,0.917,0.937,0.279,-0.209,0.381,-0.062,0.922,0.676,-0.257,0.691,0.564,-0.529,-0.634,none
1.743991,0.048,0.671,0.74,0.458,0.737,-0.498,-0.238,-0.818,-0.524,0.926,-0.377,0.023,0.226,0.294,0.928,0.991,-0.079,0.11,0.092,-0.194,0.977,0.973,-0.186,-0.137,0.155,-0.34,0.928,0.952,0.222,-0.209,0.322,-0.081,0.943,0.672,-0.208,0.711,0.502,-0.473,-0.724,none
1.781888,0.058,0.671,0.74,0.661,0.601,-0.45,-0.238,-0.818,-0.524,0.911,-0.412,0.035,0.32,0.539,0.779,0.987,-0.125,0.105,0.137,0.0,0.991,0.964,-0.223,-0.144,0.26,-0.12,0.958,0.959,0.188,-0.211,0.287,0.164,0.944,0.698,-0.208,0.685,0.362,-0.517,-0.776,none
1.824276,0.064,0.684,0.727,0.76,0.608,0.228,-0.238,-0.818,-0.524,0.909,-0.415,0.027,0.675,0.675,0.3,0.988,-0.128,0.088,0.401,-0.0,0.916,0.963,-0.22,-0.156,0.617,-0.154,0.772,0.956,0.195,-0.218,0.432,0.432,0.792,0.69,-0.218,0.69,-0.348,-0.348,-0.87,none
1.869372,0.102,0.648,0.755,-0.286,-0.095,0.953,-0.01,-0.884,-0.468,0.912,-0.409,0.025,0.265,0.265,-0.927,0.99,-0.114,0.083,0.696,0.174,-0.696,0.966,-0.199,-0.164,0.349,0.116,-0.93,0.948,0.221,-0.229,-0.108,0.755,-0.647,0.655,-0.278,0.702,-0.923,0.231,0.308,none
1.913424,0.128,0.641,0.757,0.156,-0.312,0.937,-0.01,-0.884,-0.468,0.913,-0.407,0.028,0.294,0.368,-0.882,0.99,-0.115,0.082,0.557,0.743,-0.371,0.967,-0.192,-0.165,0.465,0.349,-0.814,0.946,0.229,-0.23,-0.111,0.889,-0.444,0.651,-0.302,0.696,-0.83,0.518,0.207,none
1.953082,0.097,0.651,0.753,0.156,-0.312,0.937,-0.001,-0.882,-0.471,0.911,-0.412,0.031,0.176,0.44,-0.88,0.989,-0.123,0.082,-0.0,0.986,-0.164,0.965,-0.202,-0.168,0.154,0.772,-0.617,0.948,0.219,-0.229,-0.404,0.909,-0.101,0.645,-0.288,0.707,-0.688,0.688,-0.229,none
1.997148,0.108,0.651,0.752,0.963,0.241,-0.12,-0.027,-0.876,-0.481,0.912,-0.408,0.037,0.303,0.808,-0.505,0.988,-0.121,0.091,-0.0,0.894,0.447,0.967,-0.201,-0.159,0.391,0.911,0.13,0.949,0.222,-0.223,-0.323,0.889,0.323,0.653,-0.285,0.702,-0.549,0.137,-0.824,none
2.03828,0.112,0.657,0.746,0.963,0.241,-0.12,-0.018,-0.883,-0.469,0.916,-0.4,0.037,-0.108,0.647,-0.755,0.989,-0.115,0.093,-0.555,0.832,0.0,0.968,-0.197,-0.155,-0.302,0.905,-0.302,0.95,0.224,-0.216,-0.704,0.704,0.088,0.654,-0.28,0.703,-0.743,0.371,-0.557,none
2.077782,0.117,0.656,0.746,0.243,-0.97,-0.0,-0.018,-0.895,-0.445,0.917,-0.397,0.039,-0.087,0.612,-0.786,0.99,-0.11,0.093,-0.518,0.83,-0.207,0.97,-0.191,-0.153,-0.318,0.848,-0.424,0.949,0.23,-0.215,-0.705,0.705,-0.078,0.647,-0.281,0.709,-0.842,0.337,-0.421,none
2.121809,0.111,0.652,0.75,-0.123,-0.985,-0.123,-0.018,-0.881,-0.472,0.918,-0.394,0.046,-0.316,0.569,-0.759,0.989,-0.109,0.101,-0.627,0.697,-0.348,0.971,-0.189,-0.146,-0.473,0.743,-0.473,0.95,0.233,-0.21,-0.821,0.547,-0.164,0.641,-0.283,0.713,-0.9,0.106,-0.423,none
2.163998,0.109,0.657,0.746,0.098,-0.976,-0.195,-0.019,-0.897,-0.441,0.918,-0.392,0.056,-0.272,0.7,-0.661,0.988,-0.109,0.113,-0.546,0.741,-0.39,0.972,-0.191,-0.139,-0.488,0.788,-0.375,0.951,0.231,-0.204,-0.826,0.54,-0.159,0.645,-0.278,0.712,-0.872,-0.035,-0.488,none
2.209869,0.095,0.668,0.738,0.312,-0.937,0.156,-0.019,-0.897,-0.441,0.923,-0.375,0.088,-0.131,0.656,-0.743,0.984,-0.097,0.149,-0.34,0.745,-0.574,0.977,-0.187,-0.103,-0.285,0.813,-0.508,0.958,0.232,-0.17,-0.732,0.586,-0.348,0.654,-0.25,0.714,-0.933,-0.076,-0.353,none
2.252299,0.107,0.664,0.74,0.35,-0.889,0.296,-0.01,-0.892,-0.452,0.937,-0.325,0.125,0.064,0.658,-0.75,0.98,-0.05,0.194,-0.137,0.774,-0.619,0.986,-0.155,-0.066,-0.11,0.858,-0.502,0.955,0.273,-0.119,-0.733,0.55,-0.4,0.653,-0.227,0.722,-0.979,-0.109,-0.171,none
2.294666,0.162,0.667,0.727,0.464,-0.732,0.5,-0.034,-0.891,-0.453,0.949,-0.272,0.157,0.094,0.598,-0.796,0.973,-0.012,0.231,-0.056,0.747,-0.663,0.987,-0.152,-0.044,-0.05,0.826,-0.562,0.955,0.297,-0.028,-0.81,0.433,-0.396,0.69,-0.224,0.688,-0.949,-0.093,0.301,none
2.334555,0.222,0.718,0.659,0.464,-0.732,0.5,-0.068,-0.918,-0.39,0.949,-0.265,0.168,0.088,0.536,-0.839,0.969,-0.008,0.248,-0.028,0.741,-0.671,0.992,-0.123,0.008,-0.048,0.805,-0.591,0.936,0.35,-0.023,-0.836,0.315,-0.45,0.683,-0.331,0.651,-0.895,0.121,0.429,none
2.373632,0.273,0.733,0.623,0.403,-0.732,0.549,-0.142,-0.904,-0.403,0.954,-0.228,0.197,0.092,0.506,-0.858,0.951,0.026,0.31,0.012,0.733,-0.68,0.993,-0.09,0.076,-0.074,0.773,-0.631,0.894,0.434,0.112,-0.834,0.321,-0.449,0.662,-0.386,0.643,-0.895,0.2,0.4,none
2.418531,0.32,0.729,0.605,0.448,-0.628,0.637,-0.187,-0.912,-0.364,0.96,-0.122,0.252,0.104,0.421,-0.901,0.909,0.129,0.397,0.046,0.709,-0.704,0.986,-0.001,0.165,-0.257,0.671,-0.696,0.831,0.531,0.166,-0.855,0.301,-0.422,0.687,-0.432,0.584,-0.862,0.109,0.495,none
2.461335,0.314,0.733,0.603,0.32,-0.58,0.75,-0.228,-0.917,-0.328,0.97,-0.047,0.237,-0.105,0.248,-0.963,0.894,0.2,0.4,-0.077,0.559,-0.825,0.991,0.012,0.132,-0.802,0.189,-0.566,0.628,0.693,0.355,-0.877,0.215,-0.43,0.603,-0.508,0.615,-0.905,0.096,0.415,none
2.502363,0.46,0.652,0.603,0.32,-0.58,0.75,-0.251,-0.909,-0.332,0.941,0.034,0.338,-0.59,0.167,-0.79,0.801,0.291,0.522,-0.523,0.411,-0.747,0.954,0.127,0.27,-0.78,0.52,-0.349,0.71,0.616,0.341,-0.861,0.174,-0.478,0.598,-0.58,0.554,-0.86,-0.306,0.408,none
2.542057,0.409,0.701,0.584,0.706,-0.044,0.706,-0.251,-0.909,-0.332,0.963,0.031,0.269,-0.933,-0.114,-0.341,0.839,0.282,0.465,-0.832,-0.03,-0.554,0.975,0.089,0.205,-0.888,0.357,-0.29,0.755,0.557,0.347,-0.844,0.106,-0.527,0.663,-0.57,0.486,-0.757,-0.313,0.574,none
2.585881,0.399,0.689,0.605,-0.163,0.979,0.122,-0.251,-0.909,-0.332,0.944,0.023,0.328,-0.956,-0.269,-0.118,0.812,0.263,0.521,-0.849,-0.229,-0.477,0.961,0.071,0.268,-0.898,0.264,-0.352,0.751,0.494,0.438,-0.803,0.121,-0.584,0.621,-0.531,0.576,0.084,0.252,0.964,none
2.631299,0.37,0.687,0.626,0.0,0.995,-0.095,-0.259,-0.905,-0.336,0.969,-0.035,0.244,-0.952,-0.304,0.028,0.876,0.209,0.434,-0.864,-0.33,-0.381,0.985,0.015,0.171,-0.908,0.212,-0.361,0.653,0.463,0.599,-0.762,0.137,-0.633,0.607,-0.507,0.611,0.47,0.059,0.881,none
2.66973,0.365,0.698,0.616,-0.05,0.994,0.099,-0.259,-0.905,-0.336,0.958,-0.016,0.285,-0.898,-0.439,0.021,0.834,0.244,0.495,-0.772,-0.467,-0.431,0.963,0.053,0.264,-0.843,0.099,-0.529,0.55,0.481,0.683,-0.735,0.129,-0.666,0.636,-0.5,0.588,0.426,0.155,0.891,none
2.714968,0.425,0.646,0.634,-0.168,0.963,0.209,-0.24,-0.921,-0.307,0.96,-0.032,0.278,-0.888,-0.429,0.163,0.841,0.235,0.487,-0.79,-0.522,-0.321,0.963,0.062,0.264,-0.931,0.042,-0.361,0.617,0.553,0.559,0.041,0.378,-0.925,0.58,-0.537,0.613,0.525,-0.193,0.829,none
2.759411,0.361,0.683,0.635,-0.091,0.996,0.023,-0.227,-0.902,-0.367,0.963,-0.031,0.268,-0.633,-0.589,0.502,0.847,0.239,0.475,-0.578,-0.813,-0.072,0.961,0.074,0.265,-0.891,-0.143,-0.43,0.613,0.379,0.693,-0.357,0.229,-0.905,0.614,-0.516,0.598,0.511,-0.296,0.807,none
2.798528,0.329,0.68,0.655,-0.267,0.964,0.021,-0.227,-0.902,-0.367,0.971,-0.041,0.234,-0.562,-0.723,0.402,0.868,0.24,0.435,-0.422,-0.894,-0.152,0.973,0.075,0.217,-0.793,-0.117,-0.598,0.456,0.357,0.815,-0.418,0.249,-0.874,0.609,-0.55,0.571,0.62,-0.124,0.775,none
2.843254,0.351,0.66,0.664,-0.217,0.959,-0.181,-0.227,-0.902,-0.367,0.975,-0.093,0.2,0.096,-0.735,0.671,0.899,0.192,0.393,0.109,-0.87,0.481,0.986,0.024,0.168,-0.549,-0.782,-0.296,0.539,0.105,0.836,-0.17,0.024,-0.985,0.558,-0.572,0.601,0.911,-0.022,0.412,none
2.889453,0.308,0.717,0.625,0.251,0.9,-0.356,-0.202,-0.904,-0.378,0.978,-0.086,0.189,0.182,-0.587,0.789,0.895,0.228,0.384,0.123,-0.673,0.73,0.98,0.094,0.176,-0.144,-0.89,0.433,0.121,0.376,0.919,0.511,-0.662,-0.549,0.509,-0.566,0.648,0.977,-0.186,-0.109,none
2.928313,0.314,0.638,0.703,0.251,0.9,-0.356,-0.139,-0.912,-0.385,0.977,-0.11,0.183,0.137,-0.434,0.891,0.902,0.21,0.378,0.007,-0.556,0.831,0.985,0.075,0.158,-0.089,-0.73,0.678,0.357,0.472,0.806,0.619,-0.724,-0.304,0.534,-0.556,0.637,0.79,-0.348,-0.505,none
2.970159,0.229,0.726,0.649,0.446,0.702,-0.556,-0.139,-0.912,-0.385,0.98,-0.145,0.139,0.097,-0.406,0.909,0.93,0.172,0.324,-0.029,-0.575,0.818,0.993,0.035,0.111,-0.101,-0.724,0.682,0.37,0.579,0.727,0.671,-0.617,-0.411,0.649,-0.385,0.657,0.806,-0.393,-0.443,none
3.012399,0.104,0.764,0.637,0.233,0.823,-0.519,-0.139,-0.912,-0.385,0.972,-0.212,0.105,0.187,-0.399,0.898,0.956,0.1,0.275,0.052,-0.629,0.776,0.998,-0.04,0.046,-0.03,-0.791,0.612,0.429,0.564,0.705,0.631,-0.185,-0.754,0.667,-0.308,0.678,0.841,-0.33,-0.429,none
3.051974,0.11,0.756,0.645,0.254,0.865,-0.432,-0.079,-0.939,-0.336,0.964,-0.223,0.147,0.301,-0.37,0.879,0.947,0.096,0.307,0.095,-0.591,0.801,0.997,-0.035,0.075,0.153,-0.798,0.583,0.366,0.596,0.715,0.57,0.071,-0.819,0.653,-0.308,0.692,0.746,-0.529,-0.404,none
3.096277,0.158,0.734,0.66,-0.697,-0.507,0.507,-0.079,-0.939,-0.336,0.969,-0.226,0.1,0.793,-0.595,0.132,0.962,0.092,0.259,0.571,-0.675,0.467,0.999,-0.028,0.043,0.716,-0.656,-0.239,0.391,0.552,0.736,-0.038,0.922,-0.384,0.646,-0.356,0.675,-0.636,0.742,0.212,none
3.140346,0.173,0.722,0.67,-0.611,-0.56,0.56,-0.077,-0.934,-0.35,0.97,-0.209,0.128,0.704,-0.101,-0.704,0.951,0.115,0.286,0.937,-0.312,0.156,0.997,0.004,0.075,0.786,-0.087,-0.612,0.322,0.565,0.759,-0.439,0.877,-0.195,0.618,-0.396,0.679,-0.946,0.278,0.167,none
3.178968,0.174,0.725,0.666,-0.215,-0.933,0.287,-0.077,-0.934,-0.35,0.966,-0.224,0.131,-0.0,0.394,-0.919,0.954,0.099,0.282,-0.707,0.707,0.0,0.998,-0.008,0.067,0.426,0.64,-0.64,0.307,0.571,0.761,-0.523,0.822,-0.224,0.613,-0.41,0.675,-0.973,0.102,-0.205,none
3.223799,0.165,0.748,0.643,0.365,-0.913,-0.183,-0.07,-0.929,-0.364,0.958,-0.251,0.138,0.535,0.802,-0.267,0.958,0.062,0.28,-0.198,0.693,0.693,0.997,-0.049,0.062,0.598,0.359,0.717,0.391,0.543,0.743,0.507,-0.169,0.845,0.642,-0.392,0.659,-0.812,-0.217,-0.542,none
3.27044,0.167,0.742,0.65,0.824,0.137,-0.549,-0.07,-0.929,-0.364,0.961,-0.239,0.142,0.802,0.535,0.267,0.953,0.077,0.292,0.08,0.477,0.875,0.996,-0.036,0.078,0.699,0.155,0.699,0.392,0.55,0.738,0.566,0.162,0.808,0.659,-0.389,0.644,-0.556,-0.556,-0.618,none
3.307958,0.168,0.746,0.644,0.824,0.137,-0.549,-0.102,-0.933,-0.345,0.967,-0.224,0.122,-0.858,0.191,-0.477,0.957,0.097,0.274,-0.992,0.09,-0.09,0.998,-0.013,0.062,-0.889,0.254,-0.381,0.324,0.583,0.745,0.553,0.553,0.623,0.639,-0.394,0.66,-0.662,-0.147,-0.735,none
3.347872,0.172,0.725,0.667,-0.123,-0.862,-0.492,-0.07,-0.931,-0.359,0.964,-0.235,0.128,-0.398,0.697,-0.597,0.957,0.079,0.28,-0.786,0.612,0.087,0.998,-0.034,0.061,-0.496,0.868,0.0,0.37,0.562,0.74,0.398,0.341,0.852,0.649,-0.386,0.656,-0.725,-0.181,-0.665,none
3.391094,0.174,0.748,0.64,-0.312,-0.937,-0.156,-0.085,-0.935,-0.343,0.964,-0.227,0.142,-0.566,0.162,-0.808,0.949,0.093,0.301,-0.802,0.267,-0.535,0.996,-0.02,0.088,-0.572,0.477,-0.667,0.353,0.579,0.735,0.215,0.79,0.574,0.663,-0.387,0.641,-0.816,0.125,-0.565,none
3.432826,0.172,0.741,0.649,-0.365,-0.913,-0.183,-0.085,-0.935,-0.343,0.963,-0.225,0.149,-0.829,0.079,-0.553,0.947,0.095,0.306,-0.816,0.082,-0.572,0.996,-0.021,0.09,-0.693,0.39,-0.606,0.372,0.568,0.734,0.139,0.787,0.602,0.65,-0.391,0.651,-0.686,0.374,-0.624,none
3.478181,0.175,0.752,0.636,0.811,-0.324,-0.487,-0.091,-0.931,-0.354,0.959,-0.233,0.164,-0.943,0.025,-0.331,0.941,0.092,0.326,-0.884,-0.0,-0.468,0.993,-0.019,0.118,-0.714,0.467,-0.522,0.374,0.574,0.729,0.207,0.668,0.714,0.667,-0.382,0.64,-0.368,0.294,-0.882,none
3.523379,0.145,0.746,0.65,0.667,0.333,-0.667,-0.087,-0.936,-0.34,0.967,-0.172,0.189,-0.953,0.034,-0.303,0.912,0.168,0.374,-0.862,0.032,-0.506,0.982,0.06,0.18,-0.777,0.435,-0.456,0.331,0.608,0.722,0.02,0.634,0.773,0.655,-0.34,0.675,-0.795,0.348,-0.497,none
3.561012,0.162,0.731,0.663,-0.074,-0.892,0.446,-0.087,-0.936,-0.34,0.968,-0.178,0.175,-0.918,0.121,-0.378,0.915,0.153,0.373,-0.792,0.216,-0.57,0.982,0.039,0.187,-0.693,0.553,-0.462,0.396,0.576,0.715,-0.13,0.615,0.777,0.667,-0.35,0.658,-0.868,0.496,-0.031,none
3.603135,0.21,0.75,0.627,0.04,-0.841,0.54,-0.119,-0.934,-0.338,0.976,-0.172,0.133,-0.902,0.258,-0.346,0.929,0.155,0.336,-0.766,0.336,-0.549,0.915,0.161,0.37,-0.685,0.588,-0.43,0.443,0.547,0.71,-0.181,0.614,0.769,0.702,-0.353,0.618,-0.522,0.653,0.548,none
3.640656,0.259,0.744,0.616,0.061,-0.635,0.77,-0.119,-0.934,-0.338,0.97,-0.233,0.066,-0.625,0.692,-0.361,0.945,0.102,0.309,-0.6,0.59,-0.54,0.941,0.135,0.312,-0.701,0.548,-0.457,0.412,0.53,0.741,-0.144,0.661,0.736,0.681,-0.405,0.61,-0.017,0.654,0.757,none
3.687446,0.306,0.718,0.625,0.197,-0.369,0.908,-0.183,-0.938,-0.296,0.973,-0.196,0.126,-0.36,0.894,-0.267,0.902,0.198,0.384,-0.467,0.602,-0.647,0.96,0.152,0.233,-0.742,0.54,-0.398,0.236,0.553,0.799,-0.277,0.704,0.654,0.659,-0.424,0.621,0.255,0.469,0.846,none
3.724027,0.257,0.742,0.619,0.0,-0.414,0.91,-0.183,-0.938,-0.296,0.968,-0.201,0.152,0.056,0.899,-0.435,0.894,0.184,0.409,-0.505,0.614,-0.606,0.926,0.152,0.345,-0.724,0.577,-0.379,0.219,0.507,0.834,-0.431,0.713,0.553,0.577,-0.459,0.676,0.365,0.463,0.808,none
3.770583,0.282,0.736,0.616,-0.107,-0.401,0.91,-0.208,-0.926,-0.314,0.971,-0.142,0.19,0.26,0.779,-0.571,0.859,0.271,0.433,-0.642,0.554,-0.529,0.812,0.277,0.513,-0.761,0.507,-0.405,0.186,0.478,0.858,-0.787,0.537,0.304,0.554,-0.436,0.709,0.501,0.491,0.712,none
3.807904,0.287,0.686,0.669,-0.544,-0.408,0.734,-0.208,-0.926,-0.314,0.961,-0.14,0.239,0.046,0.683,-0.729,0.851,0.213,0.481,-0.763,0.382,-0.522,0.921,0.068,0.383,-0.794,0.402,-0.456,0.26,0.434,0.863,-0.808,0.563,-0.171,0.489,-0.47,0.735,0.587,0.577,0.568,none
3.853853,0.311,0.706,0.637,-0.139,-0.787,0.602,-0.208,-0.926,-0.314,0.961,-0.12,0.25,-0.119,0.772,-0.624,0.839,0.222,0.498,-0.791,0.467,-0.395,0.879,0.046,0.475,-0.791,0.448,-0.418,0.332,0.418,0.845,-0.39,0.693,0.606,0.448,-0.403,0.798,0.659,0.642,0.392,none
3.892934,0.327,0.703,0.631,-0.249,-0.83,0.498,-0.234,-0.917,-0.323,0.963,-0.109,0.247,-0.277,0.72,-0.637,0.833,0.231,0.504,-0.762,0.515,-0.392,0.84,0.05,0.541,-0.725,0.558,-0.404,0.297,0.431,0.852,0.093,0.494,0.865,0.454,-0.42,0.786,0.332,0.936,0.121,none
3.937573,0.358,0.689,0.63,-0.305,-0.916,0.262,-0.25,-0.906,-0.34,0.955,-0.129,0.267,-0.371,0.743,-0.557,0.814,0.214,0.54,-0.694,0.662,-0.284,0.779,0.065,0.624,-0.696,0.674,-0.247,0.311,0.401,0.862,0.346,0.173,0.922,0.475,-0.413,0.777,0.142,0.948,-0.284,none
3.980434,0.347,0.71,0.612,0.057,-0.972,0.229,-0.279,-0.9,-0.336,0.935,-0.116,0.335,-0.93,-0.04,-0.364,0.792,0.22,0.57,-0.783,0.13,-0.609,0.438,0.239,0.867,-0.771,0.309,-0.557,0.111,0.527,0.843,-0.286,0.429,0.857,0.516,-0.424,0.744,0.545,0.818,-0.182,none
4.021639,0.378,0.718,0.585,-0.243,0.925,-0.292,-0.279,-0.9,-0.336,0.965,-0.218,0.143,-0.853,-0.518,0.061,0.847,0.22,0.485,0.653,-0.707,-0.272,0.412,0.5,0.762,-0.676,0.356,-0.645,-0.025,0.608,0.793,-0.592,-0.079,-0.802,0.593,-0.438,0.675,0.877,0.43,0.215,none
4.061239,0.326,0.684,0.653,-0.33,0.904,-0.273,-0.249,-0.901,-0.355,0.942,-0.144,0.303,-0.596,-0.799,0.076,0.597,0.266,0.757,-0.522,-0.661,-0.539,0.773,0.293,0.563,-0.493,0.357,-0.794,0.347,0.453,0.821,-0.482,0.018,-0.876,0.571,-0.522,0.634,0.864,0.478,0.157,none
4.106279,0.308,0.667,0.678,-0.424,0.849,-0.315,-0.192,-0.907,-0.375,0.964,-0.112,0.241,-0.799,-0.589,-0.121,0.788,0.279,0.549,-0.768,-0.322,-0.553,0.806,0.101,0.583,-0.26,0.335,-0.906,0.472,0.268,0.84,-0.44,0.061,-0.896,0.393,-0.148,0.907,0.958,0.287,0.014,none
4.148091,0.266,0.7,0.663,-0.411,0.912,0.013,-0.192,-0.907,-0.375,0.973,-0.107,0.205,-0.837,-0.527,-0.15,0.839,0.275,0.47,-0.805,-0.252,-0.537,0.668,0.156,0.728,-0.098,0.384,-0.918,0.173,0.354,0.919,-0.415,0.047,-0.909,0.397,-0.193,0.897,0.96,0.247,0.135,none
4.19394,0.282,0.653,0.703,-0.45,0.881,-0.144,-0.176,-0.902,-0.394,0.985,-0.141,0.095,-0.777,-0.626,-0.058,0.862,0.247,0.443,-0.635,-0.405,-0.657,0.552,0.168,0.817,0.069,0.448,-0.891,0.194,0.244,0.95,-0.245,0.089,-0.965,0.339,-0.054,0.939,0.985,0.174,0.005,none
4.237608,0.253,0.639,0.726,-0.45,0.881,-0.144,-0.186,-0.879,-0.439,0.981,-0.143,0.129,-0.555,-0.728,0.402,0.807,0.287,0.517,-0.644,-0.669,-0.372,0.396,0.275,0.876,0.192,0.322,-0.927,0.113,0.298,0.948,-0.067,-0.175,-0.982,0.324,0.001,0.946,1.0,0.0,0.021,none
4.277057,0.24,0.673,0.7,0.0,0.956,-0.294,-0.186,-0.879,-0.439,0.984,-0.158,0.079,-0.5,-0.826,0.261,0.864,0.244,0.441,-0.035,-0.804,-0.594,0.442,0.253,0.86,0.343,0.42,-0.84,0.139,0.317,0.938,0.25,-0.072,-0.966,0.37,0.034,0.928,0.996,-0.086,0.0,none
4.316707,0.2,0.663,0.721,0.035,0.989,-0.141,-0.186,-0.879,-0.439,0.981,-0.176,0.085,0.228,-0.912,0.342,0.833,0.262,0.488,0.653,-0.584,0.481,0.34,0.345,0.875,0.818,0.182,-0.545,0.081,0.362,0.929,0.622,-0.44,-0.648,0.333,0.08,0.939,0.91,-0.414,0.021,none
4.360343,0.193,0.669,0.718,0.818,0.234,-0.526,-0.186,-0.879,-0.439,0.987,-0.146,0.06,0.248,-0.91,0.331,0.828,0.299,0.475,0.748,-0.421,0.514,0.337,0.355,0.872,0.955,0.147,-0.257,0.144,0.371,0.917,0.727,-0.45,-0.519,0.384,0.07,0.921,0.529,-0.706,-0.471,none
4.402791,0.211,0.677,0.705,0.68,-0.272,-0.68,-0.186,-0.879,-0.439,0.986,-0.148,0.08,0.436,-0.873,-0.218,0.821,0.296,0.488,0.704,-0.352,0.616,0.328,0.361,0.873,0.998,0.067,0.0,0.148,0.378,0.914,0.963,-0.241,-0.12,0.406,0.068,0.911,-0.597,-0.697,-0.398,none
4.447879,0.221,0.666,0.713,0.68,-0.272,-0.68,-0.126,-0.897,-0.423,0.981,-0.172,0.086,0.575,-0.287,-0.766,0.803,0.301,0.514,0.978,0.0,0.21,0.28,0.392,0.876,0.628,0.386,0.676,0.103,0.369,0.924,0.088,0.704,0.704,0.395,0.054,0.917,-0.972,-0.075,-0.224,none
4.498296,0.217,0.665,0.715,-0.905,-0.302,-0.302,-0.159,-0.89,-0.427,0.984,-0.162,0.08,-0.442,-0.147,-0.885,0.848,0.277,0.451,-0.314,0.105,-0.943,0.352,0.343,0.871,0.323,0.889,0.323,0.094,0.374,0.923,0.577,0.577,0.577,0.386,0.052,0.921,-0.807,-0.073,-0.587,none
4.529377,0.224,0.677,0.701,0.588,-0.196,-0.784,-0.128,-0.909,-0.397,0.982,-0.17,0.087,0.183,-0.913,-0.365,0.823,0.282,0.493,0.485,-0.728,0.485,0.353,0.338,0.873,0.412,0.288,0.865,0.116,0.358,0.926,0.725,-0.218,0.653,0.402,0.045,0.915,-0.738,-0.527,-0.422,none
4.57303,0.199,0.666,0.719,0.813,0.339,-0.474,-0.128,-0.909,-0.397,0.989,-0.127,0.079,-0.889,-0.381,0.254,0.777,0.338,0.531,-0.902,-0.09,-0.421,0.316,0.361,0.877,0.265,0.265,0.927,0.106,0.359,0.927,0.773,-0.387,0.503,0.375,0.039,0.926,-0.185,-0.647,-0.74,none
4.612454,0.206,0.657,0.725,0.653,-0.218,-0.725,-0.127,-0.906,-0.404,0.982,-0.188,-0.016,0.15,0.0,0.989,0.851,0.292,0.437,-0.953,-0.28,0.112,0.476,0.245,0.844,0.154,0.027,0.988,0.163,0.278,0.947,0.693,-0.248,0.677,0.336,0.041,0.941,0.04,-0.644,-0.764,none
4.655769,0.166,0.686,0.709,0.621,-0.457,-0.637,-0.12,-0.913,-0.39,0.989,-0.149,0.014,0.488,0.214,0.846,0.845,0.333,0.419,-0.179,-0.44,0.88,0.542,0.283,0.792,0.13,-0.256,0.958,0.355,0.243,0.903,0.602,-0.087,0.794,0.385,0.059,0.921,0.116,-0.416,-0.902,none
4.700164,0.179,0.698,0.694,0.176,-0.893,-0.415,-0.12,-0.913,-0.39,0.979,-0.158,0.132,0.203,0.583,0.787,0.835,0.297,0.463,-0.163,-0.138,0.977,0.673,0.316,0.669,0.181,-0.355,0.917,0.509,0.457,0.73,0.564,-0.026,0.825,0.403,0.103,0.909,0.637,0.123,-0.761,none
4.739028,0.22,0.722,0.656,0.033,-0.999,-0.008,-0.148,-0.914,-0.379,0.966,-0.207,0.154,-0.84,0.511,0.183,0.869,0.212,0.447,-0.683,0.413,0.603,0.678,0.356,0.643,0.326,-0.31,0.893,0.445,0.606,0.66,0.482,0.051,0.875,0.444,0.126,0.887,0.638,-0.132,-0.759,none
4.784956,0.291,0.74,0.606,-0.082,-0.985,0.154,-0.167,-0.908,-0.384,0.935,-0.34,0.095,-0.16,0.984,0.08,0.866,0.121,0.486,-0.119,0.894,0.432,0.445,0.392,0.805,0.452,-0.219,0.864,0.357,0.624,0.695,0.35,0.214,0.912,0.529,0.157,0.834,0.632,0.253,-0.733,none
4.823356,0.304,0.74,0.6,-0.38,-0.792,0.478,-0.168,-0.907,-0.386,0.934,-0.308,0.179,0.481,0.864,-0.147,0.825,0.146,0.546,0.443,0.832,0.335,0.537,0.262,0.802,0.459,0.005,0.889,0.245,0.614,0.75,0.29,0.367,0.884,0.478,0.188,0.858,0.6,0.6,-0.528,none
4.86607,0.354,0.685,0.636,-0.662,-0.433,0.611,-0.168,-0.907,-0.386,0.933,-0.275,0.234,0.504,0.832,-0.234,0.765,0.195,0.614,0.225,0.965,0.132,0.504,0.258,0.824,0.323,0.423,0.846,0.206,0.561,0.802,0.268,0.499,0.824,0.404,0.188,0.895,0.564,0.774,-0.288,none
4.908948,0.374,0.628,0.683,-0.893,0.266,0.362,-0.235,-0.903,-0.359,0.933,-0.233,0.275,0.208,0.938,-0.278,0.744,0.226,0.628,-0.554,0.752,-0.356,0.493,0.279,0.824,-0.666,0.74,-0.099,0.085,0.595,0.799,0.17,0.593,0.787,0.345,0.202,0.916,0.635,0.767,-0.093,none
4.952817,0.327,0.625,0.709,-0.644,0.764,0.04,-0.235,-0.903,-0.359,0.944,-0.204,0.259,-0.965,0.173,-0.198,0.741,0.249,0.624,-0.905,0.171,-0.39,0.575,0.24,0.782,-0.796,0.126,-0.592,0.18,0.595,0.784,-0.957,0.052,-0.285,0.267,0.234,0.935,0.75,0.661,-0.018,none
4.991696,0.327,0.64,0.695,-0.445,0.815,-0.371,-0.235,-0.903,-0.359,0.949,-0.229,0.215,-0.993,-0.054,-0.107,0.719,0.251,0.648,-0.868,0.135,-0.478,0.576,0.233,0.783,-0.716,0.119,-0.688,0.25,0.563,0.787,-0.722,-0.309,-0.619,0.304,0.26,0.917,0.756,0.652,-0.052,none
5.035073,0.324,0.659,0.679,-0.367,0.873,-0.322,-0.235,-0.903,-0.359,0.942,-0.236,0.237,-0.99,-0.084,-0.117,0.768,0.217,0.602,-0.898,0.037,-0.438,0.675,0.15,0.722,-0.659,0.132,-0.74,0.393,0.475,0.787,-0.675,-0.229,-0.701,0.309,0.258,0.915,0.788,0.613,-0.066,none
5.073465,0.309,0.665,0.68,-0.806,0.516,-0.29,-0.235,-0.903,-0.359,0.943,-0.27,0.195,-0.968,0.073,-0.242,0.802,0.135,0.581,-0.913,-0.016,-0.408,0.604,0.162,0.781,-0.584,0.19,-0.789,0.268,0.516,0.813,-0.632,-0.116,-0.766,0.293,0.289,0.911,0.801,0.464,-0.379,none
5.11632,0.309,0.643,0.701,-0.806,0.516,-0.29,-0.195,-0.874,-0.446,0.95,-0.252,0.183,-0.721,0.661,-0.21,0.857,0.105,0.505,-0.971,-0.034,-0.238,0.688,0.113,0.717,-0.559,0.206,-0.803,0.509,0.37,0.777,-0.576,0.054,-0.815,0.119,0.264,0.957,0.686,0.201,-0.699,none
5.160998,0.309,0.619,0.723,-0.973,0.009,-0.23,-0.185,-0.845,-0.501,0.932,-0.28,0.231,0.191,0.858,-0.477,0.801,0.092,0.592,-0.902,-0.429,-0.045,0.566,0.161,0.808,-0.388,0.243,-0.889,0.325,0.419,0.848,-0.426,0.348,-0.835,0.134,0.416,0.9,0.608,0.187,-0.772,none
5.203043,0.307,0.581,0.754,-0.977,0.072,-0.2,-0.185,-0.845,-0.501,0.965,-0.228,0.131,-0.69,0.524,-0.499,0.606,0.185,0.774,-0.953,-0.15,-0.265,0.453,0.257,0.854,-0.325,0.234,-0.916,0.262,0.444,0.857,-0.581,0.173,-0.795,0.201,0.557,0.806,0.609,0.082,-0.789,none
5.242886,0.318,0.567,0.76,-0.904,0.419,-0.084,-0.185,-0.845,-0.501,0.959,-0.182,0.219,0.638,0.665,-0.387,0.393,0.35,0.85,-0.895,0.088,-0.437,0.435,0.325,0.84,-0.125,0.342,-0.931,0.194,0.417,0.888,-0.619,0.162,-0.769,0.172,0.6,0.781,0.637,0.151,-0.756,none
5.289176,0.278,0.497,0.822,-0.107,0.993,0.054,-0.185,-0.845,-0.501,0.948,-0.162,0.273,0.868,0.478,-0.137,0.824,0.22,0.522,-0.79,0.254,-0.559,0.603,0.21,0.77,0.056,0.306,-0.95,0.166,0.402,0.901,-0.511,0.03,-0.859,0.079,0.633,0.77,0.675,0.204,-0.71,none
5.32652,0.228,0.554,0.8,0.457,0.884,-0.091,-0.185,-0.845,-0.501,0.947,-0.096,0.306,0.932,0.359,0.051,0.793,0.212,0.571,-0.57,0.479,-0.668,0.437,0.321,0.84,0.113,0.331,-0.937,0.171,0.402,0.9,-0.387,0.069,-0.919,-0.003,0.637,0.771,0.674,-0.063,-0.736,none
5.372915,0.267,0.559,0.785,-0.714,0.227,-0.662,-0.147,-0.813,-0.564,0.949,-0.066,0.308,0.923,-0.298,0.244,0.652,0.244,0.718,-0.184,0.545,-0.818,0.345,0.31,0.886,0.21,0.351,-0.912,0.209,0.217,0.954,-0.175,0.181,-0.968,-0.044,0.643,0.765,0.57,-0.26,-0.779,none
5.412,0.295,0.507,0.81,-0.714,0.227,-0.662,-0.1,-0.789,-0.606,0.916,-0.176,0.36,-0.265,-0.893,0.364,0.66,0.229,0.716,0.177,0.454,-0.873,0.272,0.383,0.883,0.452,0.05,-0.89,0.066,0.332,0.941,0.211,0.026,-0.977,0.025,0.732,0.681,0.661,-0.263,-0.703,none
5.456085,0.19,0.532,0.825,0.014,0.643,-0.766,-0.097,-0.788,-0.607,0.931,-0.184,0.316,-0.31,-0.765,0.565,0.581,0.25,0.774,0.391,0.34,-0.855,0.307,0.427,0.851,0.503,0.0,-0.865,0.14,0.393,0.909,0.343,-0.266,-0.901,-0.013,0.761,0.649,0.759,-0.269,-0.593,none
5.496155,0.156,0.524,0.838,0.021,0.642,-0.766,-0.061,-0.823,-0.565,0.926,-0.22,0.306,-0.359,-0.564,0.744,0.498,0.329,0.803,0.471,0.305,-0.828,0.301,0.459,0.836,0.447,0.03,-0.894,0.155,0.429,0.89,0.401,-0.471,-0.785,-0.01,0.793,0.609,0.782,-0.284,-0.555,none
5.541152,0.187,0.536,0.823,0.486,0.618,-0.618,-0.049,-0.78,-0.624,0.917,-0.243,0.315,-0.074,-0.074,0.995,0.435,0.374,0.819,0.65,0.395,-0.65,0.315,0.438,0.842,0.401,0.361,-0.842,0.216,0.398,0.892,0.235,-0.704,-0.67,0.0,0.797,0.604,0.902,-0.373,-0.218,none
5.586785,0.14,0.522,0.842,-0.309,0.722,-0.619,-0.049,-0.78,-0.624,0.94,-0.187,0.286,0.199,-0.398,0.896,0.308,0.459,0.834,0.734,0.226,-0.64,0.189,0.497,0.847,-0.032,0.447,-0.894,0.12,0.424,0.897,-0.084,-0.252,-0.964,-0.069,0.772,0.632,0.732,-0.282,-0.62,none
5.625084,0.179,0.527,0.831,-0.408,-0.408,-0.816,-0.041,-0.792,-0.609,0.927,-0.224,0.301,0.963,-0.241,-0.12,0.333,0.456,0.825,0.487,0.811,-0.324,0.278,0.434,0.857,-0.401,0.842,-0.361,0.169,0.389,0.905,-0.639,0.064,-0.767,-0.028,0.792,0.609,0.337,-0.421,-0.842,none
5.670147,0.171,0.55,0.818,-0.442,0.885,0.147,-0.041,-0.792,-0.609,0.933,-0.209,0.291,0.834,-0.531,-0.152,0.312,0.469,0.826,0.47,0.881,0.059,0.222,0.46,0.86,-0.055,0.997,0.055,0.146,0.386,0.911,0.196,0.981,0.0,-0.043,0.786,0.617,0.446,0.074,-0.892,none
5.707614,0.177,0.516,0.838,0.6,0.8,-0.0,-0.041,-0.792,-0.609,0.926,-0.233,0.298,0.553,-0.623,0.553,0.392,0.424,0.817,0.339,0.493,0.801,0.27,0.427,0.863,0.138,0.484,0.864,0.167,0.374,0.912,0.416,0.178,0.892,-0.027,0.799,0.601,0.878,-0.188,-0.439,none
5.752715,0.166,0.547,0.821,0.462,0.873,-0.154,-0.034,-0.807,-0.59,0.932,-0.21,0.294,-0.345,-0.552,0.759,0.334,0.46,0.823,0.35,0.309,0.885,0.273,0.421,0.865,0.356,0.169,0.919,0.133,0.392,0.91,0.658,0.114,0.744,-0.033,0.793,0.609,0.998,0.0,-0.055,none
5.79524,0.187,0.508,0.841,0.462,0.873,-0.154,-0.034,-0.815,-0.579,0.877,-0.325,0.353,-0.566,-0.793,0.226,0.788,0.135,0.6,0.168,0.184,0.969,0.725,0.098,0.681,0.265,0.063,0.962,0.423,0.252,0.87,0.475,0.073,0.877,0.069,0.835,0.546,0.45,0.166,0.877,none
5.839431,0.1,0.602,0.792,0.674,0.606,0.423,-0.035,-0.802,-0.597,0.632,0.243,0.736,-0.743,-0.542,-0.393,0.588,0.478,0.652,0.058,-0.095,0.994,0.486,0.497,0.719,0.204,-0.103,0.974,0.624,0.333,0.707,0.476,0.15,0.867,0.136,0.82,0.555,-0.276,0.12,0.954,none
5.887199,0.074,0.585,0.808,0.131,0.075,0.989,-0.026,-0.84,-0.543,0.861,-0.123,-0.494,-0.874,-0.349,-0.339,0.4,0.692,0.601,0.282,-0.311,0.908,0.601,0.584,0.545,0.222,-0.152,0.963,0.359,0.656,0.664,0.399,0.204,0.894,0.177,0.785,0.594,-0.557,0.158,0.815,none
5.926382,0.13,0.543,0.83,-0.613,-0.454,0.647,-0.065,-0.826,-0.56,0.981,-0.057,-0.188,0.276,0.571,-0.773,0.451,0.614,0.648,0.516,-0.327,0.792,0.369,0.667,0.647,0.353,-0.322,0.879,0.055,0.73,0.681,0.439,0.072,0.895,0.03,0.734,0.679,-0.651,0.257,0.714,none
5.96794,0.188,0.48,0.857,-0.454,-0.767,0.454,-0.065,-0.826,-0.56,0.996,-0.078,-0.046,0.867,0.466,0.173,0.708,0.406,0.577,0.634,-0.142,0.76,0.66,0.483,0.575,0.534,-0.182,0.826,0.353,0.708,0.612,0.702,0.038,0.712,-0.015,0.596,0.803,-0.723,0.323,0.611,none
6.013208,0.288,0.52,0.804,-0.217,-0.87,0.443,-0.149,-0.781,-0.606,0.995,-0.06,0.078,0.899,0.417,0.136,0.668,0.48,0.568,0.756,0.054,0.652,0.493,0.567,0.659,0.671,-0.009,0.741,0.272,0.73,0.627,0.763,0.171,0.624,0.098,0.42,0.902,-0.797,0.436,0.418,none
6.054585,0.311,0.451,0.837,-0.442,-0.826,0.35,-0.18,-0.766,-0.617,0.977,-0.152,0.148,0.912,0.409,0.022,0.779,0.33,0.533,0.825,0.096,0.556,0.707,0.384,0.593,0.796,0.083,0.6,0.399,0.757,0.518,0.772,0.206,0.602,0.073,0.31,0.948,-0.804,0.543,0.241,none
6.093344,0.363,0.457,0.812,-0.442,-0.826,0.35,-0.23,-0.755,-0.614,0.979,-0.142,0.149,0.93,0.366,0.038,0.744,0.341,0.574,0.826,0.158,0.541,0.663,0.417,0.622,0.84,0.129,0.527,0.298,0.735,0.609,0.809,0.177,0.561,0.069,0.246,0.967,-0.798,0.603,-0.009,none
6.135853,0.357,0.452,0.818,-0.365,-0.929,0.066,-0.237,-0.757,-0.609,0.957,-0.07,0.282,0.947,0.317,0.046,0.766,0.308,0.565,0.827,0.176,0.534,0.691,0.417,0.59,0.873,0.149,0.465,0.354,0.762,0.542,0.811,0.124,0.572,-0.076,0.196,0.978,-0.026,0.156,-0.987,none
6.180669,0.364,0.431,0.826,-0.521,-0.826,-0.215,-0.247,-0.752,-0.612,0.938,-0.033,0.345,0.963,0.266,0.051,0.785,0.298,0.542,0.791,0.155,0.591,0.758,0.378,0.532,0.858,0.138,0.496,0.49,0.754,0.437,0.794,0.092,0.601,-0.189,0.314,0.93,0.34,-0.131,-0.931,none
6.226299,0.395,0.443,0.805,-0.208,-0.834,-0.512,-0.256,-0.767,-0.589,0.918,-0.016,0.396,0.826,0.542,-0.156,0.79,0.284,0.543,0.602,0.301,0.739,0.67,0.527,0.523,0.927,-0.121,-0.356,0.441,0.809,0.388,0.895,0.079,0.438,0.207,0.467,0.86,0.448,0.097,-0.889,none
6.264407,0.382,0.446,0.809,-0.208,-0.834,-0.512,-0.257,-0.758,-0.599,0.916,-0.011,0.401,0.535,0.737,-0.412,0.798,0.275,0.536,0.846,-0.433,0.31,0.693,0.499,0.52,0.786,-0.337,-0.518,0.406,0.783,0.471,0.965,-0.261,-0.0,0.117,0.431,0.895,0.276,0.527,-0.804,none
6.307043,0.406,0.455,0.793,0.239,-0.752,-0.615,-0.298,-0.757,-0.581,0.907,0.003,0.421,0.049,0.688,-0.724,0.827,0.279,0.487,0.583,-0.766,-0.27,0.559,0.683,0.47,-0.812,0.361,-0.458,0.243,0.8,0.549,-0.817,-0.186,-0.545,0.193,0.458,0.868,0.212,0.185,-0.96,none
6.347162,0.391,0.399,0.829,0.239,-0.752,-0.615,-0.238,-0.769,-0.594,0.907,-0.017,0.42,-0.434,0.763,-0.479,0.843,0.205,0.498,0.55,-0.835,0.0,0.166,0.902,0.398,-0.956,-0.134,-0.261,0.302,0.897,0.324,-0.893,-0.017,-0.449,0.309,0.54,0.783,0.545,-0.398,-0.738,none
6.392291,0.401,0.494,0.771,0.671,0.588,-0.452,-0.238,-0.769,-0.594,0.915,-0.037,0.402,-0.445,0.413,0.795,0.885,0.224,0.408,0.223,-0.536,0.814,0.606,0.745,0.28,-0.869,0.009,-0.495,0.3,0.761,0.576,-0.844,-0.113,-0.524,0.092,0.504,0.859,0.905,-0.389,-0.172,none
6.431662,0.386,0.533,0.753,0.253,0.874,-0.414,-0.238,-0.769,-0.594,0.919,-0.067,0.389,-0.344,-0.384,0.857,0.899,0.227,0.374,-0.022,-0.429,0.903,0.884,0.463,-0.06,-0.695,0.1,-0.712,0.274,0.828,0.49,-0.781,-0.11,-0.614,0.037,0.471,0.881,0.985,-0.152,0.085,none
6.476885,0.38,0.406,0.831,0.04,0.789,-0.613,-0.194,-0.774,-0.602,0.92,-0.16,0.357,-0.3,-0.43,0.852,0.938,0.099,0.332,-0.18,-0.397,0.9,0.97,0.215,0.115,-0.182,-0.006,-0.983,0.515,0.615,0.597,-0.473,-0.18,-0.862,0.039,0.598,0.8,0.988,-0.106,0.116,none
6.522348,0.163,0.551,0.818,0.308,0.791,-0.528,-0.034,-0.798,-0.601,0.926,-0.259,0.275,-0.233,-0.341,0.911,0.974,0.003,0.228,-0.147,-0.415,0.898,0.818,0.33,0.47,0.379,-0.221,-0.899,0.775,0.245,0.583,0.076,-0.278,-0.957,0.0,0.705,0.709,0.99,-0.061,0.125,none
6.560322,0.016,0.569,0.822,0.235,0.816,-0.528,-0.034,-0.798,-0.601,0.895,-0.347,0.281,-0.191,-0.239,0.952,0.972,-0.084,0.219,-0.052,-0.456,0.888,0.61,0.5,0.615,0.578,-0.394,-0.714,0.347,0.571,0.744,0.485,-0.426,-0.764,0.009,0.765,0.644,0.989,-0.026,0.144,none
6.602995,-0.015,0.595,0.804,0.533,0.715,-0.452,-0.034,-0.798,-0.601,0.858,-0.437,0.269,-0.09,-0.123,0.988,0.963,-0.172,0.207,0.09,-0.419,0.903,0.606,0.508,0.612,0.669,-0.439,-0.599,0.388,0.544,0.744,0.66,-0.455,-0.598,0.071,0.815,0.575,0.975,0.014,0.22,none
6.645847,-0.022,0.641,0.768,0.44,0.857,-0.27,0.114,-0.842,-0.527,0.837,-0.481,0.262,0.073,-0.147,0.986,0.96,-0.207,0.189,0.326,-0.389,0.862,0.571,0.553,0.607,0.815,-0.371,-0.445,0.327,0.558,0.763,0.713,-0.469,-0.521,0.067,0.83,0.554,0.94,0.125,0.317,none
6.689273,-0.041,0.609,0.792,0.39,0.919,-0.056,0.116,-0.851,-0.513,0.842,-0.481,0.245,0.227,-0.289,0.93,0.966,-0.199,0.166,0.558,-0.339,0.757,0.551,0.558,0.62,0.941,0.082,-0.327,0.307,0.55,0.776,0.816,0.082,-0.572,0.051,0.837,0.544,0.883,0.255,0.395,none
6.729636,-0.039,0.624,0.781,0.555,0.777,0.296,0.155,-0.831,-0.535,0.843,-0.481,0.239,0.675,-0.145,0.723,0.97,-0.186,0.153,0.877,-0.227,0.422,0.485,0.612,0.624,0.239,0.958,0.16,0.216,0.564,0.797,-0.432,0.792,0.432,0.033,0.835,0.549,0.667,0.477,0.572,none
6.772923,-0.025,0.611,0.791,0.848,0.53,0.0,0.155,-0.831,-0.535,0.831,-0.499,0.247,0.78,0.52,-0.347,0.964,-0.211,0.164,0.937,0.331,-0.11,0.528,0.584,0.617,-0.565,0.816,0.125,0.236,0.557,0.797,-0.864,0.393,0.314,0.056,0.845,0.532,-0.183,-0.365,0.913,none
6.812139,-0.03,0.624,0.781,0.926,0.337,0.168,0.155,-0.831,-0.535,0.823,-0.507,0.254,0.578,0.788,-0.21,0.961,-0.219,0.17,0.585,0.81,0.045,0.518,0.597,0.612,-0.667,0.572,0.477,0.247,0.549,0.799,-0.741,-0.074,0.667,0.066,0.85,0.523,-0.248,-0.433,0.867,none
6.856386,-0.03,0.623,0.782,0.9,0.331,-0.284,0.136,-0.841,-0.524,0.824,-0.506,0.255,0.14,0.98,0.14,0.96,-0.217,0.176,0.048,0.921,0.388,0.525,0.589,0.614,-0.503,-0.072,0.862,0.238,0.543,0.805,-0.092,-0.829,0.552,0.069,0.849,0.524,0.112,-0.781,0.614,none
6.895871,-0.025,0.633,0.774,0.788,0.501,-0.358,0.136,-0.841,-0.524,0.817,-0.513,0.262,-0.139,0.766,0.627,0.956,-0.231,0.182,-0.091,0.681,0.727,0.532,0.581,0.616,0.116,-0.349,0.93,0.273,0.546,0.792,0.444,-0.634,0.634,0.085,0.856,0.509,0.424,-0.707,0.566,none
6.940061,-0.072,0.646,0.76,0.816,0.384,-0.432,0.166,-0.852,-0.496,0.821,-0.509,0.258,-0.627,0.766,0.139,0.958,-0.223,0.179,-0.639,0.511,0.575,0.515,0.59,0.622,-0.094,-0.656,0.749,0.264,0.563,0.783,0.503,-0.704,0.503,0.078,0.858,0.507,0.333,-0.933,0.133,none
6.982507,-0.064,0.67,0.74,0.371,-0.557,-0.743,0.156,-0.874,-0.459,0.805,-0.526,0.274,-0.625,0.625,-0.469,0.948,-0.249,0.198,-0.778,0.623,0.078,0.558,0.565,0.608,-0.707,0.0,0.707,0.292,0.556,0.778,-0.408,-0.408,0.816,0.105,0.862,0.496,-0.179,-0.984,-0.0,none
7.02001,-0.053,0.669,0.741,0.371,-0.928,0.0,0.156,-0.874,-0.459,0.812,-0.515,0.273,-0.535,0.267,-0.802,0.952,-0.234,0.196,-0.788,0.394,-0.473,0.528,0.577,0.623,-0.808,0.566,-0.162,0.272,0.561,0.782,-0.949,0.316,-0.0,0.098,0.856,0.507,-0.707,-0.566,-0.424,none
7.062188,-0.021,0.642,0.766,-0.492,-0.862,0.123,0.152,-0.875,-0.46,0.808,-0.517,0.284,-0.294,0.176,-0.94,0.947,-0.243,0.211,-0.445,0.371,-0.815,0.564,0.543,0.623,-0.639,0.688,0.344,0.283,0.548,0.787,-0.809,0.498,0.311,0.12,0.856,0.503,-0.857,-0.396,-0.33,none
7.099932,-0.033,0.661,0.75,0.329,-0.768,0.549,0.152,-0.875,-0.46,0.819,-0.504,0.274,-0.294,0.176,-0.94,0.954,-0.221,0.201,-0.473,0.394,-0.788,0.535,0.562,0.63,-0.732,0.671,0.122,0.264,0.545,0.796,-0.919,0.394,0.0,0.101,0.85,0.517,-0.857,-0.396,-0.33,none
7.142547,-0.022,0.649,0.761,-0.444,-0.889,0.111,0.126,-0.857,-0.499,0.811,-0.515,0.279,-0.198,0.693,-0.693,0.948,-0.239,0.209,-0.341,0.936,-0.085,0.561,0.544,0.623,-0.431,0.269,0.861,0.293,0.532,0.794,-0.612,-0.087,0.786,0.118,0.856,0.503,-0.597,-0.697,0.398,none
7.179804,-0.03,0.665,0.747,0.953,0.272,-0.136,0.126,-0.857,-0.499,0.817,-0.505,0.279,-0.424,0.707,-0.566,0.952,-0.223,0.21,-0.446,0.892,0.074,0.524,0.569,0.633,-0.296,-0.118,0.948,0.256,0.552,0.794,-0.173,-0.259,0.95,0.105,0.85,0.516,-0.185,-0.74,0.647,none
7.219588,-0.029,0.652,0.758,0.957,0.205,-0.205,0.146,-0.874,-0.463,0.814,-0.509,0.28,-0.843,0.527,-0.105,0.948,-0.233,0.217,-0.535,0.802,0.267,0.569,0.529,0.629,-0.164,-0.328,0.93,0.295,0.536,0.791,0.08,-0.477,0.875,0.118,0.854,0.507,-0.0,-0.908,0.419,none
7.263414,-0.028,0.677,0.735,0.915,0.057,-0.4,0.124,-0.857,-0.501,0.813,-0.51,0.281,-0.577,0.115,-0.808,0.947,-0.231,0.224,-0.11,0.992,-0.055,0.549,0.545,0.633,-0.098,0.148,0.984,0.298,0.548,0.781,-0.058,0.173,0.983,0.123,0.853,0.507,-0.304,-0.852,0.426,none
7.302681,-0.047,0.667,0.743,0.0,0.0,1.0,0.124,-0.857,-0.501,0.817,-0.508,0.273,-0.467,-0.052,-0.883,0.947,-0.232,0.223,-0.108,0.755,-0.647,0.547,0.544,0.636,-0.383,0.69,0.614,0.286,0.549,0.785,-0.298,0.596,0.745,0.125,0.856,0.501,-0.566,-0.793,-0.226,none
7.344741,-0.039,0.673,0.739,-0.688,-0.688,0.229,0.124,-0.857,-0.501,0.812,-0.514,0.276,-0.298,-0.06,-0.953,0.943,-0.237,0.234,0.082,0.164,-0.983,0.569,0.528,0.63,-0.371,0.928,-0.0,0.303,0.542,0.784,-0.616,0.704,0.352,0.138,0.857,0.497,-0.601,-0.526,-0.601,none
7.386326,-0.032,0.674,0.738,-0.745,-0.298,0.596,0.124,-0.857,-0.501,0.816,-0.507,0.277,-0.124,-0.062,-0.99,0.945,-0.228,0.235,0.16,-0.239,-0.958,0.565,0.528,0.635,-0.196,0.981,-0.0,0.301,0.538,0.787,-0.474,0.813,0.339,0.136,0.854,0.503,-0.614,-0.383,-0.69,none
7.431915,-0.033,0.663,0.748,-0.857,0.0,0.514,0.149,-0.87,-0.469,0.825,-0.496,0.273,-0.209,0.07,-0.975,0.95,-0.212,0.229,0.095,-0.286,-0.953,0.542,0.54,0.645,-0.216,0.97,-0.108,0.263,0.549,0.793,-0.549,0.768,0.329,0.124,0.852,0.509,-0.594,-0.254,-0.763,none
7.476378,-0.025,0.657,0.753,-0.857,0.0,0.514,0.139,-0.87,-0.474,0.827,-0.492,0.271,-0.206,0.309,-0.928,0.952,-0.208,0.225,0.196,-0.588,-0.784,0.515,0.56,0.649,-0.236,0.943,0.236,0.254,0.55,0.796,-0.686,0.514,0.514,0.119,0.851,0.511,-0.408,-0.408,-0.816,none
7.51633,-0.036,0.658,0.752,0.905,0.302,-0.302,0.152,-0.875,-0.46,0.828,-0.491,0.272,-0.488,0.39,-0.781,0.952,-0.208,0.224,-0.885,-0.147,-0.442,0.538,0.546,0.642,-0.145,-0.582,-0.8,0.273,0.548,0.791,-0.894,0.0,-0.447,0.122,0.854,0.506,-0.545,-0.545,-0.636,none
7.555573,-0.025,0.671,0.741,0.123,-0.862,-0.492,0.124,-0.895,-0.429,0.817,-0.505,0.279,-0.302,0.302,-0.905,0.945,-0.23,0.232,-0.905,-0.302,-0.302,0.58,0.516,0.631,0.088,-0.704,-0.704,0.313,0.533,0.786,-1.0,0.0,0.0,0.143,0.86,0.49,-0.625,-0.625,-0.469,none
7.599805,-0.04,0.667,0.744,-0.707,-0.0,0.707,0.124,-0.895,-0.429,0.826,-0.492,0.274,-0.241,-0.12,-0.963,0.952,-0.208,0.225,-0.64,-0.426,-0.64,0.548,0.538,0.64,-0.123,-0.123,-0.985,0.275,0.547,0.791,-0.894,0.447,-0.0,0.123,0.855,0.504,-0.808,-0.115,-0.577,none
7.645692,-0.025,0.671,0.741,0.192,-0.192,0.962,0.124,-0.895,-0.429,0.818,-0.504,0.277,0.236,-0.236,-0.943,0.946,-0.226,0.233,0.302,0.302,-0.905,0.575,0.522,0.63,-0.083,0.745,0.662,0.315,0.538,0.782,-0.477,0.572,0.667,0.14,0.861,0.489,-0.953,0.136,-0.272,none
7.684006,-0.053,0.677,0.734,0.192,-0.192,0.962,0.145,-0.868,-0.475,0.827,-0.494,0.268,0.118,-0.296,-0.948,0.952,-0.209,0.223,-0.085,0.341,-0.936,0.547,0.544,0.636,-0.241,0.868,0.434,0.286,0.559,0.778,-0.498,0.775,0.388,0.123,0.858,0.499,-0.94,0.176,-0.294,none
7.728574,-0.051,0.669,0.741,-0.425,-0.691,0.585,0.145,-0.868,-0.475,0.826,-0.49,0.28,-0.0,-0.302,-0.953,0.945,-0.208,0.251,-0.313,0.715,-0.625,0.622,0.471,0.625,-0.328,0.729,0.601,0.348,0.532,0.772,-0.548,0.748,0.374,0.149,0.854,0.498,-0.997,0.023,-0.068,none
7.767479,-0.019,0.659,0.752,-0.425,-0.691,0.585,0.081,-0.86,-0.504,0.819,-0.454,0.351,-0.161,-0.372,-0.914,0.93,-0.167,0.328,-0.378,0.673,-0.635,0.584,0.486,0.651,-0.195,0.597,0.778,0.452,0.48,0.752,-0.183,0.695,0.695,0.166,0.837,0.521,-0.952,0.066,0.299,none
7.812513,0.014,0.638,0.77,-0.425,-0.691,0.585,0.082,-0.851,-0.519,0.89,-0.359,0.281,-0.38,-0.192,-0.905,0.941,-0.072,0.332,-0.259,0.573,-0.778,0.592,0.454,0.666,-0.288,0.641,0.712,0.404,0.509,0.76,-0.126,0.704,0.699,0.113,0.805,0.582,-0.983,0.069,0.169,none
7.851723,0.093,0.58,0.81,-0.28,-0.752,0.597,0.074,-0.865,-0.496,0.928,-0.268,0.259,-0.582,-0.129,-0.803,0.89,0.02,0.456,-0.354,0.338,-0.872,0.81,0.23,0.539,-0.233,0.402,0.885,0.603,0.401,0.689,-0.018,0.475,0.88,0.204,0.767,0.608,-0.963,0.075,0.258,none
7.894469,0.186,0.605,0.774,-0.07,-0.673,0.737,0.074,-0.865,-0.496,0.901,-0.272,0.337,-0.917,0.082,-0.391,0.933,0.135,0.333,-0.649,0.119,-0.751,0.61,0.473,0.636,0.034,0.158,0.987,0.38,0.62,0.687,0.241,0.243,0.94,0.27,0.716,0.644,-0.895,0.178,0.41,none
7.938763,0.208,0.625,0.752,-0.249,-0.549,0.798,-0.06,-0.857,-0.512,0.971,-0.223,0.082,-0.825,0.126,-0.551,0.807,0.362,0.467,-0.73,0.164,-0.664,0.343,0.511,0.788,0.257,0.179,0.95,0.0,0.672,0.741,0.298,0.412,0.861,0.267,0.626,0.733,-0.832,0.247,0.497,none
7.978891,0.304,0.534,0.789,-0.295,-0.552,0.78,-0.149,-0.855,-0.497,0.983,-0.177,0.052,-0.847,0.136,-0.514,0.752,0.401,0.524,-0.721,0.234,-0.652,0.423,0.369,0.827,0.414,0.331,0.848,0.117,0.556,0.823,0.237,0.609,0.757,0.168,0.523,0.836,-0.791,0.234,0.565,none
8.024365,0.328,0.524,0.786,-0.58,-0.511,0.635,-0.185,-0.836,-0.517,0.982,-0.017,0.188,-0.906,0.063,-0.419,0.922,0.258,0.29,-0.673,0.311,-0.671,0.424,0.315,0.849,0.709,0.57,0.416,0.116,0.528,0.841,0.382,0.725,0.573,0.126,0.358,0.925,-0.767,0.271,0.582,none
8.065829,0.341,0.483,0.807,-0.587,-0.54,0.603,-0.185,-0.836,-0.517,0.988,-0.082,0.132,-0.933,0.112,-0.341,0.825,0.215,0.523,-0.604,0.375,-0.703,0.538,0.257,0.803,0.554,0.831,0.046,0.192,0.535,0.823,0.241,0.843,0.482,0.151,0.3,0.942,-0.773,0.244,0.586,none
8.111455,0.332,0.541,0.772,-0.126,-0.588,0.799,-0.235,-0.793,-0.562,0.995,-0.071,0.071,-0.965,0.083,-0.249,0.732,0.3,0.612,-0.595,0.349,-0.724,0.621,0.228,0.75,0.757,-0.011,0.654,0.279,0.516,0.81,0.748,0.213,0.628,0.16,0.188,0.969,-0.795,0.235,0.56,none
8.154339,0.365,0.508,0.78,-0.126,-0.588,0.799,-0.265,-0.797,-0.543,0.984,-0.179,0.004,-0.968,0.101,-0.229,0.81,0.201,0.551,-0.503,0.503,-0.704,0.816,0.188,0.546,0.692,-0.246,0.679,0.534,0.557,0.636,0.864,-0.008,0.504,0.152,0.161,0.975,-0.765,0.245,0.596,none
8.198725,0.368,0.517,0.772,-0.126,-0.588,0.799,-0.267,-0.793,-0.548,0.984,-0.18,-0.012,-0.893,0.385,-0.231,0.863,0.201,0.463,0.729,0.347,0.59,0.653,0.384,0.653,0.746,-0.193,0.637,0.363,0.702,0.613,0.809,-0.065,0.585,0.182,0.119,0.976,-0.789,0.177,0.588,none
8.240992,0.371,0.494,0.786,0.566,-0.808,0.162,-0.267,-0.793,-0.548,0.99,-0.139,0.023,0.927,0.373,0.024,0.756,0.323,0.569,0.754,-0.023,0.656,0.734,0.384,0.561,0.857,-0.117,0.501,0.387,0.725,0.569,0.701,-0.098,0.706,0.121,0.066,0.991,-0.784,0.016,0.621,none
8.28107,0.369,0.501,0.783,0.852,-0.213,-0.479,-0.27,-0.811,-0.52,0.991,-0.113,-0.066,0.966,0.254,-0.044,0.727,0.393,0.563,0.71,-0.095,0.698,0.722,0.491,0.487,0.867,-0.036,0.497,0.457,0.798,0.394,0.728,-0.147,0.67,0.095,0.005,0.995,-0.825,-0.197,0.529,none
8.327376,0.374,0.485,0.791,0.319,-0.225,-0.92,-0.27,-0.811,-0.52,0.995,0.031,0.099,0.979,0.192,0.069,0.711,0.468,0.525,0.682,-0.157,0.715,0.708,0.568,0.419,0.81,-0.016,0.586,0.5,0.83,0.247,0.756,-0.157,0.635,0.057,-0.071,0.996,-0.823,-0.548,0.151,none
8.364794,0.364,0.51,0.78,0.319,-0.225,-0.92,-0.239,-0.822,-0.517,0.981,0.05,0.188,0.953,0.154,0.259,0.763,0.391,0.515,0.632,-0.172,0.756,0.737,0.497,0.457,0.735,0.009,0.678,0.622,0.74,0.257,0.758,-0.078,0.648,0.017,-0.123,0.992,-0.124,-0.791,-0.599,none
8.410971,0.356,0.54,0.763,0.366,-0.061,-0.929,-0.239,-0.822,-0.517,0.963,-0.138,0.231,0.884,0.06,0.464,0.891,0.109,0.44,0.585,-0.155,0.796,0.872,0.223,0.435,0.617,0.068,0.784,0.835,0.536,0.123,0.733,0.097,0.673,-0.555,-0.298,0.776,0.528,-0.44,-0.726,none
8.450283,0.34,0.644,0.686,0.366,-0.061,-0.929,-0.151,-0.874,-0.462,0.911,0.015,0.411,0.764,0.045,0.643,0.827,0.239,0.509,0.482,-0.155,0.862,0.812,0.354,0.464,0.471,0.094,0.877,0.749,0.633,0.197,0.706,0.06,0.706,0.241,0.547,0.802,0.643,-0.199,-0.74,none
8.494857,0.251,0.715,0.653,0.162,0.337,-0.927,-0.075,-0.878,-0.474,0.866,-0.095,0.49,0.692,0.215,0.689,0.827,0.093,0.555,0.44,0.014,0.898,0.819,0.188,0.542,0.468,0.256,0.846,0.869,0.445,0.217,0.73,0.16,0.665,0.543,0.595,0.593,0.776,-0.062,-0.628,none
8.534744,0.142,0.722,0.677,0.382,0.784,-0.489,-0.075,-0.878,-0.474,0.844,-0.242,0.479,0.498,0.337,0.799,0.856,-0.075,0.511,0.326,0.098,0.94,0.87,0.039,0.491,0.217,0.324,0.921,0.94,0.332,0.08,0.362,0.109,0.926,0.312,0.657,0.687,0.874,0.138,-0.466,none
8.579697,0.037,0.721,0.691,0.572,0.621,-0.535,0.063,-0.918,-0.391,0.873,-0.265,0.41,0.302,0.548,0.78,0.888,-0.116,0.445,0.167,0.187,0.968,0.896,-0.03,0.442,-0.037,0.239,0.97,0.966,0.258,0.008,0.062,0.103,0.993,0.173,0.724,0.668,0.931,0.084,-0.355,none
8.617856,0.085,0.712,0.697,0.346,0.572,-0.744,0.063,-0.918,-0.391,0.82,-0.334,0.465,0.097,0.638,0.764,0.851,-0.22,0.476,0.063,0.181,0.981,0.875,-0.112,0.471,-0.171,0.192,0.966,0.983,0.183,0.019,-0.068,0.136,0.988,0.167,0.782,0.6,0.965,-0.016,-0.26,none
8.659969,0.075,0.72,0.69,0.546,0.522,-0.655,0.097,-0.923,-0.373,0.799,-0.368,0.475,0.063,0.683,0.728,0.835,-0.275,0.476,-0.022,0.389,0.921,0.86,-0.174,0.48,-0.126,0.434,0.892,0.993,0.117,0.034,-0.077,0.402,0.912,0.162,0.825,0.542,0.978,-0.187,0.097,none
8.705757,0.021,0.775,0.632,0.755,0.472,-0.456,0.097,-0.923,-0.373,0.774,-0.388,0.5,0.157,0.783,0.602,0.817,-0.322,0.479,0.021,0.481,0.876,0.841,-0.216,0.496,-0.048,0.48,0.876,0.996,0.073,0.056,-0.048,0.471,0.881,0.179,0.853,0.49,0.977,-0.118,0.177,none
8.750438,-0.015,0.803,0.595,0.842,0.382,-0.382,0.097,-0.923,-0.373,0.751,-0.42,0.509,0.166,0.818,0.55,0.796,-0.354,0.491,0.046,0.554,0.831,0.826,-0.244,0.508,-0.028,0.564,0.825,0.997,0.047,0.068,-0.056,0.544,0.837,0.18,0.867,0.465,0.949,-0.168,0.265,none
8.789155,-0.022,0.808,0.589,0.755,0.293,-0.587,0.097,-0.923,-0.373,0.731,-0.425,0.534,0.109,0.914,0.392,0.77,-0.373,0.517,0.096,0.46,0.882,0.804,-0.27,0.53,-0.128,0.359,0.924,0.995,0.011,0.094,-0.181,0.311,0.933,0.207,0.883,0.421,0.994,-0.066,-0.088,none
8.833031,-0.019,0.816,0.578,0.882,0.165,0.441,0.097,-0.923,-0.373,0.72,-0.424,0.549,0.578,0.816,0.034,0.761,-0.375,0.529,0.482,0.52,0.705,0.8,-0.269,0.536,0.456,0.304,0.836,0.995,0.014,0.097,-0.1,0.597,0.796,0.205,0.884,0.421,0.815,0.445,-0.371,none
8.877273,0.018,0.798,0.602,0.314,-0.125,0.941,0.122,-0.938,-0.324,0.718,-0.415,0.559,0.766,0.287,-0.575,0.761,-0.371,0.532,1.0,-0.0,0.0,0.81,-0.259,0.525,0.596,-0.681,-0.426,0.996,0.027,0.081,-0.105,-0.527,-0.843,0.195,0.883,0.427,-0.471,0.529,-0.706,none
8.915822,0.019,0.794,0.608,-0.151,-0.252,0.956,0.122,-0.938,-0.324,0.723,-0.405,0.56,0.706,0.042,-0.706,0.771,-0.359,0.527,0.882,-0.0,-0.471,0.822,-0.252,0.511,0.634,-0.346,-0.692,0.998,0.039,0.058,0.124,-0.062,-0.99,0.172,0.882,0.438,-0.902,0.351,-0.251,none
8.960856,0.028,0.787,0.616,0.263,-0.473,0.841,0.123,-0.941,-0.316,0.731,-0.408,0.547,0.655,0.164,-0.737,0.777,-0.359,0.518,0.701,0.319,-0.638,0.829,-0.25,0.5,0.507,-0.169,-0.845,0.998,0.048,0.046,-0.059,0.059,-0.997,0.167,0.881,0.442,-0.925,0.243,-0.292,none
9.007407,0.028,0.791,0.611,0.873,-0.436,0.218,0.123,-0.941,-0.316,0.724,-0.404,0.559,0.646,0.503,-0.574,0.772,-0.357,0.527,0.53,0.848,-0.0,0.828,-0.248,0.503,0.351,0.0,-0.936,0.998,0.05,0.048,-0.577,0.115,-0.808,0.17,0.88,0.443,-0.808,0.162,-0.566,none
9.045496,0.027,0.802,0.597,0.885,0.442,-0.147,0.108,-0.946,-0.307,0.721,-0.403,0.564,0.566,0.793,-0.226,0.766,-0.359,0.533,0.1,0.796,0.597,0.822,-0.248,0.512,0.0,0.707,-0.707,0.997,0.046,0.059,-0.962,0.192,-0.192,0.18,0.881,0.438,-0.429,0.286,-0.857,none
9.090826,0.023,0.796,0.605,0.557,0.743,-0.371,0.104,-0.952,-0.288,0.724,-0.397,0.564,0.436,0.873,0.218,0.771,-0.352,0.531,-0.241,0.482,0.843,0.828,-0.246,0.504,-0.447,0.894,0.0,0.998,0.048,0.048,-0.937,0.312,0.156,0.166,0.882,0.441,-0.447,-0.0,-0.894,none
9.133505,0.022,0.796,0.604,0.557,0.743,-0.371,0.119,-0.944,-0.308,0.723,-0.397,0.566,0.254,0.889,-0.381,0.769,-0.355,0.532,-0.286,0.857,0.429,0.827,-0.248,0.504,-0.229,0.688,-0.688,0.998,0.045,0.049,-0.889,0.381,-0.254,0.169,0.884,0.437,-0.772,-0.154,-0.617,none
9.176985,0.023,0.806,0.592,0.557,0.743,-0.371,0.119,-0.944,-0.308,0.715,-0.401,0.573,0.424,0.707,-0.566,0.76,-0.362,0.54,-0.183,0.913,0.365,0.82,-0.252,0.513,-0.196,0.588,-0.784,0.998,0.039,0.057,-0.889,0.381,-0.254,0.179,0.884,0.432,-0.824,-0.137,-0.549,none
9.222654,0.014,0.809,0.587,-0.707,-0.0,0.707,0.119,-0.944,-0.308,0.717,-0.399,0.572,0.164,0.0,-0.986,0.762,-0.357,0.54,-0.816,0.408,-0.408,0.822,-0.248,0.513,-0.371,-0.0,-0.928,0.997,0.045,0.056,-0.919,-0.0,-0.394,0.177,0.882,0.437,-0.755,-0.108,-0.647,none
9.259894,0.027,0.802,0.597,-0.707,-0.0,0.707,0.137,-0.941,-0.31,0.715,-0.4,0.574,-0.316,-0.0,-0.949,0.761,-0.358,0.541,-0.981,0.0,-0.196,0.824,-0.247,0.51,-0.617,0.154,-0.772,0.998,0.046,0.052,-0.963,0.12,-0.241,0.176,0.883,0.435,-0.738,-0.422,-0.527,none
9.30829,0.027,0.803,0.595,0.667,0.333,-0.667,0.137,-0.941,-0.31,0.713,-0.396,0.578,-0.183,0.365,-0.913,0.759,-0.358,0.544,-0.688,0.688,0.229,0.822,-0.246,0.514,-0.333,0.667,-0.667,0.997,0.046,0.054,-0.862,0.492,-0.123,0.179,0.883,0.434,-0.857,-0.429,-0.286,none
9.343632,0.018,0.809,0.588,0.667,0.333,-0.667,0.119,-0.95,-0.29,0.715,-0.396,0.577,-0.0,0.6,-0.8,0.761,-0.357,0.542,-0.588,0.784,0.196,0.823,-0.246,0.512,-0.196,0.784,-0.588,0.997,0.047,0.054,-0.862,0.492,-0.123,0.177,0.883,0.436,-0.743,-0.557,-0.371,none
9.389769,0.026,0.806,0.591,0.949,-0.316,-0.0,0.119,-0.95,-0.29,0.712,-0.396,0.58,0.169,0.507,-0.845,0.756,-0.359,0.547,-0.436,0.873,0.218,0.818,-0.249,0.518,0.0,0.707,-0.707,0.997,0.042,0.063,-0.68,0.68,-0.272,0.188,0.883,0.43,-0.937,-0.156,-0.312,none
9.429041,0.023,0.809,0.588,0.949,-0.316,-0.0,0.105,-0.952,-0.286,0.715,-0.39,0.58,0.381,0.254,-0.889,0.758,-0.352,0.549,0.267,0.802,-0.535,0.822,-0.244,0.515,0.359,0.598,-0.717,0.997,0.045,0.058,-0.329,0.768,-0.549,0.182,0.881,0.436,-0.996,-0.0,0.091,none
9.473383,0.014,0.804,0.594,-0.154,-0.772,0.617,0.105,-0.952,-0.286,0.721,-0.382,0.578,-0.169,-0.226,-0.959,0.765,-0.338,0.547,-0.152,0.076,-0.986,0.828,-0.233,0.51,0.058,0.351,-0.935,0.997,0.058,0.053,-0.471,0.529,-0.706,0.174,0.875,0.451,-0.947,-0.247,0.206,none
9.512951,0.003,0.806,0.591,-0.186,-0.932,0.311,0.105,-0.952,-0.286,0.733,-0.356,0.58,-0.405,-0.387,-0.829,0.77,-0.309,0.558,-0.381,-0.04,-0.924,0.831,-0.219,0.512,-0.146,0.269,-0.952,0.996,0.065,0.053,-0.498,0.388,-0.775,0.171,0.868,0.467,-0.935,-0.286,0.21,none
9.556069,0.037,0.808,0.588,-0.452,-0.835,0.313,0.105,-0.952,-0.286,0.744,-0.371,0.555,-0.419,-0.436,-0.796,0.776,-0.327,0.54,-0.395,-0.154,-0.906,0.82,-0.227,0.526,-0.118,0.089,-0.989,0.995,0.055,0.079,-0.389,0.194,-0.901,0.207,0.864,0.459,-0.973,-0.185,0.136,none
9.601415,0.057,0.798,0.6,-0.586,-0.495,0.641,0.105,-0.952,-0.286,0.753,-0.349,0.558,-0.379,-0.489,-0.786,0.775,-0.294,0.559,-0.359,-0.244,-0.901,0.819,-0.201,0.538,0.068,-0.149,-0.987,0.992,0.079,0.097,-0.202,0.231,-0.952,0.238,0.836,0.495,-0.947,-0.191,0.258,none
9.639418,0.079,0.785,0.614,-0.506,-0.47,0.723,0.105,-0.952,-0.286,0.788,-0.31,0.531,-0.436,-0.485,-0.758,0.798,-0.251,0.548,-0.418,-0.209,-0.884,0.831,-0.179,0.527,0.21,-0.188,-0.96,0.99,0.1,0.101,-0.011,0.237,-0.971,0.253,0.813,0.525,-0.872,-0.285,0.399,none
9.682341,0.094,0.776,0.624,-0.511,-0.345,0.787,0.105,-0.952,-0.286,0.833,-0.295,0.469,-0.42,-0.42,-0.804,0.837,-0.221,0.5,-0.356,-0.143,-0.924,0.838,-0.137,0.528,0.256,-0.256,-0.932,0.984,0.143,0.111,0.162,0.171,-0.972,0.289,0.774,0.563,-0.888,-0.149,0.435,none
9.729145,0.119,0.766,0.631,-0.492,-0.319,0.81,0.013,-0.939,-0.344,0.862,-0.223,0.455,-0.536,-0.383,-0.753,0.842,-0.112,0.528,-0.417,-0.08,-0.905,0.839,-0.016,0.544,-0.063,-0.271,-0.96,0.954,0.261,0.15,0.009,-0.053,-0.999,0.391,0.712,0.583,-0.839,0.055,0.541,none
9.771471,0.158,0.743,0.651,-0.452,0.012,0.892,0.013,-0.939,-0.344,0.911,-0.261,0.32,-0.564,-0.414,-0.714,0.896,-0.166,0.411,-0.367,-0.091,-0.926,0.868,-0.086,0.489,-0.07,-0.329,-0.942,0.97,0.215,0.111,-0.231,-0.279,-0.932,0.378,0.667,0.642,-0.764,0.179,0.62,none
9.816067,0.16,0.727,0.668,-0.512,-0.056,0.857,-0.044,-0.914,-0.402,0.922,-0.156,0.354,-0.575,-0.397,-0.715,0.875,-0.006,0.484,-0.337,-0.096,-0.937,0.864,0.088,0.495,-0.272,-0.341,-0.9,0.914,0.386,0.127,-0.498,-0.341,-0.797,0.37,0.567,0.736,-0.736,0.288,0.612,none
9.861888,0.224,0.679,0.699,-0.508,-0.039,0.86,-0.085,-0.889,-0.449,0.955,-0.169,0.246,-0.625,-0.347,-0.699,0.92,-0.029,0.391,-0.338,-0.034,-0.94,0.911,0.036,0.411,-0.276,-0.306,-0.911,0.939,0.342,0.037,-0.486,-0.255,-0.836,0.327,0.437,0.838,-0.719,0.311,0.621,none
9.899547,0.226,0.687,0.69,-0.452,-0.0,0.892,-0.109,-0.891,-0.44,0.958,-0.093,0.271,-0.659,-0.362,-0.659,0.895,0.091,0.437,-0.357,-0.097,-0.929,0.909,0.152,0.388,-0.423,-0.311,-0.851,0.891,0.453,0.034,-0.608,-0.261,-0.75,0.321,0.355,0.878,-0.751,0.264,0.606,none
9.946176,0.245,0.64,0.728,-0.27,-0.193,0.944,-0.143,-0.899,-0.414,0.977,-0.12,0.179,-0.57,-0.267,-0.777,0.93,0.059,0.363,-0.247,0.031,-0.968,0.94,0.095,0.326,-0.355,-0.318,-0.879,0.91,0.414,-0.018,-0.562,-0.19,-0.805,0.265,0.22,0.939,-0.867,0.13,0.481,none
9.982774,0.256,0.667,0.699,-0.27,-0.193,0.944,-0.143,-0.899,-0.414,0.979,-0.081,0.188,-0.082,-0.148,-0.986,0.918,0.1,0.385,0.117,0.044,-0.992,0.937,0.126,0.326,-0.041,-0.413,-0.91,0.898,0.441,-0.005,-0.304,-0.225,-0.926,0.353,0.159,0.922,-0.874,0.154,0.461,none
10.024961,0.303,0.615,0.728,-0.6,-0.412,0.686,-0.192,-0.86,-0.473,0.986,-0.125,0.113,0.83,-0.0,-0.558,0.948,0.042,0.316,0.941,-0.066,-0.331,0.949,0.079,0.304,0.809,-0.534,-0.244,0.912,0.41,-0.025,0.796,-0.212,-0.566,0.213,0.082,0.974,-0.913,0.072,0.401,none
10.069048,0.355,0.519,0.778,0.111,-0.859,0.499,-0.192,-0.86,-0.473,0.992,-0.126,0.032,0.995,-0.094,0.033,0.977,0.025,0.211,0.914,-0.193,0.358,0.982,-0.009,0.186,0.83,-0.237,0.505,0.933,0.32,-0.166,0.957,-0.016,0.29,0.215,-0.174,0.961,-0.98,-0.076,0.185,none
10.114776,0.454,0.543,0.707,-0.389,-0.583,-0.713,-0.21,-0.874,-0.439,0.981,0.0,0.193,0.97,-0.183,0.158,0.92,0.188,0.344,0.842,-0.251,0.478,0.932,0.218,0.289,0.696,-0.224,0.682,0.848,0.529,-0.034,0.881,0.027,0.473,0.173,-0.36,0.917,-0.954,-0.271,0.127,none
10.15361,0.295,0.691,0.66,0.233,0.688,-0.688,-0.189,-0.87,-0.455,0.95,-0.011,0.312,0.86,-0.239,0.451,0.899,0.172,0.402,0.652,-0.33,0.683,0.929,0.237,0.282,0.492,-0.213,0.844,0.819,0.57,-0.057,0.754,0.051,0.655,-0.01,-0.711,0.703,-0.72,-0.569,-0.397,none
10.197734,0.347,0.595,0.725,0.435,0.72,-0.541,-0.204,-0.878,-0.434,0.976,-0.025,0.215,0.534,-0.183,0.825,0.947,0.124,0.295,0.352,-0.35,0.868,0.967,0.087,0.239,0.085,-0.085,0.993,0.903,0.416,-0.103,0.503,0.044,0.863,0.668,-0.472,0.575,-0.374,-0.781,-0.501,none
10.243471,0.105,0.695,0.711,0.378,0.854,-0.358,-0.06,-0.918,-0.392,0.96,-0.179,0.214,0.255,-0.226,0.94,0.959,-0.033,0.281,0.195,-0.422,0.885,0.958,-0.133,0.254,-0.027,-0.181,0.983,0.975,0.196,-0.108,0.342,0.045,0.939,0.676,-0.393,0.623,-0.032,-0.791,-0.611,none
10.280637,0.061,0.732,0.679,0.378,0.854,-0.358,-0.034,-0.905,-0.425,0.954,-0.265,0.141,0.176,-0.218,0.96,0.972,-0.156,0.175,0.145,-0.388,0.91,0.934,-0.295,0.203,-0.024,-0.153,0.988,0.992,0.052,-0.118,0.25,0.157,0.955,0.763,-0.199,0.615,0.259,-0.692,-0.674,none
10.325067,-0.03,0.73,0.683,0.281,0.745,-0.605,0.022,-0.929,-0.369,0.93,-0.335,0.15,0.023,-0.257,0.966,0.958,-0.235,0.162,0.057,-0.446,0.893,0.912,-0.366,0.185,-0.128,-0.209,0.97,0.993,-0.004,-0.121,0.117,0.033,0.993,0.687,-0.152,0.711,0.151,-0.604,-0.782,none
10.362395,-0.008,0.728,0.686,0.281,0.745,-0.605,0.022,-0.929,-0.369,0.923,-0.37,0.105,-0.055,-0.055,0.997,0.956,-0.27,0.111,-0.046,-0.309,0.95,0.904,-0.399,0.155,-0.208,-0.049,0.977,0.991,-0.022,-0.135,-0.085,0.198,0.976,0.729,-0.198,0.656,-0.054,-0.51,-0.859,none
10.402758,0.025,0.741,0.672,0.162,0.162,-0.973,0.056,-0.926,-0.373,0.912,-0.393,0.119,-0.282,-0.257,0.924,0.945,-0.306,0.116,-0.189,-0.491,0.85,0.892,-0.418,0.169,-0.373,-0.216,0.902,0.993,-0.036,-0.114,-0.259,-0.047,0.965,0.712,-0.201,0.673,-0.313,-0.339,-0.887,none
10.444798,0.014,0.736,0.677,-0.365,-0.913,-0.183,0.056,-0.926,-0.373,0.9,-0.422,0.106,-0.58,-0.258,0.773,0.938,-0.335,0.091,-0.308,-0.501,0.809,0.882,-0.446,0.154,-0.511,-0.236,0.826,0.991,-0.059,-0.124,-0.534,-0.0,0.845,0.73,-0.211,0.65,-0.695,-0.183,-0.695,none
10.489389,0.003,0.752,0.66,-0.557,0.371,-0.743,0.056,-0.926,-0.373,0.886,-0.449,0.118,-0.503,-0.574,0.646,0.926,-0.363,0.105,-0.155,-0.659,0.736,0.87,-0.465,0.167,-0.437,-0.437,0.786,0.991,-0.077,-0.112,-0.355,-0.203,0.913,0.723,-0.217,0.656,-0.733,0.133,-0.667,none
10.528579,-0.01,0.739,0.674,-0.426,0.64,-0.64,0.046,-0.922,-0.384,0.884,-0.453,0.115,-0.14,0.14,0.98,0.925,-0.37,0.092,0.054,-0.38,0.923,0.868,-0.472,0.154,-0.269,-0.202,0.942,0.989,-0.084,-0.12,-0.325,0.26,0.909,0.719,-0.214,0.661,-0.662,-0.147,-0.735,none
10.573189,0.007,0.742,0.671,0.505,0.808,-0.303,0.046,-0.922,-0.384,0.887,-0.45,0.108,0.527,0.105,0.843,0.927,-0.366,0.085,0.376,-0.376,0.847,0.869,-0.472,0.147,0.19,-0.253,0.949,0.989,-0.081,-0.123,0.0,0.359,0.933,0.72,-0.214,0.66,-0.156,-0.312,-0.937,none
10.61879,0.003,0.726,0.687,0.477,0.858,-0.191,0.063,-0.931,-0.359,0.894,-0.437,0.103,0.62,0.744,-0.248,0.932,-0.353,0.078,0.581,-0.0,0.814,0.876,-0.464,0.134,0.707,0.0,0.707,0.988,-0.073,-0.137,-0.535,0.802,0.267,0.704,-0.215,0.677,-0.862,0.123,-0.492,none
10.656254,0.011,0.739,0.674,0.0,-0.981,0.196,0.063,-0.931,-0.359,0.891,-0.442,0.104,0.111,0.444,-0.889,0.929,-0.363,0.077,-0.0,0.0,1.0,0.872,-0.47,0.139,-0.236,-0.236,-0.943,0.989,-0.076,-0.128,-0.943,0.236,-0.236,0.715,-0.216,0.665,-0.898,0.408,-0.163,none
10.702098,0.003,0.742,0.671,-0.598,-0.717,0.359,0.038,-0.927,-0.374,0.888,-0.444,0.119,-0.067,0.336,-0.94,0.926,-0.366,0.09,-0.348,0.348,-0.87,0.87,-0.471,0.145,-0.286,-0.095,-0.953,0.989,-0.077,-0.124,-0.778,0.078,-0.623,0.713,-0.214,0.668,-0.916,0.401,0.0,none
10.741734,0.015,0.742,0.67,-0.598,-0.717,0.359,0.062,-0.921,-0.385,0.887,-0.446,0.12,-0.193,0.386,-0.902,0.926,-0.366,0.095,-0.539,0.539,-0.647,0.871,-0.468,0.149,-0.312,0.156,-0.937,0.99,-0.071,-0.12,-0.824,0.137,-0.549,0.714,-0.23,0.661,-0.943,0.333,0.0,none
10.782346,0.028,0.741,0.671,-0.236,-0.943,0.236,0.064,-0.931,-0.359,0.888,-0.444,0.122,-0.348,0.348,-0.87,0.926,-0.366,0.093,-0.816,0.408,-0.408,0.872,-0.467,0.146,-0.398,0.199,-0.896,0.99,-0.07,-0.123,-0.884,0.241,-0.402,0.712,-0.237,0.661,-0.885,0.442,-0.147,none
10.819592,0.019,0.734,0.679,-0.236,-0.943,0.236,0.055,-0.916,-0.398,0.89,-0.44,0.118,-0.426,0.64,-0.64,0.928,-0.362,0.088,-0.808,0.577,0.115,0.875,-0.464,0.141,-0.539,0.539,-0.647,0.99,-0.065,-0.129,-0.937,0.312,-0.156,0.702,-0.233,0.673,-0.91,0.248,-0.331,none
10.862555,0.019,0.742,0.671,0.557,-0.743,-0.371,0.055,-0.916,-0.398,0.891,-0.437,0.126,-0.426,0.681,-0.596,0.927,-0.362,0.097,-0.753,0.659,-0.0,0.873,-0.464,0.149,-0.451,0.631,-0.631,0.99,-0.068,-0.12,-0.889,0.41,-0.205,0.713,-0.227,0.664,-0.912,0.211,-0.351,none
10.904442,0.027,0.747,0.664,0.447,-0.894,0.0,0.046,-0.923,-0.382,0.887,-0.442,0.131,-0.087,0.786,-0.612,0.924,-0.368,0.102,-0.404,0.909,-0.101,0.871,-0.466,0.156,-0.094,0.749,-0.656,0.991,-0.071,-0.111,-0.725,0.645,-0.242,0.72,-0.225,0.656,-0.936,0.085,-0.341,none
10.949799,0.031,0.744,0.668,0.169,-0.845,0.507,0.064,-0.913,-0.402,0.889,-0.439,0.131,0.083,0.662,-0.745,0.926,-0.362,0.103,-0.236,0.943,-0.236,0.873,-0.462,0.155,0.092,0.552,-0.829,0.992,-0.063,-0.113,-0.573,0.655,-0.492,0.716,-0.233,0.658,-0.953,0.286,-0.095,none
10.989183,0.027,0.742,0.67,0.371,-0.743,0.557,0.047,-0.932,-0.359,0.89,-0.436,0.13,0.196,0.588,-0.784,0.927,-0.361,0.102,-0.14,0.98,-0.14,0.875,-0.459,0.153,0.115,0.577,-0.808,0.992,-0.059,-0.115,-0.597,0.697,-0.398,0.711,-0.235,0.663,-1.0,0.0,-0.0,none
11.033982,0.031,0.74,0.672,0.832,-0.555,0.0,0.047,-0.925,-0.377,0.89,-0.437,0.129,0.14,0.7,-0.7,0.926,-0.363,0.1,-0.312,0.937,0.156,0.873,-0.462,0.153,0.0,0.707,-0.707,0.991,-0.062,-0.114,-0.647,0.755,-0.108,0.714,-0.233,0.66,-0.97,0.0,-0.243,none
11.073401,0.023,0.748,0.664,0.949,0.0,-0.316,0.047,-0.925,-0.377,0.889,-0.437,0.137,0.154,0.772,-0.617,0.925,-0.365,0.105,-0.302,0.905,0.302,0.873,-0.461,0.157,0.154,0.772,-0.617,0.992,-0.064,-0.113,-0.651,0.759,-0.0,0.717,-0.229,0.658,-0.953,-0.136,-0.272,none
11.120499,0.024,0.745,0.667,1.0,0.0,-0.0,0.055,-0.935,-0.352,0.89,-0.436,0.132,0.298,0.745,-0.596,0.927,-0.361,0.102,-0.147,0.885,0.442,0.875,-0.459,0.153,0.169,0.845,-0.507,0.991,-0.06,-0.116,-0.581,0.814,-0.0,0.715,-0.23,0.661,-0.937,0.156,-0.312,none
11.157545,0.02,0.741,0.671,0.816,-0.408,-0.408,0.055,-0.935,-0.352,0.892,-0.431,0.135,0.0,0.707,-0.707,0.929,-0.356,0.103,-0.391,0.911,0.13,0.877,-0.456,0.151,-0.0,0.707,-0.707,0.991,-0.057,-0.12,-0.74,0.647,-0.185,0.702,-0.224,0.676,-0.943,0.105,-0.314,none
11.200878,0.015,0.741,0.671,0.496,-0.868,-0.0,0.055,-0.935,-0.352,0.898,-0.418,0.137,-0.14,0.7,-0.7,0.933,-0.345,0.106,-0.364,0.833,-0.416,0.88,-0.451,0.149,-0.182,0.545,-0.818,0.991,-0.054,-0.121,-0.685,0.471,-0.556,0.708,-0.195,0.679,-0.994,-0.05,-0.099,none
11.242101,-0.008,0.746,0.665,0.496,-0.868,-0.0,0.03,-0.927,-0.373,0.905,-0.391,0.166,-0.096,0.514,-0.852,0.935,-0.327,0.135,-0.165,0.61,-0.775,0.879,-0.447,0.165,-0.06,0.342,-0.938,0.993,-0.061,-0.104,-0.464,0.285,-0.839,0.707,-0.123,0.696,-0.955,0.1,0.279,none
11.286572,0.03,0.748,0.663,0.044,-0.784,0.619,0.004,-0.948,-0.317,0.931,-0.31,0.192,-0.044,0.455,-0.89,0.956,-0.239,0.173,-0.066,0.572,-0.818,0.91,-0.378,0.172,0.036,0.29,-0.956,0.995,0.005,-0.103,-0.329,0.319,-0.889,0.692,-0.136,0.709,-0.941,0.168,0.295,none
11.326278,0.134,0.736,0.663,0.044,-0.784,0.619,-0.02,-0.937,-0.349,0.946,-0.292,0.143,-0.242,0.345,-0.907,0.963,-0.223,0.148,-0.207,0.501,-0.84,0.928,-0.331,0.172,-0.093,0.26,-0.961,0.994,0.06,-0.089,-0.419,0.206,-0.884,0.72,-0.249,0.647,-0.924,0.292,0.247,none
11.367084,0.255,0.737,0.626,-0.147,-0.867,0.476,-0.02,-0.937,-0.349,0.93,-0.274,0.243,-0.116,0.371,-0.921,0.939,-0.221,0.264,-0.067,0.523,-0.85,0.919,-0.277,0.281,0.03,0.245,-0.969,0.994,0.105,0.025,-0.293,0.214,-0.932,0.754,-0.327,0.57,-0.864,0.268,0.427,none
11.409582,0.263,0.751,0.606,-0.168,-0.722,0.671,-0.136,-0.918,-0.371,0.952,-0.181,0.245,-0.028,0.291,-0.956,0.948,-0.11,0.299,0.031,0.417,-0.908,0.943,-0.156,0.294,0.07,0.125,-0.99,0.973,0.229,0.034,-0.187,0.03,-0.982,0.72,-0.426,0.547,-0.794,0.304,0.526,none
11.452534,0.348,0.714,0.607,-0.28,-0.682,0.676,-0.251,-0.9,-0.357,0.945,-0.092,0.315,0.113,0.288,-0.951,0.928,-0.008,0.372,0.173,0.406,-0.898,0.95,-0.037,0.309,0.184,0.099,-0.978,0.941,0.338,0.029,-0.097,0.083,-0.992,0.617,-0.537,0.576,-0.763,0.256,0.594,none
11.496969,0.433,0.672,0.601,-0.176,-0.662,0.729,-0.274,-0.888,-0.369,0.954,0.023,0.299,0.11,0.241,-0.964,0.924,0.113,0.365,0.178,0.361,-0.915,0.96,0.084,0.269,0.178,0.052,-0.983,0.891,0.453,-0.009,-0.096,0.04,-0.995,0.551,-0.619,0.56,-0.774,0.26,0.577,none
11.543777,0.529,0.597,0.603,-0.201,-0.667,0.717,-0.385,-0.86,-0.334,0.933,0.127,0.338,0.131,0.308,-0.942,0.883,0.234,0.407,0.192,0.423,-0.886,0.941,0.21,0.264,0.204,0.112,-0.973,0.828,0.561,-0.013,-0.108,0.122,-0.987,0.454,-0.73,0.511,-0.8,0.18,0.572,none
11.582302,0.569,0.571,0.591,-0.056,-0.717,0.695,-0.41,-0.843,-0.35,0.913,0.201,0.355,-0.016,0.314,-0.949,0.848,0.306,0.432,0.047,0.487,-0.872,0.921,0.285,0.264,0.141,0.22,-0.965,0.787,0.616,-0.007,-0.193,0.211,-0.958,0.439,-0.753,0.491,-0.88,0.107,0.462,none
11.626325,0.614,0.546,0.57,0.409,-0.753,0.516,-0.41,-0.843,-0.35,0.884,0.275,0.378,-0.356,0.27,-0.895,0.796,0.39,0.464,-0.266,0.541,-0.798,0.884,0.379,0.275,-0.039,0.427,-0.903,0.727,0.687,0.012,-0.432,0.358,-0.828,0.425,-0.812,0.4,-0.955,0.11,0.275,none
11.664795,0.604,0.565,0.562,0.45,-0.771,-0.45,-0.41,-0.843,-0.35,0.868,0.326,0.376,-0.844,-0.115,-0.524,0.761,0.444,0.473,-0.742,0.239,-0.626,0.862,0.421,0.284,-0.643,0.35,-0.681,0.699,0.714,0.034,-0.954,0.059,-0.294,0.433,-0.816,0.382,-0.526,0.85,0.0,none
11.709552,0.608,0.568,0.555,0.515,0.196,-0.834,-0.437,-0.854,-0.282,0.832,0.304,0.464,-0.958,-0.245,-0.152,0.674,0.45,0.586,-0.937,-0.038,-0.348,0.762,0.486,0.428,-0.938,0.142,-0.316,0.61,0.765,0.207,-0.988,-0.144,0.062,0.328,-0.83,0.452,0.463,0.244,-0.852,none
11.752427,0.603,0.578,0.55,0.447,0.377,-0.811,-0.414,-0.859,-0.302,0.666,0.418,0.618,-0.947,-0.32,0.009,0.402,0.598,0.693,-0.95,-0.222,-0.222,0.521,0.69,0.503,-0.947,0.09,-0.309,0.381,0.864,0.33,-0.992,-0.124,-0.005,0.404,-0.819,0.407,0.64,-0.325,-0.697,none
11.79682,0.569,0.642,0.514,0.47,0.582,-0.664,-0.375,-0.884,-0.279,0.392,0.522,0.758,-0.904,-0.397,0.156,0.028,0.742,0.669,-0.93,-0.217,-0.296,0.103,0.84,0.532,-0.931,-0.035,-0.363,0.031,0.862,0.505,-0.965,-0.116,-0.235,0.431,-0.735,0.524,0.67,-0.604,-0.431,none
11.840114,0.563,0.671,0.482,0.495,0.629,-0.599,-0.262,-0.943,-0.206,-0.206,0.978,0.044,-0.877,-0.438,0.197,0.18,0.978,0.102,-0.764,-0.06,-0.642,0.285,0.958,-0.02,-0.783,-0.076,-0.617,0.121,0.988,0.094,-0.801,-0.114,-0.587,0.628,-0.757,0.182,0.659,-0.692,-0.295,none
11.87726,0.203,0.854,0.479,0.455,0.783,-0.424,-0.262,-0.943,-0.206,0.658,-0.199,-0.727,-0.9,-0.419,-0.122,0.915,0.354,-0.192,-0.636,-0.031,-0.771,0.83,0.424,-0.363,-0.779,0.041,-0.626,0.876,0.45,-0.176,-0.834,-0.099,-0.542,0.785,-0.257,0.563,0.756,-0.616,-0.223,none
11.916972,0.12,0.866,0.486,0.591,0.734,-0.335,-0.099,-0.985,-0.142,0.887,0.108,-0.449,-0.912,-0.262,-0.316,0.89,0.423,0.169,-0.542,0.236,-0.806,0.963,0.265,-0.052,-0.683,0.172,-0.71,0.846,0.533,-0.008,-0.842,-0.112,-0.528,0.756,-0.257,0.602,0.711,-0.666,-0.226,none
11.962113,-0.099,0.846,0.524,0.689,0.551,-0.47,-0.034,-0.996,-0.077,0.93,0.224,-0.292,-0.929,-0.284,-0.239,0.7,0.491,0.519,-0.235,0.214,-0.948,0.873,0.298,0.387,-0.361,0.137,-0.922,0.654,0.548,0.522,-0.594,-0.265,-0.76,0.683,-0.248,0.687,0.413,-0.703,-0.579,none
12.006407,-0.03,0.936,0.351,0.751,-0.054,-0.658,-0.034,-0.996,-0.077,0.923,0.195,-0.331,-0.709,-0.682,0.18,0.56,0.544,0.625,0.027,-0.479,-0.878,0.715,0.408,0.567,-0.138,-0.225,-0.965,0.713,0.43,0.554,-0.226,-0.436,-0.871,0.843,-0.2,0.499,-0.006,-0.642,-0.767,none
12.045571,-0.036,0.958,0.283,0.4,0.136,-0.906,0.052,-0.999,-0.016,0.927,0.224,-0.3,-0.749,-0.638,0.178,0.601,0.468,0.647,0.22,-0.188,-0.957,0.771,0.312,0.555,0.065,-0.09,-0.994,0.778,0.341,0.528,0.016,-0.268,-0.963,0.957,-0.103,0.271,0.055,-0.394,-0.917,none
12.089694,-0.039,0.966,0.257,-0.306,0.249,-0.919,0.052,-0.999,-0.016,0.907,0.078,-0.414,-0.813,-0.515,0.271,0.657,0.418,0.627,0.225,0.15,-0.963,0.775,0.291,0.562,0.142,0.18,-0.973,0.689,0.391,0.611,0.091,-0.009,-0.996,0.886,-0.112,0.449,-0.018,-0.182,-0.983,none
12.129072,-0.053,0.94,0.337,0.613,0.058,-0.788,0.094,-0.994,0.054,0.941,0.155,-0.301,-0.538,-0.576,0.615,0.513,0.501,0.697,-0.221,-0.088,-0.971,0.652,0.387,0.652,0.05,-0.025,-0.998,0.628,0.403,0.666,0.066,-0.263,-0.963,0.9,-0.164,0.403,-0.449,-0.29,-0.845,none
12.17534,0.01,0.946,0.325,-0.766,-0.599,0.233,0.101,-0.995,0.018,0.952,0.161,-0.259,-0.729,0.138,0.67,0.477,0.497,0.725,-0.432,0.617,-0.658,0.619,0.388,0.683,-0.267,0.606,-0.749,0.592,0.403,0.698,-0.401,0.602,-0.691,0.901,-0.205,0.384,-0.475,0.851,-0.225,none
12.212898,-0.02,0.933,0.36,-0.729,-0.518,0.447,0.101,-0.995,0.02,0.927,0.114,-0.357,-0.866,0.251,0.433,0.505,0.504,0.7,-0.489,0.638,-0.595,0.63,0.394,0.669,-0.4,0.711,-0.578,0.601,0.39,0.698,-0.548,0.786,-0.286,0.857,-0.238,0.458,-0.278,0.961,0.0,none
12.256822,-0.03,0.94,0.341,-0.286,-0.953,0.095,0.101,-0.995,0.001,0.932,0.161,-0.323,-0.992,-0.128,0.0,0.481,0.534,0.695,-0.183,0.488,-0.854,0.611,0.433,0.663,-0.274,0.43,-0.86,0.567,0.438,0.698,-0.495,0.867,-0.062,0.846,-0.214,0.488,-0.204,0.865,-0.458,none
12.299422,-0.059,0.943,0.327,0.089,-0.445,-0.891,0.085,-0.996,0.01,0.92,0.2,-0.337,-0.988,-0.099,-0.119,0.513,0.534,0.672,0.233,0.388,-0.892,0.625,0.437,0.647,0.208,-0.416,-0.885,0.559,0.456,0.693,0.302,-0.302,-0.905,0.855,-0.197,0.48,0.201,0.322,-0.925,none
12.338288,-0.029,0.945,0.327,0.67,0.035,-0.741,0.085,-0.996,0.01,0.933,0.16,-0.323,-0.924,-0.271,-0.271,0.496,0.52,0.696,0.406,-0.862,-0.304,0.619,0.421,0.663,0.293,-0.953,-0.073,0.575,0.433,0.695,0.141,-0.987,0.071,0.856,-0.172,0.487,0.111,-0.369,-0.923,none
12.384947,-0.023,0.949,0.315,0.77,-0.105,-0.63,0.124,-0.991,0.052,0.935,0.157,-0.317,-0.809,-0.416,-0.416,0.488,0.517,0.703,0.406,-0.914,-0.0,0.629,0.414,0.658,0.35,-0.92,0.175,0.591,0.418,0.69,0.261,-0.458,0.85,0.875,-0.186,0.448,0.126,-0.46,-0.879,none
12.423881,-0.031,0.952,0.303,0.727,0.091,-0.681,0.101,-0.994,0.044,0.937,0.136,-0.323,-0.497,-0.597,-0.63,0.487,0.512,0.708,0.294,-0.882,0.368,0.616,0.424,0.664,0.372,-0.904,0.213,0.569,0.437,0.697,0.152,-0.38,0.912,0.877,-0.16,0.453,-0.096,-0.574,-0.813,none
12.466398,-0.041,0.95,0.311,0.923,-0.0,-0.385,0.1,-0.995,0.018,0.936,0.196,-0.292,-0.437,-0.499,-0.749,0.465,0.534,0.706,-0.426,-0.64,0.64,0.614,0.431,0.661,0.123,-0.985,0.123,0.573,0.434,0.695,-0.549,0.329,0.768,0.884,-0.162,0.439,-0.549,-0.137,-0.824,none
12.508811,-0.035,0.951,0.306,-0.492,-0.862,-0.123,0.1,-0.994,0.044,0.932,0.196,-0.306,-0.796,-0.239,-0.557,0.478,0.529,0.702,-0.597,0.796,-0.1,0.625,0.426,0.654,-0.64,0.64,-0.426,0.604,0.411,0.683,-0.551,0.702,0.451,0.89,-0.169,0.423,-0.711,0.497,-0.497,none
12.55453,-0.044,0.953,0.298,-0.924,-0.355,0.142,0.113,-0.994,-0.007,0.924,0.202,-0.325,-0.732,-0.305,-0.61,0.481,0.534,0.696,-0.337,0.842,-0.421,0.633,0.427,0.646,-0.218,0.653,-0.725,0.587,0.424,0.69,-0.491,0.836,0.246,0.88,-0.162,0.447,-0.608,0.76,-0.228,none
12.593722,-0.036,0.945,0.324,-0.894,0.0,0.447,0.113,-0.994,-0.007,0.923,0.184,-0.338,-0.733,-0.244,-0.635,0.497,0.522,0.694,-0.318,0.848,-0.424,0.635,0.421,0.647,-0.0,0.659,-0.753,0.578,0.424,0.697,-0.499,0.855,0.142,0.88,-0.177,0.441,-0.436,0.873,-0.218,none
12.639511,-0.041,0.949,0.314,-0.365,0.913,-0.183,0.143,-0.99,-0.007,0.921,0.207,-0.331,-0.198,-0.33,-0.923,0.475,0.538,0.697,-0.0,0.981,0.196,0.624,0.435,0.649,0.555,0.0,-0.832,0.575,0.428,0.697,-0.625,0.625,0.469,0.865,-0.164,0.474,0.316,0.0,-0.949,none
12.677459,-0.044,0.946,0.321,0.566,0.424,-0.707,0.143,-0.99,-0.007,0.925,0.228,-0.304,-0.543,-0.302,-0.784,0.464,0.544,0.699,0.0,0.707,-0.707,0.624,0.433,0.65,0.408,-0.408,-0.816,0.576,0.427,0.697,-0.824,0.549,0.137,0.876,-0.156,0.457,-0.267,-0.535,-0.802,none
12.720249,-0.047,0.948,0.316,0.0,0.949,-0.316,0.143,-0.99,-0.007,0.916,0.207,-0.344,-0.662,-0.117,-0.74,0.478,0.536,0.696,0.236,-0.236,-0.943,0.618,0.442,0.65,0.442,-0.147,-0.885,0.576,0.424,0.699,-0.619,0.722,0.309,0.877,-0.161,0.452,0.447,0.0,-0.894,none
12.763555,-0.047,0.948,0.316,0.447,0.894,-0.0,0.124,-0.992,0.028,0.918,0.215,-0.332,-0.226,-0.169,-0.959,0.48,0.537,0.694,0.408,0.816,0.408,0.63,0.433,0.644,0.97,0.243,-0.0,0.574,0.425,0.7,-0.315,0.63,0.709,0.875,-0.158,0.457,0.905,0.302,-0.302,none
12.807709,-0.058,0.946,0.318,0.581,0.814,0.0,0.103,-0.994,0.045,0.918,0.247,-0.311,0.222,-0.148,-0.964,0.447,0.561,0.697,-0.0,0.707,0.707,0.604,0.46,0.651,0.905,0.302,-0.302,0.558,0.436,0.706,-0.384,0.512,0.768,0.876,-0.154,0.456,0.728,0.485,-0.485,none
12.847055,-0.052,0.945,0.322,0.0,0.949,-0.316,0.118,-0.993,0.02,0.913,0.234,-0.334,0.406,0.0,-0.914,0.479,0.54,0.692,-0.267,0.802,0.535,0.633,0.434,0.641,0.667,0.333,0.667,0.585,0.415,0.697,-0.426,0.64,0.64,0.872,-0.154,0.464,0.229,0.688,-0.688,none
12.89213,-0.044,0.949,0.312,0.0,0.99,-0.141,0.117,-0.993,0.027,0.909,0.24,-0.341,0.6,0.18,-0.78,0.473,0.55,0.688,0.391,0.651,0.651,0.619,0.452,0.642,0.684,0.57,0.456,0.568,0.431,0.701,-0.064,0.639,0.767,0.872,-0.148,0.466,0.768,0.384,-0.512,none
12.930874,-0.059,0.944,0.324,-0.196,0.784,-0.588,0.138,-0.99,0.0,0.914,0.252,-0.318,0.442,0.147,-0.885,0.455,0.557,0.694,0.686,0.514,0.514,0.607,0.456,0.65,0.762,0.635,0.127,0.554,0.437,0.709,-0.088,0.704,0.704,0.869,-0.14,0.475,0.218,0.436,-0.873,none
12.973323,-0.055,0.944,0.324,-0.196,0.784,-0.588,0.13,-0.99,0.059,0.912,0.251,-0.324,0.259,0.173,-0.95,0.453,0.557,0.696,0.316,0.949,0.0,0.607,0.456,0.651,0.324,0.811,-0.487,0.558,0.431,0.709,-0.324,0.811,0.487,0.869,-0.148,0.472,-0.0,0.707,-0.707,none
13.01739,-0.051,0.946,0.32,0.0,-0.0,-1.0,0.11,-0.994,0.01,0.912,0.254,-0.323,0.287,0.0,-0.958,0.453,0.561,0.693,0.707,0.707,-0.0,0.601,0.465,0.65,0.169,0.507,-0.845,0.543,0.442,0.714,-0.485,0.728,0.485,0.866,-0.139,0.481,-0.457,0.457,-0.762,none
13.064269,-0.052,0.947,0.317,-0.535,-0.267,-0.802,0.125,-0.991,0.052,0.909,0.257,-0.329,-0.351,0.0,-0.936,0.455,0.564,0.69,0.0,0.243,-0.97,0.611,0.458,0.646,-0.0,0.243,-0.97,0.561,0.43,0.708,-0.617,0.772,-0.154,0.87,-0.142,0.473,-0.667,0.333,-0.667,none
13.101891,-0.052,0.95,0.309,0.0,-0.316,-0.949,0.125,-0.991,0.052,0.907,0.244,-0.343,-0.348,-0.348,-0.87,0.476,0.554,0.684,-0.0,-0.949,-0.316,0.616,0.455,0.643,-0.164,-0.0,-0.986,0.574,0.424,0.701,-1.0,0.0,-0.0,0.876,-0.139,0.462,-0.7,-0.14,-0.7,none
13.147627,-0.059,0.95,0.307,0.0,0.447,-0.894,0.125,-0.991,0.052,0.907,0.245,-0.343,-0.376,-0.376,-0.847,0.473,0.554,0.685,-0.0,-0.894,-0.447,0.623,0.448,0.641,-0.286,0.095,-0.953,0.578,0.42,0.699,-0.937,0.312,-0.156,0.876,-0.136,0.463,-0.802,0.267,-0.535,none
13.187113,-0.047,0.95,0.309,0.577,0.577,-0.577,0.103,-0.994,0.028,0.902,0.272,-0.335,-0.276,-0.345,-0.897,0.474,0.557,0.681,0.196,-0.981,0.0,0.623,0.449,0.641,0.0,-0.0,-1.0,0.581,0.416,0.7,-0.87,0.348,0.348,0.878,-0.141,0.458,0.0,-1.0,0.0,none
13.231981,-0.055,0.949,0.312,0.482,0.843,-0.241,0.112,-0.994,0.019,0.909,0.247,-0.336,-0.275,-0.22,-0.936,0.467,0.557,0.687,0.302,-0.905,-0.302,0.615,0.453,0.645,-0.147,0.442,-0.885,0.571,0.421,0.705,-0.716,0.537,0.447,0.876,-0.138,0.463,0.688,-0.688,0.229,none
13.271917,-0.056,0.95,0.306,0.707,0.707,0.0,0.135,-0.991,0.019,0.907,0.26,-0.33,0.082,-0.164,-0.983,0.472,0.557,0.683,-0.894,-0.0,0.447,0.619,0.449,0.644,-0.192,0.962,-0.192,0.577,0.414,0.704,-0.593,0.659,0.462,0.877,-0.139,0.461,0.0,0.894,0.447,none
13.315941,-0.068,0.951,0.3,-0.688,0.688,-0.229,0.138,-0.99,0.01,0.902,0.281,-0.328,0.11,-0.0,-0.994,0.453,0.574,0.682,-0.0,0.0,-0.0,0.599,0.47,0.648,0.0,0.8,-0.6,0.555,0.429,0.712,-0.635,0.762,0.127,0.868,-0.139,0.476,-0.465,0.814,-0.349,none
13.358788,-0.056,0.948,0.314,-0.436,-0.218,-0.873,0.134,-0.991,0.027,0.894,0.263,-0.361,0.486,-0.0,-0.874,0.479,0.564,0.673,1.0,-0.0,-0.0,0.63,0.449,0.634,0.667,0.667,-0.333,0.585,0.413,0.698,-0.485,0.728,0.485,0.876,-0.138,0.463,-0.424,0.707,-0.566,none
13.397432,-0.071,0.955,0.289,0.39,0.781,-0.488,0.134,-0.991,0.027,0.894,0.273,-0.356,0.514,-0.0,-0.857,0.483,0.564,0.67,0.873,0.218,-0.436,0.628,0.455,0.632,0.927,0.265,-0.265,0.584,0.421,0.694,0.943,0.236,0.236,0.883,-0.13,0.451,0.651,0.651,-0.391,none
13.440283,-0.074,0.947,0.312,0.0,0.949,-0.316,0.134,-0.991,0.027,0.893,0.29,-0.344,0.42,-0.12,-0.9,0.466,0.576,0.671,0.943,0.236,-0.236,0.6,0.477,0.643,0.889,0.381,-0.254,0.558,0.438,0.705,0.696,0.174,0.696,0.871,-0.125,0.475,0.857,0.286,-0.429,none
13.482465,-0.07,0.946,0.315,0.226,0.793,-0.566,0.155,-0.988,0.017,0.897,0.281,-0.34,0.358,-0.072,-0.931,0.47,0.571,0.673,0.937,0.312,0.156,0.613,0.464,0.64,0.772,0.617,-0.154,0.575,0.425,0.699,-0.0,0.64,0.768,0.873,-0.12,0.473,0.97,0.0,-0.243,none
13.898453,-0.082,0.948,0.308,0.0,1.0,0.0,0.142,-0.99,-0.018,0.898,0.287,-0.334,0.404,0.101,-0.909,0.449,0.584,0.676,0.485,0.485,0.728,0.595,0.478,0.646,0.555,0.832,-0.0,0.553,0.439,0.708,-0.309,0.619,0.722,0.868,-0.118,0.482,0.236,0.943,0.236,none
13.900755,-0.075,0.945,0.317,-0.707,0.707,0.0,0.145,-0.989,0.028,0.893,0.28,-0.352,0.784,0.196,-0.588,0.468,0.576,0.671,-0.588,0.196,0.784,0.609,0.47,0.639,-0.667,0.667,0.333,0.559,0.436,0.706,-0.667,0.333,0.667,0.86,-0.119,0.496,-0.707,0.707,0.0,none
13.900909,-0.072,0.95,0.304,0.973,-0.162,-0.162,0.145,-0.989,0.028,0.893,0.288,-0.345,0.728,-0.485,-0.485,0.468,0.575,0.671,-0.442,-0.147,0.885,0.61,0.467,0.64,-0.0,-0.243,0.97,0.576,0.423,0.7,-0.518,0.207,0.83,0.873,-0.127,0.47,-0.87,-0.348,-0.348,none
13.901063,-0.072,0.953,0.295,0.973,-0.162,-0.162,0.151,-0.986,0.07,0.893,0.273,-0.359,0.7,-0.14,-0.7,0.48,0.568,0.669,-0.272,-0.136,0.953,0.616,0.464,0.637,0.316,-0.0,0.949,0.573,0.426,0.701,-0.381,0.254,0.889,0.875,-0.126,0.467,-0.688,-0.229,-0.688,none
13.901194,-0.072,0.952,0.299,0.928,0.371,0.0,0.135,-0.991,0.017,0.892,0.288,-0.348,0.707,-0.424,-0.566,0.466,0.579,0.67,-0.228,-0.342,0.912,0.608,0.471,0.639,0.169,-0.507,0.845,0.574,0.424,0.701,-0.442,-0.147,0.885,0.873,-0.127,0.47,-0.816,-0.408,-0.408,none
13.901321,-0.074,0.948,0.309,0.928,0.371,0.0,0.139,-0.99,0.027,0.891,0.284,-0.354,0.348,-0.348,-0.87,0.473,0.576,0.667,-0.156,-0.312,0.937,0.617,0.463,0.636,0.485,-0.485,0.728,0.575,0.423,0.7,-0.487,0.324,0.811,0.869,-0.118,0.48,-0.845,-0.169,-0.507,none
13.90144,-0.077,0.95,0.302,0.816,0.408,-0.408,0.139,-0.99,0.027,0.894,0.284,-0.346,0.365,-0.183,-0.913,0.464,0.579,0.67,-0.429,-0.286,0.857,0.606,0.471,0.641,-0.0,-1.0,0.0,0.563,0.431,0.705,-0.686,0.514,0.514,0.872,-0.115,0.476,-0.962,-0.0,-0.275,none
13.902577,-0.071,0.948,0.311,0.0,-0.832,0.555,0.139,-0.99,0.027,0.893,0.29,-0.346,0.447,0.0,-0.894,0.472,0.575,0.668,-0.577,-0.115,0.808,0.616,0.462,0.638,-0.707,-0.0,0.707,0.574,0.421,0.702,-0.768,0.384,0.512,0.873,-0.123,0.472,-0.963,0.241,-0.12,none
13.902709,-0.07,0.95,0.303,-0.174,-0.696,0.696,0.135,-0.99,0.044,0.894,0.272,-0.357,0.6,0.8,0.0,0.479,0.569,0.669,-0.531,0.152,0.834,0.622,0.461,0.633,-0.098,0.195,0.976,0.58,0.422,0.697,-0.504,0.42,0.755,0.874,-0.112,0.473,-0.818,0.545,0.182,none
13.90433,-0.075,0.951,0.301,-0.259,-0.432,0.864,0.135,-0.99,0.044,0.9,0.278,-0.335,0.291,0.874,0.389,0.472,0.565,0.676,-0.743,0.371,0.557,0.615,0.458,0.642,-0.446,0.595,0.669,0.573,0.422,0.703,-0.652,0.592,0.474,0.879,-0.114,0.464,-0.667,0.667,0.333,none
13.947694,-0.059,0.95,0.305,-0.609,-0.426,0.669,0.118,-0.992,0.045,0.906,0.255,-0.338,0.299,0.854,0.427,0.486,0.552,0.677,-0.659,0.426,0.62,0.618,0.45,0.645,-0.369,0.615,0.697,0.574,0.418,0.704,-0.559,0.734,0.385,0.878,-0.103,0.467,-0.384,0.826,0.413,none
13.991933,-0.066,0.94,0.336,-0.6,-0.406,0.689,0.112,-0.994,0.009,0.916,0.246,-0.317,0.366,0.774,0.516,0.477,0.542,0.691,-0.638,0.489,0.595,0.618,0.437,0.653,-0.349,0.545,0.763,0.567,0.414,0.712,-0.546,0.777,0.315,0.876,-0.103,0.471,-0.267,0.865,0.425,none
14.411223,-0.046,0.938,0.345,-0.687,-0.469,0.556,0.095,-0.995,0.028,0.919,0.117,-0.377,0.67,0.597,0.441,0.513,0.506,0.694,-0.536,0.436,0.723,0.619,0.421,0.663,-0.279,0.517,0.809,0.556,0.407,0.724,-0.45,0.828,0.334,0.851,-0.122,0.511,-0.222,0.917,0.332,none
14.411371,0.003,0.931,0.364,-0.58,-0.571,0.58,0.091,-0.996,-0.015,0.924,0.228,-0.306,0.768,0.429,0.476,0.53,0.492,0.69,-0.449,0.326,0.832,0.676,0.365,0.64,-0.21,0.455,0.866,0.6,0.365,0.712,-0.309,0.761,0.571,0.827,-0.157,0.54,-0.367,0.874,0.318,none
14.41151,0.038,0.914,0.404,-0.621,-0.591,0.516,0.091,-0.996,-0.015,0.932,0.143,-0.334,0.767,0.425,0.48,0.534,0.496,0.684,-0.269,0.295,0.917,0.684,0.368,0.629,0.054,0.35,0.935,0.643,0.346,0.683,0.235,0.679,0.696,0.81,-0.179,0.558,-0.313,0.915,0.256,none
14.411632,0.106,0.898,0.427,-0.694,-0.539,0.478,-0.023,-0.99,-0.141,0.929,0.004,-0.371,0.782,0.46,0.421,0.629,0.376,0.68,-0.178,0.228,0.957,0.71,0.293,0.64,0.064,0.333,0.941,0.574,0.374,0.729,0.335,0.563,0.755,0.772,-0.208,0.601,-0.338,0.873,0.352,none
14.411759,0.114,0.895,0.432,-0.491,-0.546,0.679,-0.023,-0.99,-0.141,0.955,0.023,-0.296,0.825,0.469,0.317,0.574,0.428,0.698,-0.099,0.222,0.97,0.645,0.352,0.678,0.101,0.32,0.942,0.565,0.384,0.73,0.43,0.481,0.764,0.791,-0.272,0.548,0.028,0.949,0.314,none
14.411884,0.162,0.865,0.475,-0.701,-0.399,0.591,-0.089,-0.978,-0.187,0.987,-0.023,-0.159,0.795,0.58,0.176,0.55,0.373,0.747,0.018,0.306,0.952,0.667,0.265,0.696,0.189,0.492,0.85,0.541,0.386,0.747,0.47,0.538,0.699,0.663,-0.213,0.718,-0.117,0.915,0.385,none
14.412009,0.216,0.837,0.503,-0.701,-0.399,0.591,-0.089,-0.975,-0.203,0.984,-0.105,-0.142,0.78,0.617,0.099,0.583,0.32,0.747,0.042,0.388,0.921,0.634,0.265,0.726,0.169,0.522,0.836,0.449,0.415,0.792,0.407,0.611,0.679,0.615,-0.297,0.73,-0.155,0.892,0.425,none
14.412844,0.255,0.795,0.551,-0.595,-0.433,0.677,-0.089,-0.975,-0.203,0.997,-0.065,-0.03,0.775,0.629,0.064,0.532,0.328,0.78,0.17,0.381,0.909,0.601,0.264,0.755,0.245,0.525,0.815,0.431,0.417,0.8,0.44,0.701,0.561,0.586,-0.309,0.749,0.077,0.945,0.318,none
14.412982,0.317,0.761,0.566,-0.657,-0.4,0.639,-0.229,-0.934,-0.275,0.989,-0.148,-0.006,0.733,0.68,-0.02,0.582,0.247,0.775,0.231,0.481,0.846,0.614,0.198,0.764,0.238,0.681,0.692,0.462,0.379,0.802,0.27,0.876,0.4,0.535,-0.295,0.792,0.148,0.937,0.316,none
14.416963,0.327,0.756,0.567,-0.591,-0.384,0.709,-0.229,-0.934,-0.275,0.991,-0.126,0.044,0.756,0.648,-0.094,0.556,0.27,0.786,0.328,0.437,0.838,0.596,0.204,0.777,0.312,0.656,0.688,0.434,0.39,0.812,0.303,0.865,0.4,0.511,-0.315,0.8,0.311,0.913,0.264,none
14.455554,0.335,0.743,0.58,-0.685,-0.372,0.626,-0.229,-0.934,-0.275,0.989,-0.089,0.121,0.698,0.691,-0.188,0.489,0.297,0.82,0.411,0.606,0.681,0.546,0.238,0.804,0.341,0.8,0.494,0.391,0.42,0.819,0.259,0.934,0.247,0.469,-0.301,0.83,0.424,0.895,0.138,none
14.500297,0.392,0.694,0.604,-0.685,-0.372,0.626,-0.314,-0.887,-0.338,0.981,-0.124,0.148,0.638,0.723,-0.264,0.505,0.251,0.826,0.37,0.829,0.421,0.546,0.193,0.815,0.27,0.912,0.308,0.393,0.391,0.833,0.129,0.976,0.176,0.41,-0.248,0.878,0.174,0.962,0.209,none
14.920711,0.424,0.663,0.617,-0.571,-0.367,0.734,-0.32,-0.886,-0.336,0.976,-0.085,0.199,0.583,0.748,-0.319,0.461,0.283,0.841,0.287,0.909,0.303,0.479,0.242,0.844,0.156,0.97,0.188,0.3,0.429,0.852,-0.044,0.997,0.059,0.384,-0.279,0.88,-0.128,0.958,0.256,none
14.920864,0.435,0.65,0.624,-0.629,-0.389,0.673,-0.36,-0.86,-0.36,0.972,-0.062,0.228,0.415,0.816,-0.402,0.455,0.279,0.845,0.144,0.989,0.036,0.476,0.225,0.85,-0.0,0.992,-0.13,0.305,0.416,0.857,-0.206,0.968,-0.143,0.382,-0.268,0.884,-0.336,0.892,0.303,none
14.920997,0.46,0.618,0.638,-0.618,-0.318,0.719,-0.385,-0.854,-0.351,0.97,-0.057,0.237,0.349,0.819,-0.455,0.439,0.291,0.85,0.02,0.987,-0.158,0.436,0.252,0.864,-0.144,0.93,-0.337,0.269,0.424,0.865,-0.349,0.898,-0.266,0.346,-0.291,0.892,-0.423,0.827,0.37,none
14.921204,0.463,0.609,0.644,-0.618,-0.318,0.719,-0.369,-0.861,-0.351,0.966,-0.019,0.259,0.234,0.801,-0.551,0.42,0.301,0.856,-0.02,0.914,-0.406,0.444,0.227,0.867,-0.234,0.776,-0.586,0.272,0.402,0.874,-0.372,0.778,-0.507,0.348,-0.308,0.886,-0.461,0.852,0.248,none
14.921337,0.497,0.578,0.647,-0.818,-0.25,0.518,-0.401,-0.832,-0.384,0.967,-0.056,0.25,0.318,0.731,-0.604,0.435,0.271,0.859,0.057,0.869,-0.491,0.451,0.195,0.871,-0.168,0.757,-0.631,0.261,0.396,0.88,-0.288,0.799,-0.528,0.33,-0.321,0.887,-0.331,0.907,0.262,none
14.921469,0.5,0.571,0.651,-0.792,-0.258,0.553,-0.419,-0.825,-0.378,0.966,-0.037,0.255,0.721,0.566,-0.399,0.416,0.292,0.861,0.169,0.89,-0.424,0.405,0.228,0.885,-0.17,0.738,-0.653,0.225,0.399,0.889,-0.269,0.774,-0.572,0.308,-0.333,0.891,-0.183,0.949,0.256,none
14.92159,0.508,0.548,0.664,-0.856,-0.245,0.454,-0.419,-0.825,-0.378,0.95,-0.005,0.313,0.765,0.528,-0.369,0.387,0.29,0.875,0.317,0.873,-0.37,0.404,0.197,0.893,-0.082,0.789,-0.608,0.203,0.392,0.897,-0.208,0.796,-0.568,0.266,-0.327,0.907,-0.171,0.97,0.171,none
14.922487,0.536,0.514,0.67,-0.837,-0.271,0.475,-0.445,-0.79,-0.421,0.939,0.003,0.344,0.749,0.54,-0.383,0.379,0.285,0.88,0.272,0.908,-0.318,0.383,0.204,0.901,-0.113,0.816,-0.567,0.187,0.394,0.9,-0.297,0.817,-0.495,0.251,-0.317,0.915,-0.259,0.96,0.104,none
14.922623,0.532,0.52,0.668,-0.837,-0.271,0.475,-0.437,-0.786,-0.438,0.954,-0.003,0.301,0.726,0.555,-0.406,0.387,0.297,0.873,0.192,0.962,-0.192,0.359,0.216,0.908,-0.116,0.844,-0.524,0.168,0.39,0.905,-0.331,0.812,-0.481,0.252,-0.334,0.908,-0.306,0.951,-0.034,none
14.92571,0.55,0.487,0.679,-0.813,-0.342,0.471,-0.452,-0.792,-0.41,0.937,0.009,0.349,0.922,0.374,-0.101,0.401,0.284,0.871,0.485,-0.212,0.848,0.358,0.197,0.913,-0.162,0.932,-0.324,0.165,0.381,0.91,-0.415,0.83,-0.373,0.215,-0.319,0.923,-0.439,0.877,-0.195,none
14.96491,0.547,0.493,0.677,0.52,-0.78,0.347,-0.452,-0.792,-0.41,0.924,0.062,0.378,0.945,0.328,0.019,0.346,0.326,0.88,0.31,-0.286,0.907,0.316,0.229,0.921,-0.233,0.854,0.466,0.137,0.386,0.912,-0.617,0.772,0.154,0.215,-0.351,0.911,-0.559,0.186,-0.808,none
15.007402,0.56,0.481,0.674,0.52,-0.78,0.347,-0.444,-0.782,-0.437,0.923,0.047,0.382,0.925,0.322,0.201,0.355,0.314,0.88,0.244,-0.348,0.905,0.304,0.224,0.926,-0.236,0.236,0.943,0.122,0.386,0.914,-0.442,0.147,0.885,0.219,-0.342,0.914,-0.0,-0.156,-0.988,none
15.430395,0.538,0.512,0.67,0.78,-0.18,-0.6,-0.457,-0.766,-0.452,0.93,0.052,0.365,0.588,-0.196,0.784,0.379,0.318,0.869,-0.0,-0.644,0.765,0.332,0.223,0.917,-0.267,-0.802,0.535,0.162,0.384,0.909,-0.092,-0.829,0.552,0.254,-0.331,0.909,0.23,-0.322,-0.919,none
15.430631,0.519,0.534,0.668,0.78,-0.18,-0.6,-0.449,-0.776,-0.442,0.944,0.017,0.33,0.1,-0.796,0.597,0.426,0.301,0.853,-0.0,-0.824,0.567,0.372,0.211,0.904,-0.083,-0.993,0.083,0.2,0.394,0.897,0.225,-0.899,0.375,0.285,-0.294,0.913,0.523,-0.224,-0.822,none
15.430773,0.512,0.545,0.664,0.098,0.195,-0.976,-0.449,-0.776,-0.442,0.945,0.005,0.326,0.162,-0.973,0.162,0.439,0.297,0.848,-0.176,-0.88,0.44,0.395,0.209,0.895,-0.228,-0.912,-0.342,0.228,0.4,0.888,-0.14,-0.98,0.14,0.305,-0.265,0.915,0.383,-0.077,-0.92,none
15.430896,0.523,0.538,0.661,-1.0,-0.0,0.0,-0.449,-0.776,-0.442,0.944,-0.0,0.329,0.14,0.14,-0.98,0.445,0.289,0.848,-0.0,1.0,0.0,0.392,0.203,0.897,0.218,0.873,-0.436,0.217,0.398,0.891,-0.316,0.949,0.0,0.295,-0.282,0.913,0.276,0.921,-0.276,none
15.431035,0.57,0.513,0.641,-0.857,0.0,0.514,-0.437,-0.785,-0.44,0.936,0.034,0.349,0.436,0.218,-0.873,0.429,0.316,0.847,0.315,0.946,0.079,0.418,0.2,0.886,0.259,0.864,0.432,0.301,0.458,0.837,0.938,-0.338,-0.076,0.298,-0.319,0.899,0.49,0.872,-0.0,none
15.431162,0.562,0.488,0.667,-0.857,0.0,0.514,-0.449,-0.781,-0.434,0.921,0.091,0.379,-0.951,-0.219,-0.219,0.414,0.324,0.851,0.581,0.813,0.039,0.486,0.186,0.854,0.586,-0.229,0.778,0.296,0.455,0.84,0.987,0.157,0.022,0.226,-0.294,0.929,0.509,0.86,-0.035,none
15.431285,0.55,0.462,0.696,-0.967,-0.171,0.19,-0.48,-0.761,-0.438,0.889,0.149,0.434,-0.943,-0.302,0.138,0.403,0.336,0.851,0.656,0.375,0.656,0.372,0.273,0.887,0.603,-0.38,0.702,0.164,0.503,0.849,0.894,0.166,0.416,0.162,-0.31,0.937,0.681,0.564,-0.467,none
15.432595,0.538,0.468,0.701,-0.863,-0.307,-0.403,-0.48,-0.761,-0.438,0.942,0.037,0.333,-0.966,-0.236,0.101,0.43,0.349,0.832,0.659,-0.392,0.642,0.414,0.297,0.861,0.652,-0.403,0.642,0.196,0.513,0.836,0.888,-0.152,0.433,0.145,-0.291,0.946,0.748,0.2,-0.632,none
15.432721,0.561,0.47,0.682,-0.617,-0.255,-0.745,-0.459,-0.753,-0.472,0.957,-0.041,0.288,-0.955,-0.292,0.043,0.445,0.318,0.837,0.628,-0.458,0.628,0.542,0.265,0.797,0.71,-0.345,0.614,0.324,0.531,0.783,0.847,-0.18,0.5,0.192,-0.235,0.953,0.79,0.139,-0.597,none
15.432844,0.546,0.493,0.678,-0.728,-0.124,-0.674,-0.459,-0.753,-0.472,0.959,-0.035,0.28,-0.952,-0.305,-0.036,0.485,0.33,0.809,0.631,-0.507,0.587,0.57,0.318,0.757,0.775,-0.291,0.562,0.352,0.583,0.732,0.822,-0.12,0.557,0.26,-0.184,0.948,0.778,0.175,-0.604,none
15.471994,0.567,0.426,0.705,-0.775,0.095,-0.625,-0.445,-0.742,-0.501,0.956,-0.054,0.288,-0.941,-0.309,-0.14,0.566,0.267,0.78,0.743,-0.367,0.56,0.646,0.284,0.709,0.84,-0.152,0.521,0.445,0.61,0.655,0.822,-0.029,0.569,0.229,-0.08,0.97,0.81,0.209,-0.547,none
15.510973,0.503,0.513,0.696,-0.798,0.071,-0.598,-0.445,-0.742,-0.501,0.98,-0.093,0.174,-0.943,-0.272,-0.193,0.579,0.378,0.723,0.681,-0.363,0.636,0.64,0.476,0.603,0.847,-0.091,0.523,0.379,0.75,0.542,0.806,-0.049,0.59,0.225,-0.064,0.972,0.787,0.241,-0.568,none
15.941208,0.497,0.481,0.723,-0.798,0.071,-0.598,-0.389,-0.748,-0.538,0.978,-0.079,0.193,-0.936,-0.129,-0.329,0.547,0.371,0.75,0.748,-0.335,0.573,0.62,0.474,0.626,0.877,-0.068,0.476,0.423,0.736,0.529,0.855,-0.054,0.515,0.207,0.128,0.97,0.711,0.567,-0.416,none
15.941349,0.459,0.484,0.745,-0.993,-0.012,-0.12,-0.389,-0.748,-0.538,0.983,-0.047,0.179,-0.939,-0.109,-0.327,0.648,0.373,0.664,0.746,-0.206,0.633,0.708,0.487,0.511,0.852,-0.03,0.522,0.49,0.779,0.393,0.869,0.016,0.494,0.147,0.093,0.985,0.61,0.738,-0.288,none
15.941482,0.507,0.395,0.766,-0.979,-0.12,-0.164,-0.389,-0.748,-0.538,0.981,-0.046,0.187,-0.853,0.1,-0.512,0.654,0.401,0.642,0.801,-0.23,0.552,0.711,0.501,0.494,0.849,-0.118,0.515,0.545,0.772,0.325,0.9,-0.022,0.435,0.046,0.119,0.992,0.44,0.834,-0.332,none
15.941607,0.519,0.296,0.802,-0.978,-0.196,-0.077,-0.371,-0.659,-0.654,0.981,-0.157,0.111,-0.429,0.566,-0.704,0.735,0.363,0.572,0.826,-0.104,0.554,0.71,0.526,0.468,0.839,-0.228,0.495,0.402,0.851,0.338,0.988,-0.075,0.135,0.089,0.181,0.979,0.6,0.488,-0.633,none
15.941732,0.477,0.424,0.77,-0.995,0.097,0.026,-0.371,-0.659,-0.654,0.968,0.032,0.251,-0.099,0.604,-0.791,0.59,0.564,0.578,0.872,-0.288,0.395,0.711,0.627,0.318,0.795,-0.593,0.123,0.449,0.886,0.115,0.781,-0.246,-0.574,-0.113,0.23,0.967,0.589,0.301,-0.75,none
15.941856,0.513,0.168,0.842,-0.923,0.06,0.38,-0.373,-0.603,-0.705,0.95,-0.008,0.313,-0.619,0.567,-0.544,0.633,0.493,0.597,0.952,-0.291,0.095,0.778,0.573,0.257,0.973,-0.134,-0.186,0.511,0.859,0.027,0.772,-0.054,-0.634,-0.0,0.385,0.923,0.517,0.296,-0.803,none
15.941979,0.464,0.318,0.827,-0.886,-0.0,0.464,-0.355,-0.587,-0.728,0.946,0.118,0.302,-0.772,0.556,-0.307,0.655,0.603,0.454,0.886,-0.136,-0.443,0.781,0.595,0.189,0.777,-0.499,-0.383,0.426,0.903,-0.045,0.759,0.068,-0.648,-0.083,0.377,0.923,0.26,0.542,-0.799,none
15.943086,0.513,0.066,0.856,-0.886,-0.0,0.464,-0.411,-0.46,-0.787,0.964,-0.031,0.266,-0.708,0.691,-0.143,0.682,0.535,0.498,0.869,0.138,-0.476,0.791,0.592,0.154,0.715,-0.507,-0.481,0.373,0.921,-0.111,0.728,0.05,-0.684,-0.167,0.394,0.904,-0.021,0.693,-0.721,none
15.943223,0.528,0.108,0.842,-0.796,-0.093,0.598,-0.411,-0.46,-0.787,0.935,-0.069,0.347,-0.526,0.845,-0.102,0.642,0.651,0.406,0.853,0.332,-0.402,0.758,0.652,0.015,0.725,-0.492,-0.482,0.277,0.934,-0.224,0.751,-0.033,-0.66,-0.309,0.32,0.896,-0.27,0.773,-0.575,none
15.943362,0.557,-0.047,0.829,-0.796,-0.093,0.598,-0.437,-0.342,-0.832,0.878,-0.108,0.466,-0.476,0.876,-0.072,0.603,0.713,0.358,0.876,0.342,-0.339,0.717,0.69,-0.096,0.806,-0.403,-0.433,0.186,0.928,-0.322,0.786,0.022,-0.618,-0.423,0.236,0.875,-0.38,0.827,-0.415,none
15.975369,0.603,-0.006,0.798,-0.723,0.202,0.661,-0.437,-0.342,-0.832,0.797,-0.048,0.602,-0.256,0.902,-0.348,0.458,0.855,0.245,0.947,0.114,-0.301,0.633,0.747,-0.203,0.857,-0.449,-0.252,0.078,0.916,-0.395,0.874,0.0,-0.485,-0.518,0.099,0.85,-0.273,0.89,-0.366,none
16.021611,0.595,-0.237,0.768,-0.744,0.358,0.565,-0.484,-0.25,-0.839,0.613,0.046,0.789,-0.0,0.783,-0.622,0.092,0.966,0.241,0.893,-0.075,-0.445,0.607,0.731,-0.311,0.855,-0.511,-0.091,0.02,0.865,-0.501,0.93,-0.026,-0.365,-0.587,0.062,0.808,-0.18,0.93,-0.32,none
16.448985,0.476,-0.206,0.855,-0.744,0.358,0.565,-0.406,-0.057,-0.912,0.666,0.067,0.743,-0.037,0.772,-0.635,-0.421,0.832,0.361,0.519,-0.238,-0.821,0.617,0.642,-0.455,0.848,-0.53,-0.011,0.043,0.77,-0.637,0.955,-0.032,-0.296,-0.771,0.07,0.633,-0.189,0.948,-0.254,none
16.450613,0.333,-0.368,0.868,-0.707,0.435,0.558,-0.406,-0.057,-0.912,0.523,0.315,0.792,-0.729,0.163,-0.665,0.438,0.735,-0.517,-0.707,0.034,-0.707,0.545,0.572,-0.613,0.9,-0.421,-0.113,-0.066,0.661,-0.747,0.882,0.182,-0.435,-0.856,-0.026,0.516,-0.123,0.974,-0.193,none
16.450746,0.113,-0.56,0.821,-0.244,0.605,0.758,-0.338,0.14,-0.931,0.68,0.162,0.715,-0.357,0.885,-0.298,0.277,0.956,0.094,0.527,-0.83,-0.182,0.591,0.508,-0.627,0.593,-0.735,-0.329,0.052,0.646,-0.761,0.782,-0.27,-0.561,-0.832,0.143,0.535,-0.247,0.769,-0.589,none
16.450877,0.21,-0.476,0.854,-0.244,0.605,0.758,-0.359,0.156,-0.92,0.576,0.176,0.799,-0.615,0.541,0.574,0.039,0.917,0.397,0.791,-0.105,0.603,0.551,0.58,-0.599,-0.512,0.173,-0.841,0.005,0.686,-0.728,-0.652,-0.018,-0.758,-0.771,0.144,0.621,-0.832,-0.532,0.157,none
16.451004,0.425,-0.472,0.772,-0.206,-0.936,-0.287,-0.359,0.156,-0.92,0.542,0.012,0.84,-0.63,0.413,0.658,0.109,0.959,0.26,0.885,0.162,0.436,0.458,0.637,-0.62,-0.783,0.122,-0.61,-0.212,0.698,-0.684,-0.824,-0.422,-0.377,-0.747,0.215,0.63,-0.637,-0.646,0.42,none
16.451143,0.398,-0.558,0.728,-0.558,-0.82,-0.128,-0.359,0.156,-0.92,0.682,-0.154,0.715,0.271,0.579,0.769,0.034,0.893,0.449,0.879,0.205,0.431,0.409,0.676,-0.613,-0.715,-0.276,-0.643,-0.153,0.692,-0.705,-0.62,-0.724,-0.302,-0.837,-0.018,0.546,-0.772,-0.473,0.425,none
16.451269,0.556,-0.521,0.647,-0.363,-0.871,-0.333,-0.547,0.164,-0.821,0.461,0.004,0.888,0.732,0.285,0.618,0.016,0.936,0.352,0.945,0.21,0.25,0.331,0.776,-0.537,-0.688,-0.605,-0.4,-0.258,0.753,-0.606,-0.518,-0.788,-0.332,-0.817,-0.089,0.57,-0.883,-0.425,-0.198,none
16.452224,0.586,-0.519,0.622,-0.336,-0.864,-0.376,-0.547,0.164,-0.821,0.488,0.006,0.873,0.795,0.129,0.593,0.071,0.952,0.296,0.906,0.292,-0.307,0.276,0.843,-0.462,-0.573,-0.76,-0.308,-0.315,0.798,-0.514,-0.339,-0.824,-0.454,-0.776,-0.125,0.618,-0.326,-0.218,-0.92,none
16.452363,0.623,-0.456,0.636,-0.489,-0.865,-0.114,-0.547,0.164,-0.821,0.358,0.212,0.909,0.725,0.3,0.62,0.086,0.964,0.252,0.577,0.309,-0.756,0.209,0.89,-0.406,-0.253,-0.816,-0.52,-0.38,0.81,-0.446,-0.047,-0.624,-0.78,-0.669,-0.147,0.729,-0.074,0.089,-0.993,none
16.452484,0.649,-0.506,0.568,-0.528,-0.833,-0.164,-0.668,0.209,-0.714,0.417,0.136,0.899,-0.23,0.801,0.552,0.074,0.983,0.167,0.494,0.349,-0.797,0.164,0.889,-0.427,-0.097,-0.657,-0.747,-0.447,0.781,-0.436,0.098,-0.293,-0.951,-0.614,-0.223,0.757,-0.067,0.232,-0.97,none
16.486807,0.649,-0.549,0.527,-0.556,-0.823,-0.118,-0.668,0.209,-0.714,0.388,0.116,0.915,-0.67,0.697,0.256,0.044,0.992,0.119,0.576,0.192,-0.795,0.113,0.887,-0.448,-0.038,-0.664,-0.747,-0.468,0.758,-0.455,0.05,-0.378,-0.925,-0.634,-0.317,0.705,-0.125,0.198,-0.972,none
16.531366,0.672,-0.563,0.481,-0.556,-0.823,-0.118,-0.74,0.242,-0.628,0.397,0.013,0.918,-0.767,0.616,0.181,0.002,0.993,0.116,0.677,0.456,-0.578,0.069,0.889,-0.454,0.054,-0.416,-0.908,-0.489,0.743,-0.457,0.139,0.037,-0.99,-0.598,-0.387,0.702,-0.094,0.061,-0.994,none
16.961352,0.758,-0.498,0.422,-0.412,-0.882,-0.231,-0.74,0.242,-0.628,0.308,-0.172,0.936,-0.772,0.587,0.245,-0.076,0.994,0.079,0.692,0.601,-0.401,0.022,0.908,-0.417,-0.01,-0.211,-0.977,-0.539,0.727,-0.425,0.198,-0.019,-0.98,-0.528,-0.443,0.725,-0.271,-0.006,-0.962,none
16.961507,0.75,-0.576,0.324,-0.182,-0.934,-0.308,-0.806,0.232,-0.544,0.172,-0.342,0.924,-0.789,0.517,0.331,-0.156,0.988,-0.015,0.452,0.743,-0.493,-0.051,0.909,-0.413,-0.396,0.161,-0.904,-0.598,0.677,-0.43,-0.319,-0.083,-0.944,-0.5,-0.537,0.679,-0.557,-0.351,-0.753,none
16.961648,0.811,-0.515,0.277,-0.247,-0.919,-0.306,-0.806,0.232,-0.544,0.019,-0.337,0.941,-0.748,0.457,0.482,-0.254,0.966,-0.046,0.256,0.729,-0.635,-0.138,0.916,-0.375,-0.535,0.188,-0.824,-0.664,0.641,-0.384,-0.593,-0.176,-0.786,-0.436,-0.621,0.651,-0.656,-0.486,-0.577,none
16.961788,0.819,-0.514,0.255,-0.094,-0.849,-0.519,-0.851,0.196,-0.486,-0.092,-0.405,0.91,-0.775,0.365,0.516,-0.271,0.96,-0.071,-0.301,0.78,-0.549,-0.155,0.919,-0.363,-0.589,0.609,-0.531,-0.68,0.632,-0.371,-0.856,0.125,-0.501,-0.42,-0.647,0.636,-0.67,-0.729,-0.138,none
16.961926,0.82,-0.513,0.255,-0.121,-0.787,-0.605,-0.851,0.196,-0.486,-0.065,-0.411,0.909,-0.854,0.262,0.448,-0.266,0.961,-0.073,-0.759,0.552,-0.345,-0.149,0.919,-0.364,-0.558,0.79,-0.256,-0.678,0.633,-0.373,-0.895,0.316,-0.316,-0.423,-0.644,0.637,-0.605,-0.789,0.105,none
16.962067,0.823,-0.496,0.277,0.376,-0.376,-0.847,-0.851,0.196,-0.486,-0.018,-0.452,0.892,-0.962,0.083,0.259,-0.267,0.962,-0.051,-0.946,0.324,-0.025,-0.134,0.926,-0.353,-0.532,0.84,0.112,-0.673,0.643,-0.366,-0.887,0.444,0.127,-0.412,-0.639,0.65,-0.26,-0.93,0.26,none
16.962202,0.813,-0.502,0.295,0.198,0.725,-0.659,-0.851,0.196,-0.486,-0.033,-0.522,0.852,-0.998,0.012,0.059,-0.218,0.976,-0.023,-0.918,0.28,0.28,-0.08,0.929,-0.361,-0.173,0.837,0.519,-0.629,0.676,-0.383,-0.541,0.691,0.48,-0.436,-0.59,0.68,0.131,-0.701,0.701,none
16.963231,0.812,-0.502,0.298,0.585,0.691,-0.425,-0.851,0.196,-0.486,-0.022,-0.572,0.82,-0.861,-0.376,-0.344,-0.191,0.982,-0.006,-0.757,0.426,0.496,-0.05,0.931,-0.361,-0.026,0.803,0.596,-0.605,0.696,-0.387,-0.331,0.745,0.579,-0.441,-0.566,0.696,0.323,-0.323,0.889,none
16.963359,0.8,-0.492,0.343,0.632,0.775,0.0,-0.851,0.188,-0.49,0.142,-0.559,0.817,-0.522,-0.594,-0.612,-0.156,0.988,-0.009,-0.577,0.549,0.604,-0.013,0.923,-0.384,0.148,0.791,0.593,-0.578,0.701,-0.418,-0.161,0.829,0.535,-0.477,-0.533,0.699,0.306,0.0,0.952,none
16.963479,0.79,-0.481,0.38,0.63,0.765,-0.135,-0.851,0.188,-0.49,0.135,-0.518,0.845,-0.435,-0.621,-0.652,-0.118,0.993,-0.022,-0.693,0.416,0.589,0.017,0.916,-0.401,-0.031,0.737,0.675,-0.554,0.708,-0.437,-0.279,0.696,0.661,-0.502,-0.506,0.701,0.464,-0.093,0.881,none
16.993436,0.791,-0.486,0.371,0.659,0.725,-0.198,-0.851,0.188,-0.49,0.139,-0.5,0.855,-0.469,-0.625,-0.625,-0.112,0.994,-0.009,-0.683,0.256,0.683,0.031,0.918,-0.396,-0.129,0.818,0.56,-0.545,0.717,-0.434,-0.424,0.707,0.566,-0.502,-0.494,0.709,0.308,-0.231,0.923,none
17.043251,0.79,-0.493,0.365,0.819,-0.0,-0.573,-0.842,0.196,-0.502,0.155,-0.559,0.814,-0.862,-0.499,-0.091,-0.125,0.992,0.01,-0.932,0.311,0.186,0.028,0.924,-0.382,-0.624,0.686,0.374,-0.551,0.721,-0.421,-0.811,0.324,0.487,-0.483,-0.5,0.719,0.098,-0.976,0.195,none
17.472599,0.815,-0.472,0.338,0.949,0.0,-0.316,-0.842,0.196,-0.502,0.129,-0.548,0.826,0.398,-0.896,-0.199,-0.142,0.99,0.018,-0.574,0.646,0.503,0.018,0.93,-0.368,-0.064,0.964,0.257,-0.56,0.721,-0.408,-0.583,0.758,0.292,-0.47,-0.515,0.717,-0.358,-0.268,0.894,none
17.472769,0.785,-0.512,0.348,0.968,0.176,-0.176,-0.846,0.169,-0.505,0.133,-0.531,0.837,-0.0,-0.91,-0.414,-0.144,0.99,-0.0,-0.669,0.446,0.595,0.012,0.923,-0.385,-0.215,0.933,0.287,-0.564,0.709,-0.423,-0.673,0.673,0.306,-0.485,-0.52,0.703,-0.241,-0.482,0.843,none
17.472911,0.795,-0.484,0.365,0.651,0.651,-0.391,-0.846,0.169,-0.505,0.13,-0.536,0.834,0.514,-0.857,-0.0,-0.127,0.992,0.006,-0.873,0.218,0.436,0.031,0.923,-0.384,-0.304,0.836,0.456,-0.55,0.719,-0.424,-0.654,0.535,0.535,-0.489,-0.501,0.714,0.127,-0.635,0.762,none
17.473057,0.8,-0.472,0.37,0.722,0.309,-0.619,-0.846,0.169,-0.505,0.122,-0.55,0.826,0.337,-0.842,-0.421,-0.121,0.993,0.015,-0.875,0.08,0.477,0.041,0.924,-0.379,-0.337,0.842,0.421,-0.543,0.727,-0.42,-0.685,0.548,0.48,-0.485,-0.493,0.722,0.0,-0.707,0.707,none
17.473193,0.796,-0.479,0.372,0.745,0.596,-0.298,-0.846,0.169,-0.505,0.157,-0.535,0.83,0.306,-0.673,-0.673,-0.126,0.992,0.012,-0.789,-0.0,0.614,0.034,0.924,-0.381,-0.291,0.874,0.389,-0.548,0.721,-0.424,-0.625,0.625,0.469,-0.487,-0.499,0.716,-0.229,-0.688,0.688,none
17.473319,0.793,-0.479,0.376,0.267,0.802,-0.535,-0.836,0.131,-0.533,0.149,-0.528,0.836,0.097,-0.483,-0.87,-0.114,0.993,0.013,-0.925,-0.092,0.37,0.048,0.922,-0.384,-0.465,0.814,0.349,-0.536,0.726,-0.43,-0.755,0.504,0.42,-0.492,-0.486,0.722,-0.535,-0.802,0.267,none
17.473447,0.807,-0.453,0.378,0.762,0.457,-0.457,-0.832,0.157,-0.532,0.156,-0.547,0.823,0.625,-0.402,-0.669,-0.114,0.993,0.026,-0.555,-0.0,0.832,0.054,0.926,-0.374,0.381,0.889,0.254,-0.533,0.735,-0.419,-0.389,0.874,0.291,-0.483,-0.484,0.73,-0.686,0.514,0.514,none
17.474765,0.795,-0.461,0.393,-0.127,0.762,0.635,-0.832,0.157,-0.532,0.189,-0.498,0.846,0.665,-0.181,-0.725,-0.109,0.994,0.01,-0.707,-0.0,0.707,0.053,0.921,-0.387,0.447,0.894,-0.0,-0.533,0.728,-0.432,-0.241,0.963,0.12,-0.497,-0.483,0.721,-0.885,0.442,0.147,none
17.474896,0.79,-0.486,0.374,-0.64,0.426,0.64,-0.829,0.158,-0.536,0.148,-0.502,0.852,0.123,0.123,-0.985,-0.115,0.993,0.003,-0.925,0.37,-0.092,0.046,0.919,-0.392,0.0,0.936,0.351,-0.538,0.723,-0.433,-0.52,0.78,0.347,-0.498,-0.489,0.716,-0.485,-0.485,0.728,none
17.475027,0.794,-0.482,0.371,0.196,0.588,-0.784,-0.829,0.158,-0.536,0.172,-0.487,0.856,-0.514,-0.0,-0.857,-0.119,0.993,-0.001,-0.94,-0.0,0.342,0.043,0.918,-0.393,-0.408,0.816,0.408,-0.542,0.719,-0.436,-0.667,0.572,0.477,-0.497,-0.496,0.711,-0.667,-0.667,-0.333,none
17.505544,0.788,-0.495,0.365,0.123,-0.123,-0.985,-0.832,0.163,-0.53,0.158,-0.537,0.829,-0.962,0.192,-0.192,-0.115,0.993,0.022,-0.984,-0.0,0.179,0.056,0.924,-0.379,-0.808,0.505,0.303,-0.531,0.731,-0.43,-0.845,0.169,0.507,-0.488,-0.483,0.727,-0.0,-0.894,-0.447,none
17.549829,0.804,-0.467,0.367,-0.485,0.485,-0.728,-0.832,0.163,-0.53,0.148,-0.559,0.816,0.236,0.943,0.236,-0.116,0.993,0.037,-0.949,0.0,-0.316,0.061,0.927,-0.369,-0.873,0.436,0.218,-0.528,0.739,-0.419,-0.843,0.241,0.482,-0.477,-0.48,0.736,-0.267,-0.535,-0.802,none
17.981462,0.798,-0.466,0.382,0.267,0.802,-0.535,-0.832,0.163,-0.53,0.158,-0.547,0.822,0.98,0.14,0.14,-0.11,0.993,0.035,-0.986,0.164,0.0,0.066,0.925,-0.373,-0.588,0.784,0.196,-0.52,0.741,-0.425,-0.816,0.408,0.408,-0.483,-0.47,0.739,-0.667,-0.667,-0.333,none
17.981607,0.801,-0.46,0.384,0.857,0.286,-0.429,-0.813,0.149,-0.562,0.154,-0.521,0.84,0.937,-0.312,0.156,-0.112,0.993,0.026,-0.953,0.136,0.272,0.065,0.924,-0.377,-0.625,0.781,-0.0,-0.523,0.738,-0.427,-0.839,0.466,0.28,-0.486,-0.474,0.734,-0.588,-0.784,-0.196,none
17.981733,0.812,-0.441,0.381,0.768,0.384,-0.512,-0.813,0.149,-0.562,0.162,-0.538,0.827,0.972,-0.075,0.224,-0.115,0.992,0.043,-0.802,0.267,0.535,0.069,0.929,-0.365,-0.0,0.986,0.164,-0.522,0.744,-0.418,-0.579,0.745,0.331,-0.474,-0.471,0.744,-0.688,-0.688,0.229,none
17.981856,0.797,-0.467,0.383,0.832,0.555,-0.0,-0.813,0.149,-0.562,0.143,-0.519,0.843,0.953,-0.136,0.272,-0.109,0.993,0.034,-0.814,0.349,0.465,0.07,0.925,-0.374,-0.14,0.98,0.14,-0.518,0.74,-0.428,-0.614,0.69,0.383,-0.483,-0.469,0.739,-0.447,-0.894,0.0,none
17.981985,0.798,-0.477,0.369,0.893,0.319,-0.319,-0.813,0.149,-0.562,0.134,-0.534,0.835,0.554,-0.785,-0.277,-0.112,0.993,0.037,-0.606,0.441,0.662,0.065,0.926,-0.373,-0.176,0.94,0.294,-0.522,0.74,-0.424,-0.577,0.721,0.384,-0.478,-0.474,0.74,0.0,-0.614,0.789,none
17.98212,0.805,-0.443,0.395,0.904,0.362,-0.226,-0.831,0.135,-0.54,0.164,-0.499,0.851,0.438,-0.804,-0.402,-0.103,0.994,0.027,-0.543,0.395,0.741,0.073,0.923,-0.377,-0.11,0.827,0.551,-0.517,0.74,-0.43,-0.471,0.685,0.556,-0.486,-0.469,0.737,0.394,-0.473,0.788,none
17.982239,0.79,-0.456,0.409,0.768,0.549,-0.329,-0.831,0.135,-0.54,0.186,-0.493,0.85,0.414,-0.793,-0.448,-0.087,0.996,0.036,-0.545,0.545,0.636,0.089,0.921,-0.379,-0.143,0.809,0.571,-0.502,0.747,-0.436,-0.492,0.655,0.573,-0.49,-0.451,0.746,0.384,-0.512,0.768,none
17.983311,0.79,-0.438,0.429,0.848,0.349,-0.399,-0.832,0.14,-0.537,0.205,-0.497,0.843,-0.067,-0.798,-0.599,-0.079,0.996,0.042,-0.758,0.292,0.583,0.102,0.921,-0.375,-0.485,0.728,0.485,-0.49,0.756,-0.435,-0.675,0.467,0.571,-0.489,-0.439,0.754,0.376,-0.847,0.376,none
17.983442,0.798,-0.457,0.393,0.836,0.223,-0.502,-0.832,0.14,-0.537,0.158,-0.526,0.836,0.066,-0.917,-0.393,-0.086,0.994,0.061,-0.689,0.324,0.648,0.103,0.926,-0.364,-0.339,0.763,0.551,-0.49,0.761,-0.425,-0.6,0.529,0.6,-0.473,-0.438,0.764,0.425,-0.691,0.585,none
17.983577,0.786,-0.503,0.36,0.919,0.288,-0.27,-0.832,0.14,-0.537,0.056,-0.576,0.816,0.365,-0.857,-0.365,-0.074,0.993,0.087,-0.643,0.392,0.658,0.117,0.927,-0.357,-0.209,0.821,0.531,-0.475,0.767,-0.431,-0.546,0.622,0.561,-0.473,-0.414,0.778,0.36,-0.549,0.754,none
18.008452,0.78,-0.48,0.401,0.932,0.21,-0.295,-0.799,0.061,-0.598,-0.137,-0.637,0.758,0.503,-0.774,-0.384,-0.042,0.996,0.084,-0.668,0.403,0.626,0.143,0.92,-0.366,-0.23,0.842,0.487,-0.454,0.771,-0.447,-0.588,0.615,0.525,-0.488,-0.389,0.781,0.335,-0.555,0.762,none
18.0472,0.802,-0.455,0.387,0.94,0.213,-0.266,-0.799,0.061,-0.598,0.295,-0.222,0.929,0.423,-0.866,-0.267,0.0,0.993,0.115,-0.609,0.421,0.673,0.194,0.916,-0.35,-0.197,0.837,0.51,-0.418,0.795,-0.439,-0.558,0.626,0.545,-0.49,-0.347,0.8,0.359,-0.529,0.769,none
18.491238,0.719,-0.27,0.641,0.943,0.222,-0.248,-0.815,-0.081,-0.573,0.529,-0.338,0.778,-0.079,-0.991,0.112,0.202,0.958,0.203,-0.631,0.478,0.611,0.396,0.863,-0.313,-0.291,0.833,0.47,-0.221,0.872,-0.438,-0.646,0.561,0.517,-0.496,-0.127,0.859,0.334,-0.633,0.699,none
18.491389,0.696,-0.085,0.713,0.964,-0.05,-0.261,-0.815,-0.081,-0.573,0.675,-0.373,0.637,-0.213,-0.865,0.454,0.29,0.915,0.281,-0.632,0.61,0.478,0.509,0.828,-0.234,-0.352,0.878,0.323,-0.089,0.925,-0.371,-0.742,0.55,0.384,-0.438,-0.003,0.899,0.183,-0.719,0.67,none
18.491527,0.747,0.089,0.659,0.958,-0.187,-0.215,-0.814,-0.286,-0.505,0.676,-0.415,0.61,-0.233,-0.531,0.815,0.28,0.89,0.36,-0.614,0.769,0.177,0.53,0.838,-0.129,-0.423,0.906,0.026,-0.059,0.961,-0.269,-0.849,0.511,0.136,-0.341,0.012,0.94,-0.131,-0.804,0.58,none
18.49165,0.812,0.091,0.577,0.815,-0.579,0.037,-0.814,-0.286,-0.505,0.622,-0.491,0.61,-0.178,-0.212,0.961,0.193,0.898,0.396,-0.436,0.894,-0.098,0.472,0.879,-0.066,-0.35,0.891,-0.288,-0.12,0.974,-0.19,-0.833,0.515,-0.203,-0.264,-0.07,0.962,-0.459,-0.735,0.499,none
18.491777,0.867,0.084,0.491,0.69,-0.695,0.204,-0.857,-0.352,-0.377,0.489,-0.555,0.673,-0.04,0.166,0.985,0.051,0.917,0.396,-0.176,0.883,-0.434,0.346,0.938,-0.031,-0.208,0.722,-0.66,-0.255,0.957,-0.136,-0.686,0.425,-0.59,-0.199,-0.225,0.954,-0.793,-0.527,0.306,none
18.4919,0.933,0.011,0.36,-0.221,-0.72,0.658,-0.875,-0.337,-0.347,0.385,-0.668,0.637,0.164,0.517,0.84,-0.072,0.892,0.446,0.269,0.648,-0.713,0.257,0.965,0.048,0.092,0.299,-0.95,-0.331,0.943,-0.036,-0.218,0.201,-0.955,-0.085,-0.323,0.943,-0.996,-0.083,0.026,none
18.492029,0.945,-0.078,0.316,-0.283,-0.642,0.713,-0.875,-0.337,-0.347,0.249,-0.693,0.676,0.339,0.585,0.737,-0.125,0.876,0.465,0.41,0.523,-0.747,0.218,0.974,0.065,0.252,0.157,-0.955,-0.369,0.929,-0.04,-0.016,0.172,-0.985,-0.076,-0.354,0.932,-0.994,0.113,-0.0,none
18.493038,0.936,-0.161,0.313,-0.21,-0.566,0.797,-0.875,-0.337,-0.347,0.172,-0.647,0.743,0.454,0.559,0.693,-0.159,0.902,0.402,0.529,0.524,-0.668,0.172,0.985,0.001,0.364,0.132,-0.922,-0.424,0.9,-0.099,0.092,0.212,-0.973,-0.142,-0.411,0.901,-0.975,0.219,0.03,none
18.49318,0.928,-0.246,0.279,-0.21,-0.566,0.797,-0.975,-0.127,-0.181,0.025,-0.614,0.789,0.513,0.513,0.689,-0.262,0.912,0.315,0.57,0.56,-0.601,0.064,0.997,-0.051,0.417,0.156,-0.895,-0.526,0.84,-0.133,0.122,0.267,-0.956,-0.176,-0.518,0.837,-0.963,0.253,0.089,none
18.493304,0.933,-0.329,0.149,-0.124,-0.527,0.841,-0.975,-0.127,-0.181,-0.06,-0.541,0.839,0.597,0.44,0.671,-0.387,0.903,0.188,0.651,0.565,-0.507,-0.088,0.99,-0.107,0.518,0.156,-0.841,-0.653,0.742,-0.148,0.209,0.329,-0.921,-0.201,-0.656,0.728,-0.93,0.34,0.139,none
18.506534,0.902,-0.417,0.114,-0.197,-0.417,0.887,-0.993,-0.066,-0.1,-0.146,-0.475,0.868,0.559,0.577,0.595,-0.432,0.894,0.118,0.728,0.454,-0.514,-0.146,0.977,-0.156,0.566,0.024,-0.824,-0.697,0.691,-0.19,0.324,0.256,-0.911,-0.243,-0.689,0.683,-0.9,0.433,0.053,none
18.551371,0.868,-0.489,0.087,-0.175,-0.403,0.898,-0.991,-0.041,-0.127,-0.232,-0.399,0.887,0.535,0.535,0.653,-0.464,0.886,0.018,0.727,0.535,-0.43,-0.208,0.952,-0.223,0.613,0.103,-0.783,-0.741,0.627,-0.241,0.323,0.354,-0.878,-0.295,-0.734,0.612,-0.887,0.44,0.142,none
18.998106,0.861,-0.502,0.079,-0.395,-0.375,0.839,-0.993,0.069,-0.095,-0.251,-0.337,0.908,0.442,0.694,0.568,-0.481,0.875,-0.059,0.776,0.459,-0.434,-0.246,0.93,-0.272,0.609,0.0,-0.793,-0.762,0.583,-0.28,0.39,0.257,-0.884,-0.335,-0.756,0.563,-0.862,0.505,0.044,none
19.001299,0.843,-0.536,0.049,-0.395,-0.375,0.839,-0.995,0.101,0.0,-0.295,-0.373,0.879,0.302,0.692,0.656,-0.491,0.869,-0.056,0.784,0.511,-0.352,-0.255,0.929,-0.266,0.645,0.039,-0.763,-0.766,0.582,-0.273,0.399,0.302,-0.866,-0.321,-0.762,0.562,-0.859,0.51,0.05,none
19.00144,0.869,-0.49,0.075,-0.368,-0.218,0.904,-0.991,0.109,-0.081,-0.227,-0.476,0.85,0.592,0.648,0.479,-0.475,0.88,0.001,0.857,0.464,-0.225,-0.219,0.949,-0.226,0.745,-0.032,-0.666,-0.738,0.63,-0.243,0.553,0.318,-0.77,-0.29,-0.736,0.612,-0.775,0.629,0.059,none
19.00157,0.859,-0.501,0.1,-0.401,-0.177,0.899,-0.991,0.109,-0.081,-0.168,-0.455,0.874,0.751,0.578,0.318,-0.445,0.895,-0.016,0.895,0.39,-0.217,-0.195,0.95,-0.244,0.75,-0.114,-0.652,-0.724,0.637,-0.265,0.606,0.214,-0.766,-0.317,-0.722,0.615,-0.743,0.669,0.0,none
19.001695,0.833,-0.544,0.098,-0.386,-0.228,0.894,-0.985,0.172,-0.017,-0.181,-0.435,0.882,0.642,0.584,0.496,-0.439,0.897,-0.045,0.865,0.432,-0.256,-0.2,0.942,-0.27,0.724,-0.056,-0.687,-0.725,0.625,-0.289,0.52,0.27,-0.811,-0.342,-0.724,0.599,-0.781,0.625,0.017,none
19.001817,0.82,-0.567,0.074,-0.264,-0.312,0.913,-0.985,0.172,-0.017,-0.242,-0.378,0.893,0.605,0.518,0.605,-0.455,0.883,-0.112,0.82,0.469,-0.328,-0.238,0.92,-0.311,0.666,0.0,-0.746,-0.75,0.58,-0.317,0.39,0.3,-0.87,-0.369,-0.748,0.552,-0.84,0.543,0.0,none
19.001947,0.808,-0.586,0.061,0.0,-0.53,0.848,-0.979,0.203,-0.01,-0.237,-0.384,0.892,0.191,0.477,0.858,-0.468,0.874,-0.129,0.628,0.676,-0.386,-0.255,0.913,-0.318,0.535,0.267,-0.802,-0.762,0.564,-0.319,0.063,0.568,-0.821,-0.368,-0.759,0.537,-0.938,0.346,0.0,none
19.002667,0.819,-0.567,0.081,0.953,-0.136,-0.272,-0.988,0.156,0.001,-0.217,-0.393,0.894,-0.811,-0.324,0.487,-0.453,0.883,-0.123,-0.13,0.911,-0.391,-0.241,0.916,-0.32,-0.117,0.702,-0.702,-0.751,0.577,-0.323,-0.717,0.598,-0.359,-0.372,-0.749,0.548,-0.988,-0.11,-0.11,none
19.002802,0.825,-0.558,0.093,0.596,-0.298,-0.745,-0.979,0.203,0.027,-0.184,-0.411,0.893,-0.933,-0.254,-0.254,-0.443,0.889,-0.113,-0.808,-0.115,-0.577,-0.228,0.921,-0.316,-0.808,0.115,-0.577,-0.742,0.59,-0.319,-0.988,-0.11,-0.11,-0.369,-0.74,0.562,-0.616,-0.352,-0.704,none
19.002931,0.822,-0.563,0.088,0.596,-0.298,-0.745,-0.988,0.153,-0.007,-0.191,-0.429,0.883,-0.996,0.091,0.0,-0.445,0.89,-0.096,-0.891,0.089,-0.445,-0.222,0.927,-0.303,-0.874,0.291,-0.389,-0.739,0.599,-0.308,-1.0,-0.0,0.0,-0.36,-0.737,0.571,-0.545,-0.636,-0.545,none
19.011575,0.83,-0.552,0.079,0.381,-0.254,-0.889,-0.99,0.134,0.037,-0.198,-0.44,0.876,-0.889,0.254,-0.381,-0.458,0.883,-0.103,-0.717,-0.359,-0.598,-0.239,0.923,-0.3,-0.868,-0.0,-0.496,-0.751,0.588,-0.3,-0.97,-0.243,0.0,-0.353,-0.75,0.56,-0.588,-0.196,-0.784,none
19.053197,0.821,-0.565,0.083,0.408,-0.408,-0.816,-0.99,0.134,0.037,-0.19,-0.444,0.876,-0.913,0.183,-0.365,-0.446,0.89,-0.09,-0.6,-0.0,-0.8,-0.223,0.929,-0.296,-0.696,0.174,-0.696,-0.74,0.601,-0.302,-0.98,0.14,-0.14,-0.354,-0.737,0.575,-0.814,-0.0,-0.581,none
19.092885,0.835,-0.542,0.095,-0.97,-0.243,0.0,-0.986,0.17,0.0,-0.178,-0.446,0.877,-0.348,0.87,-0.348,-0.442,0.892,-0.09,0.0,-0.243,-0.97,-0.221,0.928,-0.299,-0.116,-0.349,-0.93,-0.738,0.602,-0.304,-0.507,-0.169,-0.845,-0.358,-0.735,0.576,-0.76,0.228,-0.608,none
19.51105,0.82,-0.567,0.076,-0.811,-0.487,0.324,-0.979,0.199,-0.035,-0.201,-0.432,0.879,-0.14,0.98,-0.14,-0.457,0.883,-0.105,0.136,-0.272,-0.953,-0.237,0.923,-0.302,-0.13,-0.391,-0.911,-0.75,0.588,-0.302,-0.588,-0.196,-0.784,-0.355,-0.748,0.561,-0.725,0.242,-0.645,none
19.511211,0.822,-0.565,0.073,-0.549,0.824,-0.137,-0.979,0.199,-0.035,-0.217,-0.427,0.878,0.123,0.492,-0.862,-0.463,0.879,-0.112,0.0,-0.981,-0.196,-0.245,0.921,-0.303,0.0,-0.832,-0.555,-0.755,0.582,-0.302,-0.0,-0.0,1.0,-0.354,-0.754,0.554,-0.398,0.597,-0.697,none
19.511353,0.827,-0.558,0.068,-0.598,0.717,-0.359,-0.979,0.199,-0.035,-0.214,-0.433,0.875,0.099,0.099,-0.99,-0.467,0.878,-0.105,-0.0,-0.994,0.11,-0.245,0.923,-0.297,-0.0,-0.986,0.164,-0.756,0.583,-0.298,0.218,-0.436,0.873,-0.347,-0.755,0.557,-0.094,0.656,-0.749,none
19.511476,0.828,-0.554,0.083,-0.079,0.946,-0.315,-0.979,0.199,-0.035,-0.208,-0.436,0.876,0.236,-0.236,-0.943,-0.458,0.883,-0.105,0.0,-0.91,0.414,-0.235,0.924,-0.301,0.117,-0.702,0.702,-0.75,0.588,-0.302,0.241,-0.12,0.963,-0.353,-0.748,0.562,0.272,0.724,-0.634,none
19.511597,0.829,-0.55,0.096,-0.215,0.933,-0.287,-0.984,0.176,-0.01,-0.18,-0.427,0.886,0.321,-0.267,-0.909,-0.449,0.887,-0.109,0.12,-0.963,0.241,-0.229,0.924,-0.308,0.08,-0.875,0.477,-0.745,0.591,-0.311,0.537,-0.447,0.716,-0.363,-0.743,0.563,0.26,0.715,-0.65,none
19.511717,0.826,-0.557,0.083,-0.608,0.71,-0.355,-0.99,0.137,-0.036,-0.202,-0.411,0.889,0.316,-0.0,-0.949,-0.463,0.878,-0.119,0.043,-0.995,0.087,-0.246,0.919,-0.308,-0.108,-0.919,0.379,-0.757,0.576,-0.309,0.423,-0.725,0.544,-0.359,-0.756,0.548,0.287,0.575,-0.766,none
19.51184,0.822,-0.565,0.063,-0.51,0.692,-0.51,-0.991,0.136,0.011,-0.27,-0.43,0.862,0.365,-0.183,-0.913,-0.495,0.86,-0.124,-0.214,-0.946,0.244,-0.275,0.913,-0.301,-0.313,-0.671,0.671,-0.778,0.556,-0.294,0.228,-0.592,0.774,-0.34,-0.778,0.528,0.644,0.414,-0.644,none
19.51282,0.809,-0.587,0.02,-0.51,0.692,-0.51,-0.988,0.154,-0.026,-0.317,-0.372,0.872,0.479,-0.407,-0.778,-0.523,0.837,-0.161,-0.345,-0.873,0.345,-0.32,0.895,-0.31,-0.407,-0.462,0.788,-0.806,0.513,-0.295,0.165,-0.495,0.853,-0.338,-0.808,0.482,0.891,0.238,-0.386,none
19.512953,0.809,-0.588,-0.009,-0.22,0.784,-0.58,-0.993,0.116,-0.017,-0.442,-0.318,0.839,0.45,-0.432,-0.782,-0.565,0.801,-0.196,-0.385,-0.871,0.304,-0.373,0.873,-0.315,-0.38,-0.446,0.81,-0.841,0.459,-0.285,0.2,-0.484,0.852,-0.328,-0.843,0.428,0.924,0.207,-0.321,none
19.516198,0.796,-0.605,0.004,-0.247,0.781,-0.573,-0.989,0.104,-0.108,-0.368,-0.26,0.893,0.391,-0.512,-0.765,-0.556,0.813,-0.17,-0.441,-0.849,0.292,-0.363,0.877,-0.314,-0.406,-0.466,0.786,-0.835,0.465,-0.295,0.124,-0.527,0.841,-0.344,-0.83,0.439,0.95,0.033,-0.309,none
