time,s1_X,s1_Y,s1_Z,s1_gyro_x,s1_gyro_y,s1_gyro_z,s1_mag_x,s1_mag_y,s1_mag_z,s2_X,s2_Y,s2_Z,s2_gyro_x,s2_gyro_y,s2_gyro_z,s3_X,s3_Y,s3_Z,s3_gyro_x,s3_gyro_y,s3_gyro_z,s4_X,s4_Y,s4_Z,s4_gyro_x,s4_gyro_y,s4_gyro_z,s5_X,s5_Y,s5_Z,s5_gyro_x,s5_gyro_y,s5_gyro_z,s6_X,s6_Y,s6_Z,s6_gyro_x,s6_gyro_y,s6_gyro_z,label
0.044847,-0.085,0.98,0.178,0.218,0.873,-0.436,0.327,-0.928,0.177,0.873,-0.14,-0.466,0.192,-0.192,-0.962,0.598,0.557,0.576,-0.236,0.943,-0.236,0.831,0.226,0.508,0.218,0.873,-0.436,0.769,0.213,0.603,-0.707,0.707,-0.0,0.76,0.188,0.622,-0.667,0.333,-0.667,paper
0.045066,-0.081,0.98,0.182,0.218,0.873,-0.436,0.309,-0.941,0.135,0.869,-0.156,-0.47,0.316,-0.0,-0.949,0.608,0.547,0.576,-0.6,0.8,-0.0,0.836,0.213,0.505,0.0,0.981,-0.196,0.772,0.207,0.601,-0.832,0.555,-0.0,0.757,0.19,0.625,-0.745,0.298,-0.596,paper
0.045202,-0.077,0.982,0.171,0.218,0.873,-0.436,0.323,-0.936,0.141,0.864,-0.162,-0.478,0.873,-0.218,-0.436,0.616,0.54,0.574,-0.588,0.784,0.196,0.838,0.21,0.503,-0.243,0.97,-0.0,0.777,0.2,0.597,-0.873,0.436,0.218,0.763,0.186,0.619,-0.845,0.169,-0.507,paper
0.066806,-0.08,0.984,0.162,0.316,0.949,-0.0,0.307,-0.946,0.108,0.866,-0.152,-0.476,0.588,-0.196,-0.784,0.606,0.551,0.574,-0.436,0.873,0.218,0.836,0.215,0.504,0.0,0.832,-0.555,0.778,0.2,0.596,-0.802,0.535,0.267,0.768,0.184,0.613,-0.816,0.408,-0.408,paper
0.492304,-0.085,0.982,0.166,-0.535,0.802,-0.267,0.307,-0.946,0.108,0.868,-0.152,-0.472,0.316,-0.0,-0.949,0.603,0.551,0.577,-0.348,0.87,-0.348,0.835,0.218,0.505,0.0,0.781,-0.625,0.776,0.205,0.596,-0.535,0.802,-0.267,0.761,0.188,0.621,-0.743,0.557,-0.371,paper
0.492568,-0.086,0.983,0.164,-0.784,0.588,-0.196,0.307,-0.946,0.108,0.871,-0.152,-0.467,0.192,0.192,-0.962,0.607,0.547,0.577,-0.348,0.87,-0.348,0.836,0.213,0.506,-0.123,0.862,-0.492,0.773,0.209,0.599,-0.588,0.784,-0.196,0.758,0.189,0.624,-0.857,0.429,-0.286,paper
0.492703,-0.081,0.981,0.175,-0.667,-0.667,0.333,0.307,-0.946,0.108,0.866,-0.158,-0.474,0.426,0.64,-0.64,0.606,0.547,0.577,-0.549,0.824,-0.137,0.836,0.212,0.506,-0.136,0.953,-0.272,0.774,0.207,0.598,-0.625,0.781,-0.0,0.761,0.188,0.62,-0.855,0.367,-0.367,paper
0.492833,-0.082,0.982,0.169,-0.667,-0.333,0.667,0.302,-0.944,0.133,0.863,-0.167,-0.476,0.873,0.436,-0.218,0.611,0.544,0.575,-0.707,0.707,0.0,0.837,0.212,0.505,-0.302,0.905,-0.302,0.776,0.204,0.597,-0.617,0.772,0.154,0.759,0.191,0.623,-0.927,0.265,-0.265,paper
0.49298,-0.083,0.983,0.167,-0.667,-0.333,0.667,0.302,-0.944,0.133,0.865,-0.162,-0.476,0.986,0.0,0.164,0.61,0.546,0.574,-0.745,0.596,0.298,0.836,0.213,0.506,-0.371,0.928,-0.0,0.777,0.202,0.596,-0.745,0.596,0.298,0.761,0.187,0.621,-0.98,0.14,-0.14,paper
0.493101,-0.081,0.982,0.168,0.577,0.577,0.577,0.302,-0.944,0.133,0.868,-0.152,-0.473,1.0,-0.0,0.0,0.601,0.554,0.576,-0.784,0.588,0.196,0.833,0.219,0.508,-0.436,0.873,-0.218,0.773,0.208,0.599,-0.784,0.588,0.196,0.761,0.186,0.621,-0.937,0.156,-0.312,paper
0.493223,-0.082,0.982,0.169,-0.577,-0.577,-0.577,0.302,-0.944,0.133,0.869,-0.153,-0.471,0.816,0.408,-0.408,0.598,0.555,0.578,-0.8,0.6,-0.0,0.83,0.223,0.511,-0.371,0.743,-0.557,0.773,0.208,0.599,-0.857,0.514,0.0,0.759,0.19,0.622,-0.911,0.13,-0.391,paper
0.493347,-0.085,0.982,0.171,-0.577,-0.577,-0.577,0.3,-0.946,0.126,0.867,-0.16,-0.472,0.408,0.816,-0.408,0.604,0.55,0.576,-0.845,0.507,-0.169,0.832,0.218,0.51,-0.469,0.625,-0.625,0.773,0.208,0.6,-0.772,0.617,-0.154,0.759,0.187,0.623,-0.873,0.218,-0.436,paper
0.493466,-0.078,0.982,0.169,-0.577,-0.577,-0.577,0.296,-0.945,0.143,0.862,-0.167,-0.478,0.577,0.577,-0.577,0.612,0.545,0.574,-0.816,0.408,-0.408,0.837,0.209,0.506,-0.514,0.514,-0.686,0.776,0.199,0.598,-0.845,0.507,-0.169,0.763,0.182,0.621,-0.873,0.218,-0.436,paper
0.493582,-0.074,0.983,0.165,-0.408,-0.408,-0.816,0.296,-0.945,0.143,0.859,-0.175,-0.482,0.408,-0.408,-0.816,0.616,0.54,0.573,-0.802,0.535,-0.267,0.838,0.205,0.506,-0.408,0.408,-0.816,0.781,0.19,0.595,-0.784,0.588,-0.196,0.763,0.184,0.62,-0.862,0.123,-0.492,paper
0.4937,-0.078,0.983,0.165,-0.408,-0.408,-0.816,0.295,-0.942,0.159,0.859,-0.178,-0.48,0.728,-0.485,-0.485,0.616,0.54,0.574,-0.667,0.667,0.333,0.84,0.203,0.503,0.0,0.447,-0.894,0.78,0.196,0.594,-0.802,0.535,0.267,0.77,0.185,0.611,-0.832,0.0,-0.555,paper
0.493822,-0.077,0.984,0.163,-0.408,-0.408,-0.816,0.332,-0.935,0.127,0.864,-0.17,-0.474,0.811,-0.324,-0.487,0.612,0.542,0.576,-0.302,0.905,0.302,0.841,0.198,0.504,0.408,0.816,-0.408,0.782,0.195,0.592,-0.408,0.816,0.408,0.771,0.186,0.609,-0.87,0.348,-0.348,paper
0.493948,-0.082,0.982,0.169,-0.447,0.894,0.0,0.332,-0.935,0.127,0.864,-0.173,-0.473,0.845,-0.169,-0.507,0.605,0.548,0.578,-0.267,0.802,0.535,0.83,0.219,0.512,0.302,0.905,-0.302,0.771,0.209,0.601,-0.408,0.816,0.408,0.759,0.187,0.624,-0.873,0.436,-0.218,paper
0.49407,-0.082,0.982,0.169,-0.447,0.894,0.0,0.332,-0.935,0.127,0.868,-0.162,-0.47,0.928,-0.371,-0.0,0.593,0.556,0.582,-0.667,0.333,0.667,0.825,0.226,0.517,-0.333,0.667,-0.667,0.766,0.217,0.605,-0.784,0.588,0.196,0.756,0.186,0.627,-0.913,0.183,-0.365,paper
0.495007,-0.081,0.981,0.178,0.0,-0.707,-0.707,0.288,-0.941,0.178,0.866,-0.156,-0.475,0.816,-0.408,-0.408,0.594,0.558,0.579,-0.832,0.555,-0.0,0.829,0.22,0.514,-0.408,0.408,-0.816,0.772,0.21,0.601,-0.784,0.588,-0.196,0.76,0.187,0.622,-0.802,0.267,-0.535,paper
0.495137,-0.082,0.981,0.177,0.0,-0.707,-0.707,0.288,-0.941,0.178,0.859,-0.172,-0.482,0.302,-0.302,-0.905,0.615,0.541,0.574,-0.707,0.707,-0.0,0.841,0.203,0.502,-0.0,0.555,-0.832,0.781,0.198,0.592,-0.873,0.436,-0.218,0.762,0.19,0.62,-0.802,0.267,-0.535,paper
0.495259,-0.083,0.983,0.162,0.0,0.316,-0.949,0.288,-0.941,0.178,0.859,-0.176,-0.481,0.485,-0.485,-0.728,0.609,0.547,0.574,-0.577,0.577,0.577,0.835,0.215,0.506,0.0,0.0,-1.0,0.78,0.202,0.592,-1.0,0.0,0.0,0.764,0.192,0.616,-0.857,0.0,-0.514,paper
0.495381,-0.085,0.982,0.17,0.408,0.408,-0.816,0.288,-0.941,0.178,0.868,-0.161,-0.469,0.447,-0.0,-0.894,0.595,0.556,0.581,-0.832,0.555,-0.0,0.825,0.232,0.515,-0.236,0.236,-0.943,0.772,0.216,0.598,-0.873,0.218,-0.436,0.761,0.192,0.62,-0.802,0.267,-0.535,paper
0.495504,-0.09,0.98,0.175,-0.816,-0.408,-0.408,0.288,-0.941,0.178,0.865,-0.163,-0.475,-0.0,0.447,-0.894,0.598,0.556,0.577,-0.816,0.408,-0.408,0.83,0.225,0.511,-0.348,0.348,-0.87,0.773,0.217,0.595,-0.811,0.324,-0.487,0.758,0.194,0.623,-0.768,0.329,-0.549,paper
0.510476,-0.09,0.979,0.185,-0.688,-0.688,-0.229,0.288,-0.941,0.178,0.859,-0.168,-0.484,-0.0,0.0,-1.0,0.605,0.553,0.572,-0.816,0.408,-0.408,0.834,0.22,0.506,-0.348,0.348,-0.87,0.776,0.215,0.593,-0.762,0.457,-0.457,0.757,0.193,0.624,-0.768,0.329,-0.549,paper
0.532513,-0.091,0.981,0.174,-0.728,-0.485,-0.485,0.332,-0.935,0.122,0.856,-0.176,-0.487,0.333,-0.667,-0.667,0.61,0.551,0.57,-1.0,0.0,-0.0,0.838,0.214,0.502,-0.316,0.0,-0.949,0.781,0.205,0.59,-0.873,0.436,-0.218,0.758,0.194,0.622,-0.762,0.127,-0.635,paper
0.553772,-0.082,0.981,0.177,-0.728,-0.485,-0.485,0.325,-0.939,0.108,0.858,-0.172,-0.484,0.485,-0.728,-0.485,0.602,0.554,0.575,-0.577,-0.577,0.577,0.833,0.223,0.507,-0.0,-0.316,-0.949,0.778,0.211,0.592,-1.0,0.0,-0.0,0.757,0.195,0.623,-0.7,-0.14,-0.7,paper
0.57456,-0.086,0.981,0.172,0.436,0.218,-0.873,0.325,-0.939,0.108,0.863,-0.163,-0.479,0.267,-0.802,-0.535,0.593,0.562,0.577,-0.408,-0.816,0.408,0.828,0.233,0.511,-0.302,-0.302,-0.905,0.77,0.224,0.597,-0.943,-0.236,-0.236,0.754,0.198,0.626,-0.7,-0.14,-0.7,paper
1.002268,-0.092,0.98,0.179,0.218,-0.436,-0.873,0.323,-0.939,0.117,0.862,-0.161,-0.48,-0.0,-0.949,-0.316,0.594,0.561,0.577,-0.667,-0.667,-0.333,0.829,0.23,0.509,-0.436,-0.218,-0.873,0.773,0.222,0.595,-0.913,-0.183,-0.365,0.757,0.2,0.622,-0.702,-0.117,-0.702,paper
1.002406,-0.092,0.98,0.177,0.218,-0.436,-0.873,0.345,-0.923,0.172,0.859,-0.171,-0.482,-0.408,-0.816,-0.408,0.603,0.553,0.575,-0.802,-0.535,-0.267,0.834,0.221,0.505,-0.514,-0.0,-0.857,0.778,0.214,0.591,-0.894,0.0,-0.447,0.762,0.198,0.616,-0.707,0.0,-0.707,paper
1.002526,-0.085,0.982,0.167,0.218,-0.436,-0.873,0.345,-0.923,0.172,0.852,-0.187,-0.489,-0.0,-0.707,-0.707,0.615,0.542,0.573,-0.905,-0.302,-0.302,0.841,0.207,0.5,-0.6,0.0,-0.8,0.786,0.2,0.585,-0.937,0.156,-0.312,0.764,0.197,0.615,-0.755,0.108,-0.647,paper
1.002653,-0.082,0.982,0.169,0.0,-0.447,-0.894,0.345,-0.923,0.172,0.852,-0.189,-0.487,0.267,-0.802,-0.535,0.618,0.539,0.572,-0.905,-0.302,0.302,0.84,0.209,0.501,-0.667,-0.333,-0.667,0.782,0.204,0.589,-0.981,0.196,-0.0,0.76,0.196,0.62,-0.824,-0.137,-0.549,paper
1.002774,-0.089,0.981,0.171,0.0,-0.447,-0.894,0.345,-0.923,0.172,0.86,-0.172,-0.48,0.302,-0.905,-0.302,0.6,0.554,0.577,-0.688,-0.229,0.688,0.832,0.222,0.509,-0.667,-0.667,-0.333,0.777,0.212,0.592,-0.986,0.0,0.164,0.761,0.194,0.619,-0.857,-0.286,-0.429,paper
1.002906,-0.088,0.98,0.177,0.873,0.218,-0.436,0.345,-0.923,0.172,0.864,-0.165,-0.476,-0.0,-0.447,-0.894,0.592,0.559,0.58,-0.905,-0.302,0.302,0.828,0.229,0.512,-0.555,-0.0,-0.832,0.777,0.213,0.593,-0.928,0.371,-0.0,0.764,0.195,0.615,-0.868,-0.0,-0.496,paper
1.003027,-0.09,0.982,0.168,-0.535,-0.802,-0.267,0.345,-0.923,0.172,0.859,-0.178,-0.48,-0.555,0.0,-0.832,0.607,0.547,0.576,-0.97,0.0,-0.243,0.835,0.216,0.506,-0.588,0.196,-0.784,0.78,0.207,0.59,-0.885,0.442,-0.147,0.762,0.195,0.618,-0.862,0.123,-0.492,paper
1.003238,-0.082,0.982,0.169,0.0,-0.894,-0.447,0.345,-0.923,0.172,0.852,-0.192,-0.486,-0.0,-0.0,-1.0,0.62,0.538,0.571,-0.97,-0.0,0.243,0.842,0.201,0.5,-0.555,0.0,-0.832,0.783,0.2,0.589,-0.949,0.316,-0.0,0.766,0.191,0.614,-0.868,0.0,-0.496,paper
1.003361,-0.078,0.985,0.157,0.0,-0.894,-0.447,0.345,-0.923,0.172,0.854,-0.196,-0.482,0.447,-0.0,-0.894,0.618,0.537,0.574,-0.707,-0.0,0.707,0.843,0.197,0.501,-0.707,-0.0,-0.707,0.788,0.189,0.586,-0.962,0.192,0.192,0.772,0.186,0.608,-0.885,-0.147,-0.442,paper
1.00348,-0.078,0.985,0.152,0.873,0.436,-0.218,0.345,-0.923,0.172,0.859,-0.193,-0.475,0.183,0.365,-0.913,0.619,0.536,0.574,-0.535,0.267,0.802,0.844,0.195,0.5,1.0,-0.0,0.0,0.791,0.183,0.584,-0.802,0.267,0.535,0.777,0.183,0.603,-0.894,-0.0,-0.447,paper
1.003601,-0.078,0.984,0.161,0.192,0.962,-0.192,0.345,-0.923,0.172,0.854,-0.193,-0.483,0.265,0.265,-0.927,0.621,0.536,0.573,0.0,0.555,0.832,0.843,0.194,0.502,1.0,-0.0,-0.0,0.789,0.184,0.586,-0.267,0.535,0.802,0.773,0.182,0.608,-0.816,0.408,-0.408,paper
1.003718,-0.074,0.985,0.157,0.192,0.962,-0.192,0.288,-0.946,0.15,0.852,-0.202,-0.482,0.342,0.228,-0.912,0.623,0.531,0.573,0.436,0.218,0.873,0.842,0.194,0.504,0.97,-0.243,0.0,0.786,0.186,0.589,0.0,0.243,0.97,0.771,0.179,0.611,-0.0,0.0,-1.0,paper
1.003835,-0.07,0.985,0.157,0.192,0.962,-0.192,0.338,-0.933,0.121,0.853,-0.207,-0.479,0.577,-0.115,-0.808,0.621,0.528,0.579,0.549,0.137,0.824,0.841,0.195,0.505,0.885,-0.442,0.147,0.786,0.185,0.59,0.192,0.192,0.962,0.773,0.18,0.609,1.0,-0.0,-0.0,paper
1.003969,-0.069,0.986,0.152,0.302,0.905,-0.302,0.338,-0.933,0.121,0.858,-0.2,-0.473,0.647,-0.185,-0.74,0.617,0.529,0.582,0.577,0.115,0.808,0.841,0.193,0.505,0.885,-0.442,0.147,0.789,0.182,0.587,0.302,0.302,0.905,0.777,0.18,0.604,0.894,-0.0,0.447,paper
1.004893,-0.073,0.986,0.149,0.178,0.98,-0.089,0.338,-0.933,0.121,0.858,-0.198,-0.473,0.605,-0.173,-0.777,0.619,0.528,0.581,0.598,0.359,0.717,0.843,0.187,0.504,0.985,-0.123,0.123,0.79,0.178,0.587,0.408,0.408,0.816,0.778,0.176,0.604,0.802,0.267,0.535,paper
1.005025,-0.066,0.986,0.15,0.178,0.98,-0.089,0.325,-0.931,0.166,0.854,-0.209,-0.476,0.675,-0.3,-0.675,0.627,0.522,0.578,0.677,0.29,0.677,0.845,0.183,0.502,0.97,-0.108,0.216,0.79,0.175,0.588,0.518,0.207,0.83,0.777,0.174,0.605,0.913,0.183,0.365,paper
1.005147,-0.07,0.987,0.145,0.148,0.964,-0.222,0.325,-0.931,0.166,0.855,-0.211,-0.475,0.713,-0.389,-0.583,0.627,0.52,0.58,0.63,0.315,0.709,0.844,0.183,0.503,0.936,-0.085,0.341,0.792,0.173,0.585,0.566,0.162,0.808,0.782,0.176,0.598,0.862,0.123,0.492,paper
1.005268,-0.065,0.986,0.151,0.062,0.99,-0.124,0.325,-0.931,0.166,0.855,-0.206,-0.475,0.706,-0.38,-0.597,0.627,0.519,0.58,0.611,0.407,0.679,0.845,0.181,0.503,0.906,0.07,0.418,0.79,0.175,0.588,0.564,0.282,0.776,0.777,0.177,0.604,0.83,0.207,0.518,paper
1.005416,-0.062,0.985,0.159,0.062,0.99,-0.124,0.335,-0.929,0.157,0.855,-0.208,-0.474,0.73,-0.41,-0.547,0.624,0.519,0.583,0.621,0.395,0.677,0.842,0.183,0.507,0.881,0.059,0.47,0.784,0.174,0.595,0.62,0.248,0.744,0.776,0.17,0.607,0.845,0.169,0.507,paper
1.015308,-0.057,0.987,0.15,0.062,0.99,-0.124,0.332,-0.937,0.112,0.861,-0.212,-0.463,0.723,-0.402,-0.562,0.621,0.515,0.59,0.655,0.453,0.605,0.841,0.178,0.511,0.9,0.106,0.423,0.786,0.165,0.596,0.662,0.221,0.717,0.782,0.167,0.601,0.79,0.215,0.574,paper
1.035191,-0.049,0.989,0.143,0.062,0.99,-0.124,0.332,-0.937,0.112,0.863,-0.216,-0.457,0.728,-0.307,-0.613,0.624,0.507,0.594,0.592,0.547,0.592,0.842,0.17,0.513,0.905,0.19,0.381,0.786,0.161,0.597,0.672,0.31,0.672,0.782,0.162,0.601,0.759,0.316,0.569,paper
1.059657,-0.035,0.991,0.129,-0.114,0.987,0.114,0.332,-0.937,0.112,0.858,-0.232,-0.458,0.752,-0.251,-0.609,0.637,0.493,0.593,0.59,0.551,0.59,0.847,0.15,0.509,0.867,0.206,0.454,0.786,0.151,0.6,0.656,0.375,0.656,0.79,0.148,0.595,0.732,0.366,0.575,paper
1.081763,-0.022,0.994,0.112,-0.068,0.992,0.103,0.322,-0.933,0.163,0.847,-0.256,-0.465,0.724,-0.272,-0.634,0.652,0.474,0.591,0.631,0.532,0.565,0.857,0.12,0.501,0.881,0.17,0.441,0.808,0.098,0.581,0.683,0.342,0.645,0.812,0.132,0.568,0.751,0.376,0.543,paper
1.513335,-0.011,0.995,0.103,-0.137,0.989,0.055,0.322,-0.933,0.163,0.846,-0.273,-0.458,0.686,-0.245,-0.686,0.67,0.447,0.592,0.66,0.581,0.475,0.867,0.084,0.492,0.904,0.213,0.372,0.82,0.062,0.569,0.757,0.336,0.561,0.825,0.121,0.552,0.75,0.42,0.51,paper
1.513475,0.004,0.996,0.094,-0.198,0.973,0.115,0.322,-0.933,0.163,0.842,-0.292,-0.455,0.691,-0.211,-0.691,0.678,0.434,0.593,0.66,0.598,0.454,0.866,0.077,0.494,0.902,0.225,0.369,0.815,0.062,0.576,0.782,0.296,0.549,0.821,0.117,0.559,0.756,0.389,0.527,paper
1.51361,0.004,0.995,0.103,-0.198,0.973,0.115,0.332,-0.932,0.145,0.843,-0.293,-0.451,0.707,-0.214,-0.674,0.674,0.437,0.596,0.668,0.583,0.463,0.863,0.081,0.499,0.901,0.208,0.381,0.809,0.07,0.584,0.787,0.268,0.555,0.818,0.111,0.564,0.771,0.357,0.527,paper
1.51373,-0.003,0.995,0.102,-0.159,0.982,0.101,0.332,-0.932,0.145,0.844,-0.29,-0.451,0.725,-0.218,-0.653,0.671,0.442,0.595,0.682,0.561,0.47,0.863,0.085,0.498,0.897,0.198,0.395,0.81,0.076,0.582,0.785,0.246,0.569,0.818,0.116,0.564,0.779,0.325,0.536,paper
1.513853,-0.018,0.994,0.106,-0.132,0.984,0.12,0.332,-0.932,0.145,0.845,-0.28,-0.456,0.729,-0.205,-0.653,0.673,0.448,0.589,0.665,0.572,0.479,0.867,0.093,0.489,0.892,0.213,0.399,0.817,0.08,0.571,0.783,0.256,0.567,0.82,0.13,0.557,0.775,0.31,0.55,paper
1.513993,-0.031,0.994,0.106,-0.132,0.984,0.12,0.318,-0.931,0.178,0.84,-0.276,-0.467,0.736,-0.175,-0.654,0.677,0.455,0.579,0.656,0.585,0.477,0.871,0.101,0.481,0.885,0.227,0.407,0.82,0.091,0.564,0.784,0.253,0.567,0.819,0.141,0.557,0.77,0.315,0.555,paper
1.514113,-0.039,0.993,0.11,-0.153,0.978,0.143,0.318,-0.931,0.178,0.831,-0.278,-0.483,0.747,-0.181,-0.64,0.682,0.463,0.566,0.657,0.58,0.482,0.877,0.108,0.468,0.884,0.218,0.414,0.825,0.103,0.556,0.783,0.243,0.573,0.814,0.156,0.56,0.768,0.309,0.561,paper
1.51431,-0.075,0.992,0.104,-0.153,0.978,0.143,0.284,-0.943,0.174,0.821,-0.268,-0.503,0.773,-0.186,-0.607,0.683,0.482,0.549,0.648,0.568,0.508,0.88,0.136,0.455,0.874,0.201,0.442,0.829,0.131,0.544,0.78,0.213,0.588,0.811,0.18,0.556,0.777,0.273,0.567,paper
1.514435,-0.102,0.99,0.099,-0.073,0.988,0.136,0.284,-0.943,0.174,0.815,-0.243,-0.526,0.774,-0.203,-0.599,0.678,0.51,0.529,0.653,0.559,0.511,0.885,0.159,0.437,0.873,0.199,0.446,0.837,0.151,0.526,0.78,0.209,0.59,0.815,0.201,0.543,0.777,0.266,0.571,paper
1.514554,-0.12,0.986,0.113,-0.073,0.988,0.136,0.318,-0.927,0.201,0.809,-0.221,-0.544,0.763,-0.202,-0.614,0.676,0.53,0.512,0.668,0.561,0.49,0.889,0.179,0.422,0.882,0.196,0.428,0.84,0.175,0.513,0.793,0.198,0.577,0.808,0.226,0.544,0.777,0.278,0.565,paper
1.514687,-0.148,0.98,0.13,-0.073,0.988,0.136,0.271,-0.949,0.161,0.806,-0.211,-0.553,0.765,-0.216,-0.607,0.672,0.544,0.503,0.672,0.553,0.493,0.887,0.199,0.416,0.881,0.195,0.432,0.835,0.203,0.512,0.792,0.198,0.577,0.792,0.248,0.557,0.778,0.274,0.566,paper
1.514816,-0.152,0.978,0.141,-0.112,0.986,0.12,0.271,-0.949,0.161,0.812,-0.195,-0.55,0.769,-0.216,-0.601,0.652,0.564,0.506,0.666,0.551,0.502,0.873,0.232,0.429,0.878,0.191,0.439,0.824,0.224,0.521,0.79,0.202,0.58,0.782,0.251,0.57,0.781,0.269,0.564,paper
1.514957,-0.148,0.979,0.141,-0.112,0.986,0.12,0.274,-0.928,0.254,0.821,-0.18,-0.542,0.768,-0.224,-0.6,0.637,0.576,0.513,0.669,0.546,0.504,0.865,0.245,0.439,0.879,0.183,0.44,0.812,0.236,0.533,0.786,0.203,0.583,0.778,0.244,0.579,0.786,0.262,0.559,paper
1.515082,-0.127,0.984,0.124,-0.112,0.986,0.12,0.238,-0.941,0.241,0.821,-0.183,-0.541,0.747,-0.239,-0.62,0.643,0.569,0.513,0.689,0.548,0.473,0.872,0.223,0.436,0.895,0.182,0.406,0.826,0.204,0.526,0.804,0.203,0.559,0.798,0.227,0.559,0.792,0.29,0.537,paper
1.515676,-0.117,0.988,0.106,-0.112,0.986,0.12,0.238,-0.941,0.241,0.818,-0.216,-0.534,0.722,-0.238,-0.65,0.661,0.542,0.52,0.705,0.556,0.44,0.878,0.201,0.435,0.906,0.189,0.379,0.834,0.183,0.52,0.816,0.21,0.538,0.81,0.222,0.543,0.793,0.314,0.523,paper
1.515806,-0.105,0.992,0.064,-0.216,0.974,0.072,0.238,-0.941,0.241,0.817,-0.248,-0.521,0.725,-0.213,-0.654,0.678,0.512,0.527,0.688,0.582,0.434,0.885,0.172,0.433,0.9,0.221,0.376,0.837,0.171,0.519,0.811,0.234,0.535,0.815,0.224,0.535,0.776,0.336,0.534,paper
1.515947,-0.105,0.993,0.049,-0.191,0.964,0.183,0.217,-0.931,0.293,0.816,-0.269,-0.512,0.75,-0.166,-0.64,0.683,0.498,0.534,0.645,0.62,0.447,0.885,0.163,0.437,0.88,0.263,0.395,0.835,0.167,0.524,0.783,0.278,0.556,0.817,0.217,0.534,0.74,0.348,0.575,paper
1.516071,-0.099,0.995,0.023,-0.191,0.964,0.183,0.217,-0.931,0.293,0.802,-0.298,-0.518,0.77,-0.128,-0.625,0.696,0.484,0.53,0.601,0.643,0.476,0.892,0.146,0.429,0.852,0.292,0.434,0.844,0.147,0.516,0.749,0.306,0.587,0.827,0.207,0.523,0.708,0.354,0.611,paper
1.516191,-0.102,0.995,-0.004,-0.15,0.952,0.267,0.217,-0.931,0.293,0.787,-0.322,-0.526,0.787,-0.105,-0.608,0.725,0.459,0.514,0.568,0.652,0.502,0.908,0.113,0.403,0.828,0.309,0.468,0.862,0.118,0.493,0.718,0.325,0.615,0.844,0.202,0.496,0.676,0.347,0.65,paper
1.527595,-0.123,0.992,-0.031,-0.072,0.948,0.311,0.217,-0.931,0.293,0.754,-0.351,-0.555,0.826,-0.071,-0.559,0.757,0.445,0.479,0.523,0.654,0.547,0.924,0.105,0.369,0.797,0.312,0.517,0.879,0.111,0.464,0.687,0.318,0.653,0.854,0.209,0.477,0.66,0.304,0.687,paper
1.544608,-0.143,0.99,-0.019,-0.072,0.948,0.311,0.217,-0.931,0.293,0.75,-0.338,-0.568,0.849,-0.069,-0.525,0.756,0.46,0.466,0.514,0.634,0.578,0.926,0.112,0.36,0.785,0.299,0.542,0.881,0.117,0.459,0.669,0.306,0.677,0.852,0.216,0.477,0.654,0.272,0.705,paper
1.566071,-0.142,0.99,0.023,-0.016,0.955,0.297,0.217,-0.931,0.293,0.767,-0.297,-0.569,0.861,-0.082,-0.502,0.73,0.492,0.475,0.508,0.617,0.601,0.915,0.144,0.377,0.776,0.282,0.564,0.867,0.149,0.475,0.657,0.288,0.697,0.835,0.231,0.5,0.656,0.246,0.713,paper
1.58991,-0.137,0.982,0.13,-0.022,0.956,0.291,0.139,-0.954,0.267,0.803,-0.232,-0.55,0.869,-0.08,-0.489,0.673,0.541,0.505,0.501,0.608,0.616,0.88,0.215,0.423,0.766,0.278,0.58,0.827,0.215,0.519,0.635,0.294,0.714,0.785,0.251,0.566,0.641,0.216,0.737,paper
1.611451,-0.14,0.976,0.167,0.023,0.944,0.328,0.14,-0.956,0.258,0.831,-0.178,-0.527,0.878,-0.075,-0.473,0.614,0.589,0.526,0.475,0.602,0.642,0.842,0.28,0.461,0.747,0.278,0.604,0.782,0.276,0.56,0.612,0.294,0.734,0.748,0.252,0.614,0.623,0.199,0.756,paper
2.023186,-0.144,0.975,0.171,0.023,0.944,0.328,0.14,-0.956,0.258,0.838,-0.149,-0.526,0.887,-0.073,-0.456,0.592,0.61,0.527,0.463,0.606,0.648,0.834,0.297,0.464,0.737,0.274,0.617,0.779,0.281,0.561,0.609,0.287,0.739,0.754,0.245,0.609,0.626,0.206,0.752,paper
2.023347,-0.151,0.976,0.155,-0.019,0.954,0.299,0.14,-0.956,0.258,0.814,-0.158,-0.559,0.876,-0.078,-0.477,0.627,0.601,0.495,0.486,0.609,0.627,0.865,0.263,0.427,0.761,0.272,0.589,0.813,0.242,0.53,0.642,0.28,0.714,0.786,0.238,0.57,0.658,0.238,0.715,paper
2.023475,-0.162,0.981,0.111,-0.019,0.954,0.299,0.104,-0.944,0.313,0.781,-0.207,-0.589,0.842,-0.129,-0.524,0.691,0.55,0.469,0.56,0.595,0.577,0.907,0.183,0.38,0.808,0.246,0.536,0.863,0.163,0.478,0.697,0.256,0.67,0.828,0.239,0.508,0.702,0.277,0.656,paper
2.023596,-0.114,0.985,0.126,-0.179,0.968,0.179,0.104,-0.944,0.313,0.781,-0.236,-0.578,0.798,-0.136,-0.587,0.709,0.516,0.481,0.604,0.612,0.511,0.913,0.152,0.379,0.842,0.263,0.471,0.87,0.146,0.47,0.738,0.283,0.613,0.827,0.26,0.498,0.714,0.313,0.626,paper
2.023715,-0.13,0.98,0.153,-0.179,0.955,0.237,0.104,-0.944,0.313,0.799,-0.224,-0.557,0.803,-0.109,-0.585,0.676,0.541,0.501,0.587,0.629,0.509,0.886,0.212,0.412,0.829,0.297,0.474,0.832,0.224,0.507,0.724,0.308,0.617,0.773,0.29,0.564,0.689,0.315,0.652,paper
2.023831,-0.167,0.97,0.175,-0.179,0.955,0.237,0.042,-0.952,0.303,0.82,-0.159,-0.55,0.841,-0.073,-0.536,0.612,0.608,0.505,0.541,0.645,0.541,0.845,0.308,0.437,0.799,0.315,0.512,0.784,0.315,0.534,0.691,0.32,0.648,0.73,0.312,0.608,0.658,0.307,0.687,paper
2.023962,-0.248,0.954,0.171,-0.072,0.935,0.348,0.042,-0.952,0.303,0.813,-0.105,-0.572,0.853,-0.051,-0.52,0.577,0.665,0.474,0.506,0.664,0.551,0.831,0.362,0.421,0.777,0.335,0.533,0.778,0.356,0.517,0.669,0.338,0.662,0.729,0.332,0.599,0.636,0.322,0.701,paper
2.02408,-0.26,0.954,0.148,-0.1,0.928,0.359,0.042,-0.952,0.303,0.782,-0.132,-0.609,0.848,-0.039,-0.529,0.618,0.648,0.445,0.494,0.68,0.542,0.861,0.335,0.382,0.771,0.361,0.525,0.812,0.332,0.481,0.659,0.362,0.659,0.746,0.348,0.568,0.625,0.342,0.702,paper
2.024212,-0.265,0.954,0.14,-0.132,0.923,0.361,0.042,-0.952,0.303,0.758,-0.176,-0.628,0.848,-0.032,-0.528,0.667,0.61,0.427,0.474,0.674,0.566,0.887,0.291,0.358,0.756,0.357,0.548,0.833,0.303,0.463,0.629,0.361,0.688,0.746,0.356,0.563,0.61,0.305,0.732,paper
2.024346,-0.21,0.962,0.175,-0.132,0.923,0.361,-0.035,-0.942,0.334,0.771,-0.18,-0.611,0.881,-0.062,-0.468,0.661,0.605,0.444,0.442,0.63,0.638,0.882,0.283,0.378,0.727,0.31,0.613,0.822,0.296,0.486,0.588,0.319,0.743,0.739,0.336,0.584,0.595,0.221,0.773,paper
2.024466,-0.171,0.963,0.208,-0.132,0.923,0.361,-0.035,-0.942,0.334,0.806,-0.146,-0.574,0.897,-0.069,-0.437,0.623,0.617,0.482,0.424,0.608,0.672,0.857,0.296,0.422,0.709,0.284,0.646,0.797,0.301,0.524,0.573,0.295,0.764,0.733,0.308,0.606,0.583,0.183,0.791,paper
2.02459,-0.136,0.961,0.24,0.085,0.931,0.354,-0.035,-0.942,0.334,0.831,-0.114,-0.544,0.895,-0.068,-0.44,0.58,0.632,0.515,0.43,0.606,0.669,0.828,0.318,0.462,0.709,0.284,0.646,0.775,0.301,0.556,0.58,0.286,0.763,0.731,0.271,0.626,0.597,0.191,0.779,paper
2.024709,-0.091,0.961,0.261,0.046,0.934,0.355,-0.081,-0.91,0.406,0.85,-0.083,-0.52,0.873,-0.077,-0.482,0.556,0.639,0.531,0.484,0.619,0.619,0.812,0.324,0.485,0.754,0.294,0.587,0.758,0.294,0.582,0.63,0.295,0.718,0.722,0.24,0.649,0.632,0.233,0.74,paper
2.02483,-0.098,0.963,0.252,0.046,0.934,0.355,-0.085,-0.93,0.359,0.849,-0.103,-0.518,0.851,-0.124,-0.511,0.567,0.628,0.533,0.542,0.598,0.59,0.812,0.317,0.491,0.793,0.256,0.553,0.745,0.3,0.596,0.675,0.257,0.691,0.704,0.229,0.673,0.683,0.233,0.692,paper
2.025263,-0.105,0.971,0.216,-0.04,0.984,0.175,-0.085,-0.93,0.359,0.841,-0.137,-0.523,0.839,-0.188,-0.51,0.587,0.609,0.533,0.593,0.545,0.593,0.827,0.289,0.483,0.817,0.194,0.542,0.756,0.279,0.593,0.702,0.196,0.685,0.721,0.216,0.659,0.731,0.195,0.654,paper
2.025394,-0.099,0.986,0.136,-0.0,0.994,0.112,-0.085,-0.93,0.359,0.818,-0.195,-0.541,0.826,-0.27,-0.494,0.643,0.564,0.518,0.648,0.48,0.592,0.862,0.228,0.452,0.845,0.113,0.523,0.802,0.216,0.556,0.73,0.123,0.672,0.77,0.21,0.603,0.782,0.153,0.604,paper
2.02553,-0.092,0.989,0.116,0.008,0.998,0.062,-0.085,-0.93,0.359,0.808,-0.226,-0.544,0.808,-0.304,-0.504,0.676,0.529,0.513,0.682,0.452,0.575,0.888,0.175,0.425,0.86,0.084,0.503,0.838,0.163,0.521,0.753,0.094,0.651,0.806,0.216,0.552,0.804,0.146,0.577,paper
2.025651,-0.09,0.99,0.106,-0.014,0.999,0.05,-0.085,-0.93,0.359,0.801,-0.252,-0.543,0.795,-0.29,-0.532,0.695,0.504,0.513,0.685,0.471,0.556,0.899,0.151,0.41,0.865,0.106,0.489,0.855,0.141,0.5,0.759,0.109,0.642,0.819,0.232,0.525,0.796,0.171,0.58,paper
2.031802,-0.111,0.987,0.116,-0.052,0.994,0.097,-0.125,-0.933,0.338,0.802,-0.252,-0.542,0.8,-0.248,-0.546,0.689,0.517,0.509,0.662,0.507,0.552,0.896,0.168,0.411,0.856,0.148,0.496,0.848,0.172,0.502,0.756,0.151,0.637,0.807,0.252,0.534,0.776,0.196,0.6,paper
2.048334,-0.116,0.983,0.139,-0.052,0.994,0.097,-0.125,-0.933,0.338,0.81,-0.229,-0.539,0.81,-0.218,-0.544,0.667,0.541,0.512,0.64,0.534,0.553,0.882,0.207,0.424,0.844,0.179,0.505,0.833,0.208,0.514,0.747,0.182,0.64,0.789,0.269,0.553,0.758,0.212,0.617,paper
2.070006,-0.14,0.977,0.159,-0.058,0.98,0.19,-0.125,-0.933,0.338,0.819,-0.184,-0.543,0.815,-0.182,-0.551,0.638,0.577,0.51,0.614,0.567,0.549,0.869,0.251,0.427,0.836,0.221,0.502,0.821,0.246,0.515,0.736,0.223,0.639,0.772,0.289,0.566,0.734,0.241,0.635,paper
2.09483,-0.19,0.964,0.186,-0.092,0.963,0.252,-0.125,-0.933,0.338,0.811,-0.154,-0.565,0.813,-0.145,-0.563,0.626,0.611,0.484,0.588,0.606,0.536,0.867,0.285,0.41,0.827,0.258,0.499,0.816,0.281,0.505,0.728,0.258,0.634,0.755,0.314,0.575,0.717,0.277,0.639,paper
2.115816,-0.203,0.962,0.185,-0.092,0.963,0.252,-0.202,-0.911,0.359,0.794,-0.149,-0.589,0.807,-0.133,-0.576,0.635,0.619,0.462,0.582,0.622,0.524,0.874,0.291,0.389,0.824,0.276,0.495,0.827,0.284,0.485,0.729,0.276,0.626,0.763,0.322,0.56,0.71,0.298,0.638,paper
2.530531,-0.2,0.966,0.166,-0.092,0.963,0.252,-0.183,-0.906,0.381,0.782,-0.152,-0.604,0.788,-0.124,-0.603,0.647,0.618,0.446,0.591,0.636,0.496,0.886,0.28,0.369,0.835,0.288,0.468,0.845,0.265,0.465,0.743,0.293,0.602,0.784,0.32,0.531,0.704,0.332,0.628,paper
2.533099,-0.187,0.973,0.135,-0.198,0.953,0.23,-0.183,-0.906,0.381,0.763,-0.188,-0.618,0.759,-0.118,-0.641,0.682,0.593,0.428,0.607,0.65,0.457,0.904,0.252,0.345,0.849,0.304,0.432,0.863,0.241,0.445,0.761,0.307,0.572,0.794,0.314,0.521,0.709,0.365,0.604,paper
2.533238,-0.179,0.981,0.08,-0.218,0.953,0.213,-0.183,-0.906,0.381,0.747,-0.222,-0.627,0.755,-0.14,-0.641,0.706,0.575,0.413,0.623,0.639,0.452,0.914,0.235,0.33,0.86,0.287,0.422,0.868,0.234,0.439,0.773,0.292,0.564,0.798,0.301,0.521,0.725,0.354,0.591,paper
2.533383,-0.176,0.982,0.068,-0.185,0.965,0.185,-0.183,-0.906,0.381,0.74,-0.236,-0.63,0.75,-0.165,-0.64,0.717,0.565,0.408,0.65,0.614,0.448,0.924,0.213,0.317,0.87,0.262,0.418,0.882,0.21,0.422,0.787,0.268,0.555,0.824,0.291,0.486,0.743,0.351,0.57,paper
2.53352,-0.178,0.983,0.04,-0.221,0.965,0.141,-0.258,-0.913,0.316,0.733,-0.263,-0.628,0.728,-0.183,-0.661,0.737,0.54,0.406,0.671,0.608,0.423,0.934,0.187,0.305,0.884,0.256,0.391,0.899,0.174,0.401,0.804,0.268,0.531,0.847,0.289,0.445,0.753,0.366,0.547,paper
2.533652,-0.167,0.986,0.004,-0.221,0.965,0.141,-0.258,-0.913,0.316,0.736,-0.291,-0.612,0.719,-0.176,-0.672,0.751,0.51,0.42,0.669,0.622,0.407,0.939,0.157,0.307,0.886,0.275,0.373,0.903,0.158,0.4,0.806,0.287,0.518,0.852,0.289,0.437,0.747,0.381,0.545,paper
2.533769,-0.146,0.989,0.008,-0.221,0.965,0.141,-0.258,-0.913,0.316,0.746,-0.308,-0.591,0.719,-0.151,-0.679,0.751,0.497,0.435,0.653,0.64,0.405,0.936,0.15,0.317,0.878,0.296,0.376,0.897,0.159,0.413,0.798,0.308,0.517,0.843,0.283,0.457,0.735,0.389,0.555,paper
2.533899,-0.12,0.992,0.044,-0.225,0.951,0.212,-0.319,-0.912,0.258,0.769,-0.3,-0.565,0.734,-0.134,-0.665,0.728,0.509,0.459,0.632,0.649,0.424,0.918,0.181,0.352,0.865,0.306,0.398,0.873,0.191,0.45,0.779,0.319,0.54,0.815,0.276,0.509,0.717,0.383,0.582,paper
2.534033,-0.115,0.992,0.054,-0.197,0.953,0.231,-0.319,-0.912,0.258,0.791,-0.285,-0.541,0.754,-0.123,-0.645,0.695,0.533,0.483,0.613,0.648,0.452,0.892,0.227,0.392,0.852,0.308,0.424,0.832,0.246,0.497,0.764,0.312,0.565,0.781,0.267,0.564,0.707,0.363,0.606,paper
2.534151,-0.129,0.991,0.042,-0.197,0.953,0.231,-0.344,-0.907,0.242,0.8,-0.267,-0.538,0.778,-0.124,-0.616,0.675,0.554,0.487,0.6,0.641,0.479,0.881,0.248,0.404,0.84,0.299,0.453,0.823,0.255,0.507,0.748,0.297,0.593,0.783,0.249,0.571,0.705,0.338,0.623,paper
2.534268,-0.141,0.99,0.0,-0.197,0.953,0.231,-0.336,-0.915,0.224,0.79,-0.27,-0.55,0.793,-0.141,-0.593,0.697,0.542,0.469,0.601,0.63,0.492,0.899,0.219,0.38,0.84,0.282,0.464,0.849,0.217,0.482,0.749,0.283,0.6,0.817,0.236,0.526,0.711,0.333,0.619,paper
2.534388,-0.151,0.988,-0.035,-0.131,0.965,0.226,-0.336,-0.915,0.224,0.736,-0.335,-0.589,0.791,-0.152,-0.593,0.759,0.495,0.423,0.614,0.619,0.489,0.932,0.16,0.325,0.846,0.27,0.459,0.891,0.157,0.425,0.76,0.268,0.592,0.856,0.231,0.463,0.726,0.326,0.605,paper
2.53451,-0.161,0.984,-0.071,-0.137,0.969,0.205,-0.336,-0.915,0.224,0.68,-0.377,-0.629,0.792,-0.178,-0.584,0.809,0.455,0.372,0.63,0.59,0.504,0.961,0.101,0.257,0.853,0.234,0.467,0.922,0.116,0.369,0.761,0.23,0.606,0.87,0.254,0.423,0.743,0.293,0.602,paper
2.534628,-0.198,0.979,-0.05,-0.137,0.969,0.205,-0.401,-0.893,0.203,0.662,-0.38,-0.646,0.808,-0.208,-0.551,0.819,0.452,0.353,0.642,0.549,0.535,0.966,0.106,0.237,0.847,0.19,0.497,0.928,0.129,0.349,0.753,0.191,0.63,0.862,0.293,0.413,0.752,0.237,0.615,paper
2.534973,-0.22,0.975,-0.022,-0.014,0.983,0.18,-0.401,-0.893,0.203,0.688,-0.333,-0.645,0.82,-0.214,-0.531,0.786,0.494,0.372,0.626,0.537,0.565,0.952,0.158,0.262,0.834,0.183,0.52,0.913,0.174,0.368,0.736,0.185,0.651,0.842,0.32,0.435,0.745,0.209,0.633,paper
2.535106,-0.22,0.975,0.022,-0.014,0.983,0.18,-0.412,-0.898,0.155,0.728,-0.275,-0.629,0.828,-0.206,-0.522,0.729,0.555,0.401,0.611,0.541,0.578,0.923,0.232,0.308,0.821,0.19,0.538,0.881,0.238,0.409,0.719,0.193,0.668,0.812,0.329,0.482,0.733,0.196,0.651,paper
2.535229,-0.206,0.974,0.092,-0.009,0.975,0.224,-0.441,-0.877,0.191,0.768,-0.213,-0.604,0.834,-0.197,-0.515,0.675,0.6,0.429,0.593,0.55,0.588,0.893,0.281,0.351,0.813,0.2,0.547,0.842,0.284,0.458,0.707,0.202,0.678,0.781,0.318,0.538,0.717,0.197,0.668,paper
2.53536,-0.185,0.976,0.116,-0.009,0.975,0.224,-0.442,-0.885,0.149,0.785,-0.191,-0.589,0.834,-0.193,-0.516,0.651,0.614,0.447,0.59,0.551,0.59,0.88,0.294,0.373,0.812,0.201,0.548,0.826,0.294,0.48,0.702,0.204,0.682,0.771,0.306,0.558,0.716,0.193,0.671,paper
2.538959,-0.173,0.977,0.128,-0.009,0.975,0.224,-0.451,-0.884,0.123,0.791,-0.192,-0.581,0.836,-0.19,-0.515,0.647,0.608,0.46,0.589,0.553,0.589,0.878,0.285,0.383,0.811,0.202,0.549,0.828,0.282,0.485,0.7,0.206,0.684,0.78,0.3,0.55,0.715,0.205,0.668,paper
2.562312,-0.156,0.984,0.09,-0.009,0.975,0.224,-0.451,-0.884,0.123,0.78,-0.218,-0.586,0.828,-0.173,-0.533,0.676,0.579,0.455,0.589,0.574,0.569,0.897,0.242,0.37,0.814,0.22,0.538,0.851,0.237,0.468,0.706,0.23,0.67,0.801,0.292,0.523,0.709,0.231,0.666,paper
2.583709,-0.152,0.985,0.079,-0.073,0.968,0.238,-0.451,-0.884,0.123,0.768,-0.252,-0.589,0.824,-0.166,-0.542,0.703,0.55,0.451,0.586,0.581,0.565,0.908,0.214,0.359,0.811,0.233,0.537,0.86,0.219,0.461,0.702,0.239,0.671,0.801,0.292,0.522,0.702,0.239,0.67,paper
2.605257,-0.154,0.984,0.093,-0.06,0.967,0.246,-0.451,-0.884,0.123,0.77,-0.246,-0.589,0.836,-0.157,-0.526,0.698,0.56,0.447,0.571,0.581,0.581,0.902,0.235,0.361,0.805,0.235,0.545,0.853,0.24,0.463,0.691,0.241,0.681,0.79,0.307,0.531,0.693,0.229,0.683,paper
2.629909,-0.216,0.969,0.12,-0.015,0.959,0.282,-0.451,-0.884,0.123,0.773,-0.208,-0.599,0.845,-0.138,-0.516,0.67,0.598,0.44,0.548,0.589,0.594,0.888,0.283,0.363,0.791,0.245,0.561,0.836,0.291,0.464,0.672,0.249,0.697,0.768,0.336,0.545,0.68,0.218,0.7,paper
3.042262,-0.246,0.96,0.13,-0.005,0.953,0.302,-0.451,-0.884,0.123,0.771,-0.17,-0.614,0.853,-0.125,-0.507,0.647,0.634,0.423,0.534,0.59,0.606,0.874,0.329,0.358,0.778,0.256,0.573,0.82,0.333,0.465,0.659,0.259,0.706,0.746,0.355,0.563,0.667,0.212,0.714,paper
3.04242,-0.257,0.955,0.147,-0.005,0.953,0.302,-0.485,-0.872,0.068,0.773,-0.129,-0.621,0.86,-0.12,-0.495,0.615,0.671,0.414,0.527,0.59,0.612,0.856,0.373,0.357,0.769,0.26,0.584,0.803,0.374,0.464,0.651,0.253,0.716,0.731,0.373,0.571,0.664,0.208,0.718,paper
3.042551,-0.295,0.938,0.181,-0.012,0.95,0.311,-0.486,-0.871,0.066,0.77,-0.084,-0.633,0.859,-0.1,-0.502,0.589,0.702,0.401,0.514,0.61,0.604,0.843,0.406,0.352,0.769,0.277,0.577,0.795,0.4,0.456,0.651,0.274,0.708,0.717,0.4,0.57,0.659,0.227,0.717,paper
3.042675,-0.311,0.931,0.189,-0.012,0.95,0.311,-0.473,-0.88,0.031,0.756,-0.093,-0.647,0.854,-0.094,-0.512,0.601,0.699,0.387,0.51,0.617,0.599,0.851,0.4,0.341,0.769,0.286,0.572,0.8,0.396,0.451,0.653,0.288,0.701,0.714,0.403,0.573,0.655,0.241,0.716,paper
3.042794,-0.294,0.938,0.183,-0.012,0.95,0.311,-0.508,-0.86,0.035,0.754,-0.127,-0.644,0.85,-0.103,-0.516,0.637,0.661,0.397,0.513,0.616,0.598,0.878,0.34,0.336,0.769,0.281,0.574,0.831,0.336,0.443,0.654,0.281,0.703,0.746,0.384,0.544,0.65,0.246,0.719,paper
3.042939,-0.205,0.961,0.187,-0.054,0.95,0.308,-0.508,-0.86,0.035,0.758,-0.148,-0.635,0.842,-0.088,-0.532,0.658,0.631,0.411,0.514,0.632,0.579,0.889,0.305,0.342,0.77,0.3,0.564,0.837,0.311,0.45,0.656,0.302,0.692,0.747,0.372,0.551,0.645,0.262,0.718,paper
3.043072,-0.205,0.956,0.209,-0.067,0.948,0.311,-0.508,-0.86,0.035,0.763,-0.146,-0.629,0.846,-0.108,-0.522,0.645,0.643,0.413,0.518,0.61,0.599,0.874,0.328,0.359,0.773,0.275,0.572,0.81,0.337,0.48,0.652,0.283,0.704,0.727,0.348,0.592,0.657,0.237,0.716,paper
3.043293,-0.185,0.964,0.191,-0.017,0.958,0.288,-0.508,-0.86,0.035,0.78,-0.121,-0.615,0.845,-0.142,-0.516,0.619,0.658,0.429,0.544,0.59,0.596,0.865,0.336,0.373,0.783,0.246,0.571,0.811,0.323,0.487,0.67,0.248,0.699,0.747,0.323,0.581,0.677,0.226,0.701,paper
3.043414,-0.208,0.962,0.174,-0.078,0.975,0.206,-0.521,-0.853,0.019,0.771,-0.127,-0.624,0.824,-0.162,-0.543,0.631,0.652,0.42,0.589,0.583,0.56,0.875,0.322,0.362,0.818,0.239,0.523,0.825,0.311,0.472,0.709,0.24,0.663,0.756,0.332,0.564,0.711,0.247,0.658,paper
3.043535,-0.208,0.962,0.174,-0.087,0.98,0.179,-0.521,-0.853,0.019,0.76,-0.141,-0.634,0.812,-0.181,-0.554,0.65,0.642,0.407,0.61,0.571,0.549,0.882,0.32,0.348,0.832,0.223,0.508,0.824,0.325,0.464,0.728,0.22,0.649,0.739,0.353,0.574,0.732,0.238,0.639,paper
3.043659,-0.241,0.95,0.198,-0.087,0.98,0.179,-0.515,-0.854,-0.074,0.758,-0.139,-0.637,0.818,-0.213,-0.534,0.646,0.648,0.403,0.621,0.538,0.571,0.874,0.338,0.349,0.829,0.187,0.527,0.811,0.35,0.47,0.725,0.184,0.664,0.716,0.368,0.593,0.748,0.2,0.633,paper
3.043776,-0.225,0.949,0.218,0.027,0.988,0.15,-0.517,-0.855,-0.035,0.771,-0.115,-0.627,0.826,-0.25,-0.505,0.614,0.67,0.418,0.626,0.499,0.599,0.855,0.364,0.37,0.826,0.143,0.545,0.795,0.363,0.487,0.719,0.145,0.68,0.711,0.362,0.602,0.759,0.154,0.633,paper
3.043901,-0.225,0.949,0.218,0.038,0.991,0.131,-0.523,-0.847,-0.093,0.79,-0.088,-0.606,0.823,-0.267,-0.501,0.594,0.674,0.44,0.637,0.486,0.598,0.847,0.36,0.391,0.833,0.128,0.539,0.794,0.347,0.499,0.726,0.129,0.675,0.724,0.347,0.596,0.767,0.149,0.624,paper
3.044023,-0.174,0.956,0.237,0.038,0.991,0.131,-0.523,-0.847,-0.093,0.808,-0.074,-0.585,0.806,-0.265,-0.53,0.582,0.669,0.462,0.652,0.502,0.568,0.842,0.349,0.411,0.852,0.144,0.503,0.795,0.329,0.51,0.745,0.151,0.65,0.735,0.334,0.59,0.775,0.182,0.604,paper
3.044574,-0.156,0.958,0.241,0.038,0.991,0.131,-0.523,-0.847,-0.093,0.822,-0.084,-0.564,0.783,-0.252,-0.569,0.577,0.658,0.484,0.667,0.524,0.529,0.84,0.335,0.427,0.865,0.169,0.473,0.785,0.325,0.527,0.766,0.176,0.618,0.729,0.323,0.604,0.778,0.226,0.586,paper
3.044712,-0.133,0.966,0.223,-0.133,0.981,0.144,-0.5,-0.853,-0.151,0.832,-0.12,-0.542,0.777,-0.229,-0.586,0.587,0.63,0.508,0.664,0.55,0.506,0.838,0.317,0.444,0.868,0.194,0.458,0.781,0.311,0.541,0.767,0.203,0.608,0.728,0.314,0.609,0.771,0.264,0.58,paper
3.044834,-0.132,0.971,0.2,-0.133,0.976,0.171,-0.5,-0.853,-0.151,0.833,-0.132,-0.537,0.777,-0.196,-0.598,0.605,0.614,0.508,0.644,0.585,0.494,0.847,0.298,0.44,0.862,0.235,0.45,0.797,0.29,0.53,0.765,0.244,0.597,0.753,0.312,0.58,0.749,0.307,0.587,paper
3.044958,-0.145,0.973,0.178,-0.133,0.976,0.171,-0.497,-0.856,-0.143,0.82,-0.148,-0.552,0.766,-0.145,-0.626,0.622,0.605,0.498,0.625,0.625,0.467,0.868,0.274,0.414,0.853,0.288,0.435,0.823,0.264,0.503,0.759,0.295,0.58,0.772,0.321,0.549,0.722,0.358,0.592,paper
3.045883,-0.17,0.973,0.156,-0.133,0.976,0.171,-0.469,-0.866,-0.176,0.805,-0.175,-0.567,0.75,-0.095,-0.655,0.651,0.587,0.481,0.599,0.67,0.438,0.883,0.257,0.392,0.841,0.337,0.423,0.835,0.261,0.485,0.749,0.344,0.567,0.772,0.332,0.543,0.693,0.398,0.6,paper
3.063217,-0.174,0.974,0.144,-0.248,0.927,0.282,-0.469,-0.866,-0.176,0.781,-0.193,-0.594,0.757,-0.068,-0.65,0.67,0.594,0.445,0.578,0.686,0.441,0.887,0.283,0.364,0.825,0.358,0.437,0.828,0.299,0.475,0.736,0.358,0.574,0.744,0.346,0.571,0.676,0.398,0.62,paper
3.084634,-0.222,0.965,0.137,-0.195,0.936,0.294,-0.469,-0.866,-0.176,0.747,-0.179,-0.64,0.779,-0.089,-0.62,0.663,0.643,0.383,0.582,0.661,0.474,0.876,0.353,0.328,0.826,0.323,0.463,0.82,0.352,0.45,0.735,0.323,0.596,0.741,0.356,0.569,0.694,0.37,0.617,paper
3.108405,-0.298,0.953,0.061,-0.195,0.936,0.294,-0.447,-0.855,-0.262,0.711,-0.167,-0.683,0.778,-0.134,-0.613,0.682,0.648,0.339,0.618,0.629,0.471,0.907,0.323,0.271,0.85,0.283,0.443,0.868,0.311,0.388,0.76,0.28,0.586,0.795,0.367,0.483,0.725,0.362,0.586,paper
3.130227,-0.3,0.952,0.052,-0.202,0.967,0.155,-0.461,-0.832,-0.308,0.683,-0.221,-0.696,0.754,-0.165,-0.635,0.731,0.599,0.327,0.65,0.614,0.449,0.932,0.267,0.245,0.865,0.273,0.422,0.892,0.276,0.359,0.778,0.273,0.566,0.8,0.39,0.457,0.738,0.356,0.573,paper
3.552375,-0.291,0.955,0.06,-0.202,0.967,0.155,-0.461,-0.832,-0.308,0.692,-0.242,-0.68,0.763,-0.174,-0.623,0.742,0.576,0.345,0.642,0.602,0.475,0.932,0.252,0.259,0.858,0.256,0.446,0.886,0.274,0.374,0.765,0.263,0.588,0.779,0.399,0.484,0.736,0.321,0.596,paper
3.552674,-0.225,0.961,0.161,-0.075,0.975,0.207,-0.461,-0.832,-0.308,0.739,-0.184,-0.649,0.787,-0.182,-0.59,0.686,0.617,0.385,0.625,0.585,0.517,0.898,0.306,0.314,0.842,0.243,0.482,0.847,0.319,0.425,0.745,0.25,0.618,0.744,0.388,0.544,0.732,0.281,0.621,paper
3.552813,-0.208,0.932,0.296,-0.061,0.977,0.202,-0.436,-0.849,-0.299,0.796,-0.077,-0.6,0.798,-0.192,-0.572,0.564,0.703,0.434,0.622,0.568,0.538,0.812,0.428,0.396,0.837,0.225,0.499,0.747,0.43,0.507,0.738,0.233,0.634,0.66,0.375,0.651,0.735,0.252,0.629,paper
3.552957,-0.215,0.929,0.3,-0.051,0.981,0.188,-0.436,-0.849,-0.299,0.838,0.022,-0.546,0.816,-0.211,-0.539,0.455,0.755,0.473,0.63,0.552,0.546,0.732,0.503,0.459,0.843,0.215,0.492,0.669,0.489,0.559,0.741,0.217,0.635,0.619,0.358,0.699,0.743,0.244,0.624,paper
3.553092,-0.207,0.934,0.292,-0.083,0.983,0.166,-0.436,-0.849,-0.299,0.863,0.057,-0.502,0.787,-0.212,-0.58,0.406,0.766,0.498,0.645,0.563,0.516,0.707,0.512,0.488,0.858,0.218,0.464,0.645,0.492,0.585,0.759,0.225,0.611,0.616,0.336,0.713,0.757,0.275,0.592,paper
3.553215,-0.181,0.945,0.273,-0.083,0.983,0.166,-0.346,-0.858,-0.38,0.859,-0.001,-0.512,0.761,-0.225,-0.609,0.463,0.728,0.506,0.668,0.568,0.481,0.736,0.467,0.491,0.875,0.214,0.434,0.661,0.459,0.593,0.783,0.223,0.581,0.627,0.321,0.71,0.774,0.303,0.556,paper
3.553337,-0.183,0.956,0.23,-0.174,0.979,0.11,-0.346,-0.858,-0.38,0.841,-0.074,-0.536,0.757,-0.25,-0.603,0.528,0.688,0.497,0.685,0.544,0.484,0.781,0.413,0.468,0.883,0.18,0.434,0.71,0.404,0.576,0.79,0.192,0.583,0.659,0.315,0.683,0.799,0.288,0.528,paper
3.553467,-0.193,0.963,0.19,-0.12,0.99,0.077,-0.346,-0.858,-0.38,0.819,-0.136,-0.557,0.772,-0.281,-0.571,0.583,0.651,0.487,0.699,0.493,0.518,0.818,0.364,0.445,0.882,0.132,0.453,0.747,0.366,0.555,0.777,0.137,0.615,0.69,0.328,0.645,0.818,0.229,0.528,paper
3.553584,-0.206,0.965,0.164,-0.12,0.99,0.077,-0.3,-0.851,-0.431,0.823,-0.164,-0.543,0.807,-0.295,-0.512,0.603,0.62,0.503,0.67,0.453,0.588,0.828,0.334,0.45,0.848,0.1,0.52,0.761,0.343,0.551,0.721,0.112,0.684,0.706,0.336,0.623,0.781,0.156,0.605,paper
3.553703,-0.189,0.965,0.182,-0.12,0.99,0.077,-0.3,-0.851,-0.431,0.833,-0.16,-0.529,0.854,-0.244,-0.46,0.587,0.621,0.519,0.589,0.471,0.657,0.82,0.336,0.464,0.797,0.128,0.59,0.758,0.34,0.558,0.664,0.141,0.734,0.708,0.331,0.624,0.723,0.115,0.681,paper
3.55382,-0.18,0.96,0.212,0.144,0.958,0.247,-0.3,-0.851,-0.431,0.835,-0.115,-0.538,0.89,-0.192,-0.414,0.565,0.648,0.511,0.522,0.502,0.69,0.808,0.358,0.467,0.748,0.171,0.641,0.744,0.355,0.566,0.605,0.173,0.777,0.695,0.328,0.639,0.681,0.1,0.725,paper
3.553947,-0.199,0.938,0.285,0.175,0.932,0.318,-0.3,-0.864,-0.405,0.841,-0.059,-0.538,0.903,-0.165,-0.396,0.521,0.689,0.504,0.489,0.512,0.706,0.779,0.406,0.477,0.734,0.186,0.653,0.713,0.398,0.577,0.582,0.186,0.792,0.659,0.34,0.671,0.647,0.086,0.757,paper
3.554071,-0.214,0.926,0.31,0.175,0.932,0.318,-0.313,-0.86,-0.403,0.841,0.004,-0.541,0.918,-0.133,-0.374,0.478,0.725,0.496,0.468,0.493,0.733,0.75,0.454,0.481,0.715,0.182,0.676,0.675,0.451,0.584,0.56,0.182,0.808,0.613,0.366,0.7,0.635,0.068,0.77,paper
3.554189,-0.237,0.904,0.356,0.268,0.915,0.3,-0.313,-0.86,-0.403,0.838,0.045,-0.544,0.939,-0.13,-0.318,0.43,0.765,0.48,0.439,0.454,0.776,0.697,0.525,0.489,0.689,0.168,0.705,0.627,0.511,0.588,0.531,0.152,0.834,0.563,0.387,0.73,0.623,-0.0,0.782,paper
3.55493,-0.285,0.88,0.381,0.495,0.833,0.248,-0.279,-0.859,-0.43,0.841,0.105,-0.531,0.967,-0.181,-0.181,0.375,0.792,0.481,0.38,0.34,0.86,0.667,0.557,0.495,0.619,0.092,0.78,0.597,0.541,0.592,0.419,0.088,0.904,0.548,0.399,0.735,0.567,-0.123,0.814,paper
3.555053,-0.268,0.886,0.379,0.495,0.833,0.248,-0.278,-0.872,-0.403,0.843,0.121,-0.524,0.972,-0.168,-0.168,0.375,0.787,0.489,0.215,0.287,0.933,0.68,0.539,0.498,0.529,0.132,0.838,0.613,0.523,0.591,0.162,0.162,0.973,0.56,0.4,0.725,0.381,-0.19,0.905,paper
3.555174,-0.252,0.889,0.382,0.495,0.833,0.248,-0.259,-0.87,-0.419,0.851,0.101,-0.515,0.95,0.259,-0.173,0.386,0.776,0.498,-0.351,0.211,0.912,0.685,0.527,0.503,-0.349,0.465,0.814,0.617,0.518,0.593,-0.679,0.407,0.611,0.561,0.404,0.722,-0.74,-0.185,0.647,paper
3.5553,-0.25,0.896,0.368,0.495,0.833,0.248,-0.268,-0.855,-0.443,0.855,0.091,-0.511,-0.381,0.889,0.254,0.385,0.775,0.501,-0.998,-0.048,-0.048,0.681,0.533,0.502,-0.913,0.365,-0.183,0.613,0.523,0.592,-0.93,0.335,-0.149,0.555,0.407,0.726,-0.982,0.0,-0.189,paper
3.555423,-0.265,0.903,0.338,-0.071,-0.969,0.236,-0.268,-0.855,-0.443,0.845,0.078,-0.528,-0.631,0.658,0.411,0.4,0.777,0.486,-0.921,-0.174,-0.348,0.69,0.535,0.489,-0.909,0.186,-0.373,0.624,0.522,0.582,-0.889,0.222,-0.4,0.568,0.406,0.716,-0.93,-0.0,-0.368,paper
3.567364,-0.263,0.905,0.334,0.0,-0.994,0.112,-0.268,-0.855,-0.443,0.829,0.074,-0.555,-0.72,0.568,0.398,0.423,0.778,0.464,-0.847,-0.216,-0.486,0.719,0.517,0.464,-0.859,0.152,-0.489,0.657,0.504,0.561,-0.823,0.185,-0.537,0.593,0.41,0.693,-0.884,0.032,-0.466,paper
3.591899,-0.288,0.894,0.344,-0.164,-0.986,-0.0,-0.268,-0.855,-0.443,0.815,0.067,-0.575,-0.789,0.511,0.341,0.446,0.776,0.447,-0.78,-0.25,-0.574,0.729,0.519,0.447,-0.829,0.112,-0.548,0.665,0.509,0.546,-0.777,0.153,-0.611,0.588,0.428,0.687,-0.853,0.04,-0.52,paper
3.613191,-0.303,0.886,0.35,-0.103,-0.994,-0.023,-0.268,-0.855,-0.443,0.815,0.068,-0.576,-0.798,0.463,0.386,0.432,0.787,0.441,-0.769,-0.31,-0.558,0.706,0.549,0.447,-0.843,0.059,-0.534,0.635,0.546,0.547,-0.786,0.094,-0.61,0.55,0.44,0.71,-0.849,-0.034,-0.528,paper
3.634131,-0.314,0.878,0.361,-0.103,-0.994,-0.023,-0.346,-0.85,-0.398,0.82,0.111,-0.561,-0.795,0.413,0.445,0.383,0.813,0.438,-0.757,-0.379,-0.532,0.675,0.584,0.452,-0.856,-0.01,-0.517,0.605,0.576,0.549,-0.802,0.02,-0.597,0.533,0.443,0.721,-0.836,-0.095,-0.541,paper
4.062755,-0.308,0.887,0.343,0.008,-0.996,-0.091,-0.346,-0.85,-0.398,0.82,0.138,-0.556,-0.818,0.363,0.447,0.363,0.827,0.429,-0.725,-0.412,-0.552,0.664,0.6,0.447,-0.848,-0.048,-0.528,0.599,0.586,0.546,-0.781,-0.024,-0.624,0.539,0.44,0.718,-0.813,-0.108,-0.573,paper
4.062911,-0.309,0.899,0.311,-0.038,-0.991,-0.126,-0.346,-0.85,-0.398,0.812,0.107,-0.574,-0.836,0.325,0.442,0.388,0.82,0.421,-0.693,-0.441,-0.57,0.679,0.593,0.432,-0.832,-0.086,-0.548,0.614,0.578,0.537,-0.765,-0.066,-0.64,0.55,0.434,0.713,-0.795,-0.116,-0.595,paper
4.063041,-0.302,0.911,0.279,-0.038,-0.991,-0.126,-0.361,-0.848,-0.387,0.808,0.073,-0.585,-0.848,0.285,0.448,0.434,0.799,0.417,-0.665,-0.469,-0.582,0.722,0.552,0.417,-0.821,-0.11,-0.561,0.66,0.535,0.526,-0.749,-0.092,-0.657,0.597,0.415,0.686,-0.778,-0.13,-0.615,paper
4.063173,-0.229,0.946,0.23,-0.038,-0.991,-0.126,-0.395,-0.852,-0.344,0.802,0.001,-0.597,-0.863,0.254,0.437,0.504,0.755,0.42,-0.635,-0.482,-0.604,0.775,0.484,0.406,-0.804,-0.136,-0.579,0.719,0.464,0.518,-0.728,-0.108,-0.677,0.653,0.383,0.654,-0.752,-0.132,-0.646,paper
4.063299,-0.199,0.96,0.196,-0.052,-0.974,-0.219,-0.395,-0.852,-0.344,0.801,-0.076,-0.594,-0.872,0.229,0.433,0.568,0.699,0.434,-0.608,-0.504,-0.613,0.819,0.409,0.402,-0.792,-0.153,-0.591,0.758,0.396,0.518,-0.715,-0.131,-0.686,0.688,0.354,0.633,-0.738,-0.139,-0.661,paper
4.063423,-0.17,0.971,0.167,-0.046,-0.97,-0.24,-0.395,-0.852,-0.344,0.805,-0.156,-0.573,-0.87,0.21,0.445,0.617,0.636,0.463,-0.603,-0.527,-0.599,0.843,0.341,0.416,-0.794,-0.18,-0.581,0.775,0.341,0.532,-0.719,-0.154,-0.677,0.711,0.319,0.627,-0.734,-0.162,-0.66,paper
4.063547,-0.096,0.99,0.108,-0.046,-0.97,-0.24,-0.444,-0.844,-0.3,0.813,-0.213,-0.542,-0.856,0.196,0.478,0.65,0.581,0.49,-0.612,-0.547,-0.571,0.863,0.274,0.425,-0.804,-0.198,-0.561,0.8,0.274,0.534,-0.732,-0.173,-0.659,0.748,0.284,0.6,-0.739,-0.194,-0.645,paper
4.063668,-0.079,0.991,0.11,-0.046,-0.97,-0.24,-0.444,-0.844,-0.3,0.82,-0.234,-0.522,-0.848,0.197,0.492,0.655,0.56,0.507,-0.621,-0.552,-0.557,0.865,0.254,0.434,-0.813,-0.199,-0.547,0.804,0.249,0.541,-0.74,-0.175,-0.65,0.768,0.259,0.586,-0.743,-0.204,-0.637,paper
4.063788,-0.089,0.994,0.068,0.045,-0.975,-0.219,-0.444,-0.844,-0.3,0.813,-0.274,-0.515,-0.836,0.204,0.509,0.683,0.527,0.506,-0.634,-0.549,-0.545,0.88,0.215,0.423,-0.822,-0.199,-0.534,0.824,0.211,0.526,-0.747,-0.176,-0.641,0.793,0.245,0.558,-0.747,-0.213,-0.63,paper
4.063915,-0.088,0.996,0.011,0.056,-0.977,-0.207,-0.491,-0.842,-0.223,0.794,-0.299,-0.529,-0.822,0.228,0.522,0.708,0.51,0.489,-0.652,-0.541,-0.532,0.899,0.192,0.395,-0.831,-0.191,-0.522,0.851,0.183,0.492,-0.756,-0.166,-0.633,0.821,0.255,0.512,-0.757,-0.212,-0.618,paper
4.064043,-0.121,0.993,0.014,0.056,-0.977,-0.207,-0.485,-0.84,-0.243,0.781,-0.28,-0.558,-0.818,0.259,0.514,0.716,0.522,0.463,-0.667,-0.516,-0.538,0.913,0.187,0.363,-0.836,-0.162,-0.525,0.869,0.182,0.459,-0.756,-0.137,-0.641,0.832,0.277,0.48,-0.766,-0.191,-0.614,paper
4.064164,-0.156,0.987,0.048,0.004,-0.991,-0.136,-0.485,-0.84,-0.243,0.765,-0.264,-0.587,-0.82,0.282,0.498,0.712,0.548,0.439,-0.678,-0.49,-0.548,0.91,0.227,0.348,-0.837,-0.132,-0.531,0.864,0.228,0.448,-0.756,-0.107,-0.645,0.809,0.317,0.496,-0.779,-0.172,-0.603,paper
4.064282,-0.238,0.966,0.102,0.022,-0.993,-0.119,-0.494,-0.845,-0.203,0.768,-0.215,-0.604,-0.807,0.304,0.507,0.67,0.612,0.419,-0.701,-0.477,-0.53,0.882,0.317,0.35,-0.853,-0.116,-0.508,0.824,0.333,0.458,-0.777,-0.1,-0.621,0.748,0.367,0.553,-0.795,-0.181,-0.579,paper
4.065094,-0.276,0.954,0.118,0.022,-0.993,-0.119,-0.522,-0.838,-0.159,0.77,-0.155,-0.618,-0.792,0.306,0.528,0.629,0.668,0.398,-0.713,-0.485,-0.506,0.855,0.391,0.341,-0.867,-0.127,-0.482,0.796,0.401,0.453,-0.794,-0.115,-0.597,0.72,0.389,0.575,-0.799,-0.199,-0.568,paper
4.06523,-0.291,0.95,0.112,0.022,-0.993,-0.119,-0.556,-0.821,-0.134,0.753,-0.127,-0.645,-0.793,0.288,0.537,0.617,0.7,0.36,-0.705,-0.497,-0.505,0.852,0.423,0.309,-0.864,-0.144,-0.482,0.808,0.411,0.422,-0.791,-0.129,-0.597,0.739,0.393,0.547,-0.792,-0.21,-0.574,paper
4.065356,-0.277,0.959,0.055,0.022,-0.993,-0.119,-0.54,-0.836,-0.101,0.718,-0.146,-0.681,-0.808,0.269,0.524,0.657,0.684,0.316,-0.68,-0.51,-0.528,0.886,0.387,0.256,-0.849,-0.156,-0.505,0.848,0.375,0.375,-0.775,-0.142,-0.615,0.773,0.396,0.496,-0.778,-0.204,-0.595,paper
4.065482,-0.26,0.965,0.007,0.037,-0.983,-0.177,-0.54,-0.836,-0.101,0.695,-0.194,-0.693,-0.82,0.26,0.51,0.709,0.635,0.306,-0.66,-0.513,-0.548,0.921,0.316,0.227,-0.835,-0.161,-0.527,0.888,0.308,0.341,-0.762,-0.144,-0.631,0.8,0.401,0.446,-0.77,-0.191,-0.609,paper
4.065604,-0.247,0.969,0.025,0.01,-0.982,-0.186,-0.54,-0.836,-0.101,0.681,-0.253,-0.688,-0.822,0.267,0.503,0.756,0.574,0.314,-0.662,-0.505,-0.554,0.942,0.253,0.222,-0.834,-0.15,-0.53,0.905,0.265,0.334,-0.762,-0.13,-0.635,0.801,0.411,0.435,-0.771,-0.184,-0.61,paper
4.065725,-0.225,0.97,0.094,0.014,-0.988,-0.155,-0.597,-0.802,-0.016,0.684,-0.268,-0.678,-0.805,0.287,0.519,0.766,0.554,0.325,-0.687,-0.497,-0.53,0.944,0.234,0.231,-0.853,-0.138,-0.503,0.903,0.256,0.344,-0.78,-0.121,-0.614,0.789,0.415,0.452,-0.785,-0.197,-0.588,paper
4.067048,-0.225,0.97,0.094,0.014,-0.988,-0.155,-0.597,-0.802,-0.016,0.699,-0.226,-0.679,-0.791,0.3,0.533,0.738,0.587,0.334,-0.705,-0.494,-0.509,0.931,0.267,0.249,-0.864,-0.132,-0.487,0.892,0.276,0.358,-0.791,-0.118,-0.6,0.778,0.413,0.473,-0.795,-0.208,-0.569,paper
4.085537,-0.236,0.948,0.213,0.014,-0.988,-0.155,-0.597,-0.802,-0.016,0.72,-0.122,-0.683,-0.796,0.303,0.524,0.67,0.664,0.332,-0.707,-0.489,-0.512,0.898,0.349,0.268,-0.862,-0.129,-0.49,0.86,0.34,0.38,-0.789,-0.111,-0.605,0.749,0.42,0.513,-0.796,-0.205,-0.569,paper
4.106343,-0.264,0.929,0.261,0.067,-0.991,-0.118,-0.597,-0.802,-0.016,0.733,-0.027,-0.679,-0.814,0.291,0.503,0.589,0.74,0.324,-0.684,-0.494,-0.537,0.845,0.449,0.291,-0.846,-0.135,-0.515,0.804,0.434,0.407,-0.769,-0.116,-0.629,0.693,0.44,0.571,-0.782,-0.193,-0.593,paper
4.130516,-0.31,0.909,0.28,0.0,-0.979,-0.203,-0.568,-0.82,0.073,0.74,0.026,-0.672,-0.836,0.258,0.485,0.531,0.786,0.318,-0.651,-0.509,-0.563,0.798,0.521,0.304,-0.824,-0.155,-0.544,0.744,0.514,0.426,-0.743,-0.137,-0.655,0.635,0.46,0.621,-0.756,-0.184,-0.628,paper
4.152001,-0.303,0.912,0.275,0.0,-0.979,-0.203,-0.585,-0.807,0.083,0.739,0.034,-0.673,-0.849,0.224,0.479,0.523,0.792,0.314,-0.624,-0.532,-0.572,0.795,0.526,0.302,-0.807,-0.183,-0.562,0.745,0.514,0.425,-0.725,-0.161,-0.67,0.632,0.461,0.623,-0.735,-0.188,-0.652,paper
4.422242,-0.274,0.925,0.263,-0.014,-0.965,-0.264,-0.56,-0.822,0.105,0.74,0.021,-0.673,-0.866,0.197,0.46,0.545,0.774,0.322,-0.594,-0.54,-0.597,0.819,0.489,0.299,-0.783,-0.195,-0.591,0.775,0.472,0.42,-0.698,-0.175,-0.694,0.667,0.443,0.599,-0.713,-0.177,-0.678,paper
4.423152,-0.24,0.94,0.244,-0.014,-0.965,-0.264,-0.56,-0.822,0.105,0.744,-0.023,-0.668,-0.884,0.177,0.433,0.584,0.739,0.335,-0.56,-0.545,-0.624,0.845,0.44,0.304,-0.758,-0.207,-0.618,0.798,0.428,0.425,-0.674,-0.18,-0.716,0.689,0.426,0.586,-0.692,-0.164,-0.703,paper
4.423285,-0.207,0.96,0.189,-0.07,-0.948,-0.31,-0.56,-0.822,0.105,0.757,-0.112,-0.644,-0.892,0.162,0.421,0.634,0.675,0.376,-0.54,-0.551,-0.636,0.869,0.375,0.324,-0.745,-0.213,-0.633,0.82,0.37,0.437,-0.661,-0.186,-0.727,0.712,0.406,0.573,-0.682,-0.16,-0.713,paper
4.42341,-0.181,0.977,0.115,-0.07,-0.948,-0.31,-0.528,-0.835,0.153,0.761,-0.172,-0.625,-0.888,0.17,0.428,0.669,0.628,0.397,-0.549,-0.549,-0.631,0.888,0.321,0.33,-0.752,-0.207,-0.626,0.835,0.33,0.441,-0.67,-0.18,-0.72,0.736,0.39,0.553,-0.689,-0.164,-0.706,paper
4.423543,-0.171,0.981,0.093,-0.039,-0.961,-0.274,-0.528,-0.835,0.153,0.757,-0.226,-0.613,-0.88,0.186,0.438,0.708,0.58,0.402,-0.571,-0.546,-0.614,0.907,0.269,0.323,-0.768,-0.199,-0.608,0.852,0.292,0.435,-0.687,-0.174,-0.705,0.754,0.378,0.537,-0.703,-0.173,-0.689,paper
4.423672,-0.167,0.984,0.065,-0.007,-0.97,-0.243,-0.502,-0.849,0.168,0.732,-0.311,-0.606,-0.855,0.2,0.478,0.759,0.512,0.402,-0.609,-0.554,-0.568,0.93,0.203,0.306,-0.803,-0.208,-0.558,0.873,0.244,0.422,-0.724,-0.183,-0.665,0.768,0.371,0.523,-0.727,-0.211,-0.654,paper
4.423796,-0.128,0.991,0.036,0.074,-0.976,-0.205,-0.502,-0.849,0.168,0.715,-0.36,-0.599,-0.814,0.206,0.543,0.794,0.456,0.402,-0.662,-0.57,-0.486,0.947,0.137,0.292,-0.849,-0.223,-0.48,0.896,0.178,0.406,-0.774,-0.2,-0.601,0.8,0.346,0.491,-0.751,-0.271,-0.602,paper
4.42472,-0.11,0.993,0.049,0.185,-0.969,-0.165,-0.502,-0.849,0.168,0.731,-0.324,-0.601,-0.784,0.206,0.586,0.774,0.482,0.411,-0.688,-0.579,-0.438,0.942,0.143,0.304,-0.87,-0.232,-0.435,0.9,0.153,0.407,-0.801,-0.212,-0.56,0.831,0.305,0.466,-0.763,-0.307,-0.569,paper
4.424853,-0.112,0.99,0.088,0.134,-0.975,-0.175,-0.473,-0.842,0.258,0.788,-0.219,-0.575,-0.793,0.219,0.569,0.688,0.566,0.454,-0.683,-0.563,-0.465,0.904,0.222,0.366,-0.859,-0.215,-0.464,0.87,0.192,0.455,-0.791,-0.193,-0.58,0.832,0.275,0.482,-0.766,-0.281,-0.579,paper
4.424993,-0.111,0.987,0.115,0.134,-0.975,-0.175,-0.467,-0.846,0.257,0.823,-0.162,-0.544,-0.822,0.24,0.516,0.623,0.612,0.487,-0.664,-0.533,-0.524,0.865,0.285,0.413,-0.834,-0.178,-0.522,0.822,0.263,0.505,-0.759,-0.153,-0.633,0.793,0.279,0.541,-0.765,-0.219,-0.606,paper
4.425129,-0.127,0.98,0.153,-0.034,-0.983,-0.179,-0.467,-0.846,0.257,0.819,-0.174,-0.547,-0.834,0.257,0.489,0.627,0.616,0.478,-0.658,-0.506,-0.558,0.855,0.315,0.411,-0.823,-0.154,-0.546,0.801,0.309,0.513,-0.743,-0.129,-0.657,0.753,0.305,0.584,-0.764,-0.182,-0.619,paper
4.425252,-0.209,0.972,0.111,0.012,-0.983,-0.181,-0.427,-0.863,0.271,0.773,-0.184,-0.606,-0.83,0.248,0.5,0.658,0.632,0.409,-0.648,-0.515,-0.562,0.878,0.329,0.348,-0.818,-0.167,-0.551,0.822,0.325,0.467,-0.735,-0.144,-0.663,0.754,0.328,0.57,-0.751,-0.181,-0.635,paper
4.436638,-0.209,0.972,0.111,0.032,-0.974,-0.224,-0.415,-0.857,0.305,0.729,-0.204,-0.653,-0.839,0.216,0.5,0.702,0.617,0.356,-0.616,-0.535,-0.578,0.914,0.285,0.288,-0.801,-0.194,-0.566,0.874,0.268,0.405,-0.714,-0.167,-0.68,0.806,0.333,0.49,-0.729,-0.183,-0.66,paper
4.458726,-0.236,0.969,0.07,-0.012,-0.965,-0.263,-0.415,-0.857,0.305,0.713,-0.266,-0.648,-0.855,0.199,0.478,0.744,0.562,0.361,-0.59,-0.547,-0.594,0.931,0.231,0.282,-0.786,-0.202,-0.584,0.887,0.234,0.397,-0.704,-0.178,-0.687,0.816,0.345,0.464,-0.719,-0.183,-0.67,paper
4.481924,-0.19,0.982,-0.022,-0.012,-0.965,-0.263,-0.36,-0.884,0.299,0.728,-0.332,-0.601,-0.849,0.212,0.484,0.757,0.509,0.41,-0.613,-0.546,-0.571,0.931,0.187,0.314,-0.805,-0.197,-0.559,0.882,0.205,0.424,-0.73,-0.171,-0.661,0.82,0.323,0.473,-0.739,-0.201,-0.643,paper
4.503326,-0.127,0.991,-0.048,0.033,-0.98,-0.198,-0.36,-0.884,0.299,0.743,-0.372,-0.557,-0.836,0.237,0.494,0.77,0.455,0.447,-0.651,-0.528,-0.545,0.932,0.126,0.341,-0.83,-0.177,-0.53,0.888,0.137,0.439,-0.757,-0.151,-0.635,0.857,0.256,0.448,-0.765,-0.2,-0.613,paper
4.569946,-0.04,0.997,-0.059,0.053,-0.986,-0.156,-0.36,-0.884,0.299,0.743,-0.41,-0.53,-0.83,0.255,0.497,0.792,0.403,0.459,-0.665,-0.509,-0.547,0.937,0.055,0.345,-0.834,-0.154,-0.53,0.895,0.041,0.445,-0.759,-0.133,-0.638,0.887,0.174,0.427,-0.772,-0.189,-0.607,paper
4.573044,0.035,0.996,-0.08,0.053,-0.986,-0.156,-0.287,-0.894,0.343,0.739,-0.451,-0.5,-0.838,0.248,0.486,0.807,0.35,0.476,-0.647,-0.514,-0.563,0.935,-0.014,0.354,-0.82,-0.161,-0.549,0.89,-0.028,0.455,-0.745,-0.14,-0.653,0.902,0.111,0.417,-0.759,-0.181,-0.625,paper
4.573185,0.043,0.996,-0.083,0.053,-0.986,-0.156,-0.282,-0.899,0.335,0.739,-0.471,-0.482,-0.844,0.236,0.481,0.812,0.319,0.489,-0.633,-0.521,-0.572,0.931,-0.045,0.361,-0.811,-0.174,-0.559,0.883,-0.041,0.467,-0.735,-0.147,-0.662,0.897,0.106,0.429,-0.75,-0.182,-0.636,paper
4.590935,0.034,0.997,-0.072,0.053,-0.986,-0.156,-0.282,-0.899,0.335,0.743,-0.476,-0.471,-0.84,0.235,0.49,0.802,0.322,0.503,-0.634,-0.535,-0.559,0.924,-0.027,0.381,-0.814,-0.185,-0.551,0.874,-0.023,0.485,-0.74,-0.161,-0.653,0.887,0.117,0.446,-0.748,-0.197,-0.633,paper
4.615434,-0.03,0.999,-0.031,0.063,-0.977,-0.206,-0.282,-0.899,0.335,0.76,-0.444,-0.475,-0.827,0.237,0.511,0.777,0.365,0.514,-0.645,-0.541,-0.541,0.916,0.022,0.4,-0.824,-0.188,-0.534,0.865,0.023,0.502,-0.747,-0.164,-0.645,0.875,0.134,0.465,-0.749,-0.213,-0.628,paper
4.637502,-0.058,0.998,-0.019,0.069,-0.977,-0.203,-0.282,-0.899,0.335,0.767,-0.408,-0.496,-0.824,0.225,0.519,0.764,0.408,0.501,-0.646,-0.55,-0.529,0.916,0.066,0.396,-0.825,-0.197,-0.529,0.86,0.065,0.506,-0.748,-0.177,-0.639,0.86,0.151,0.487,-0.745,-0.226,-0.627,paper
4.66147,-0.085,0.996,-0.019,0.084,-0.971,-0.226,-0.282,-0.899,0.335,0.767,-0.384,-0.514,-0.827,0.208,0.523,0.752,0.44,0.492,-0.634,-0.565,-0.528,0.915,0.096,0.391,-0.819,-0.223,-0.529,0.863,0.089,0.498,-0.743,-0.197,-0.639,0.858,0.171,0.484,-0.733,-0.241,-0.636,paper
5.081077,-0.09,0.996,0.0,0.084,-0.971,-0.226,-0.22,-0.913,0.344,0.761,-0.378,-0.528,-0.825,0.189,0.534,0.748,0.453,0.485,-0.622,-0.569,-0.538,0.914,0.114,0.39,-0.814,-0.227,-0.536,0.861,0.108,0.496,-0.737,-0.206,-0.644,0.854,0.184,0.486,-0.724,-0.24,-0.647,paper
5.081232,-0.076,0.997,0.004,0.052,-0.965,-0.258,-0.22,-0.913,0.344,0.779,-0.362,-0.512,-0.823,0.176,0.54,0.754,0.441,0.487,-0.611,-0.58,-0.538,0.913,0.108,0.392,-0.808,-0.237,-0.54,0.858,0.11,0.502,-0.734,-0.21,-0.646,0.842,0.19,0.504,-0.719,-0.24,-0.653,paper
5.081375,-0.064,0.998,0.004,0.057,-0.963,-0.264,-0.22,-0.913,0.344,0.769,-0.389,-0.507,-0.822,0.172,0.543,0.758,0.428,0.493,-0.613,-0.592,-0.524,0.91,0.101,0.401,-0.809,-0.253,-0.531,0.854,0.103,0.51,-0.738,-0.227,-0.635,0.838,0.187,0.512,-0.716,-0.266,-0.645,paper
5.081504,-0.041,0.999,0.004,0.104,-0.958,-0.266,-0.117,-0.918,0.378,0.783,-0.366,-0.502,-0.816,0.163,0.555,0.743,0.439,0.506,-0.613,-0.607,-0.506,0.907,0.102,0.408,-0.814,-0.268,-0.515,0.854,0.099,0.51,-0.742,-0.242,-0.626,0.844,0.189,0.502,-0.717,-0.28,-0.639,paper
5.081629,-0.062,0.997,0.052,0.087,-0.962,-0.257,-0.117,-0.919,0.376,0.796,-0.333,-0.505,-0.822,0.177,0.541,0.716,0.475,0.511,-0.614,-0.597,-0.516,0.898,0.139,0.418,-0.813,-0.252,-0.524,0.846,0.129,0.517,-0.735,-0.231,-0.638,0.837,0.203,0.508,-0.715,-0.265,-0.647,paper
5.081749,-0.092,0.994,0.052,0.087,-0.962,-0.257,-0.117,-0.919,0.376,0.8,-0.313,-0.512,-0.831,0.193,0.523,0.7,0.504,0.506,-0.614,-0.582,-0.533,0.888,0.18,0.422,-0.81,-0.234,-0.538,0.836,0.169,0.522,-0.733,-0.209,-0.647,0.821,0.226,0.524,-0.718,-0.248,-0.65,paper
5.081884,-0.118,0.991,0.059,0.054,-0.969,-0.242,-0.117,-0.919,0.376,0.804,-0.284,-0.522,-0.833,0.215,0.51,0.683,0.534,0.498,-0.624,-0.56,-0.544,0.882,0.214,0.419,-0.81,-0.209,-0.548,0.831,0.205,0.517,-0.733,-0.19,-0.654,0.813,0.253,0.525,-0.73,-0.222,-0.647,paper
5.082726,-0.155,0.986,0.069,0.01,-0.981,-0.195,-0.099,-0.909,0.405,0.801,-0.26,-0.54,-0.84,0.249,0.482,0.673,0.558,0.485,-0.638,-0.524,-0.565,0.881,0.241,0.407,-0.811,-0.171,-0.559,0.83,0.235,0.506,-0.732,-0.147,-0.666,0.803,0.283,0.525,-0.746,-0.18,-0.641,paper
5.082893,-0.178,0.981,0.073,0.01,-0.981,-0.195,-0.067,-0.926,0.372,0.793,-0.262,-0.55,-0.839,0.278,0.467,0.674,0.567,0.473,-0.653,-0.495,-0.574,0.881,0.256,0.397,-0.819,-0.14,-0.557,0.829,0.257,0.497,-0.74,-0.117,-0.662,0.793,0.297,0.531,-0.766,-0.158,-0.623,paper
5.083057,-0.182,0.983,0.018,0.01,-0.981,-0.195,-0.033,-0.936,0.349,0.777,-0.277,-0.565,-0.832,0.298,0.468,0.694,0.558,0.454,-0.67,-0.478,-0.567,0.896,0.244,0.372,-0.828,-0.12,-0.548,0.848,0.239,0.473,-0.753,-0.097,-0.651,0.812,0.296,0.502,-0.782,-0.145,-0.606,paper
5.083194,-0.168,0.986,-0.018,-0.017,-0.992,-0.122,-0.033,-0.936,0.349,0.75,-0.308,-0.586,-0.831,0.327,0.45,0.733,0.53,0.427,-0.683,-0.45,-0.575,0.919,0.207,0.335,-0.832,-0.088,-0.548,0.878,0.199,0.435,-0.755,-0.071,-0.652,0.839,0.292,0.459,-0.793,-0.123,-0.596,paper
5.083323,-0.182,0.983,-0.033,-0.043,-0.993,-0.108,-0.033,-0.936,0.349,0.719,-0.335,-0.608,-0.829,0.336,0.448,0.76,0.516,0.394,-0.688,-0.435,-0.581,0.933,0.193,0.303,-0.832,-0.078,-0.549,0.889,0.191,0.415,-0.753,-0.057,-0.656,0.844,0.29,0.451,-0.793,-0.117,-0.598,paper
5.083456,-0.185,0.982,-0.038,-0.03,-0.993,-0.113,-0.033,-0.936,0.349,0.69,-0.35,-0.633,-0.83,0.324,0.453,0.784,0.506,0.359,-0.679,-0.453,-0.577,0.947,0.174,0.27,-0.829,-0.095,-0.551,0.903,0.172,0.393,-0.75,-0.075,-0.658,0.851,0.281,0.444,-0.786,-0.13,-0.605,paper
5.083578,-0.179,0.983,-0.026,0.013,-0.979,-0.204,-0.033,-0.936,0.349,0.677,-0.36,-0.642,-0.837,0.284,0.468,0.799,0.493,0.345,-0.654,-0.493,-0.574,0.953,0.157,0.258,-0.819,-0.14,-0.556,0.908,0.157,0.388,-0.741,-0.119,-0.661,0.849,0.28,0.448,-0.766,-0.166,-0.621,paper
5.084313,-0.168,0.986,0.008,0.041,-0.974,-0.223,-0.033,-0.936,0.349,0.711,-0.361,-0.603,-0.839,0.251,0.483,0.779,0.483,0.4,-0.643,-0.526,-0.557,0.939,0.151,0.31,-0.82,-0.173,-0.545,0.887,0.165,0.432,-0.75,-0.151,-0.644,0.832,0.283,0.478,-0.759,-0.203,-0.618,paper
5.084441,-0.116,0.992,0.045,0.041,-0.974,-0.223,0.078,-0.952,0.297,0.766,-0.35,-0.539,-0.826,0.25,0.506,0.737,0.48,0.476,-0.665,-0.535,-0.521,0.911,0.16,0.38,-0.839,-0.183,-0.513,0.858,0.172,0.485,-0.775,-0.159,-0.611,0.816,0.267,0.513,-0.776,-0.226,-0.589,paper
5.084568,-0.015,0.998,0.054,0.096,-0.989,-0.114,0.078,-0.952,0.297,0.808,-0.341,-0.479,-0.794,0.294,0.532,0.707,0.463,0.534,-0.713,-0.505,-0.487,0.891,0.14,0.432,-0.871,-0.149,-0.469,0.841,0.143,0.521,-0.807,-0.129,-0.576,0.824,0.225,0.519,-0.804,-0.222,-0.551,paper
5.084689,0.016,0.998,0.058,0.096,-0.989,-0.114,0.108,-0.953,0.284,0.82,-0.323,-0.472,-0.778,0.344,0.525,0.705,0.454,0.544,-0.737,-0.462,-0.494,0.893,0.109,0.437,-0.879,-0.097,-0.467,0.849,0.091,0.521,-0.811,-0.079,-0.579,0.847,0.179,0.5,-0.823,-0.184,-0.538,paper
5.084812,0.028,0.996,0.087,0.096,-0.989,-0.114,0.074,-0.951,0.299,0.806,-0.327,-0.493,-0.789,0.365,0.494,0.72,0.452,0.527,-0.734,-0.434,-0.522,0.899,0.091,0.428,-0.868,-0.068,-0.492,0.846,0.074,0.528,-0.795,-0.049,-0.604,0.839,0.154,0.522,-0.824,-0.151,-0.546,paper
5.09591,0.022,0.994,0.109,-0.011,-0.996,-0.092,0.123,-0.963,0.241,0.798,-0.317,-0.513,-0.806,0.349,0.478,0.726,0.46,0.511,-0.714,-0.442,-0.543,0.902,0.093,0.421,-0.852,-0.084,-0.517,0.843,0.078,0.532,-0.778,-0.064,-0.625,0.825,0.151,0.545,-0.806,-0.147,-0.574,paper
5.123361,-0.081,0.973,0.218,-0.0,-0.986,-0.167,0.123,-0.963,0.241,0.794,-0.255,-0.553,-0.836,0.283,0.469,0.703,0.522,0.482,-0.656,-0.493,-0.572,0.896,0.157,0.415,-0.817,-0.141,-0.559,0.831,0.141,0.538,-0.74,-0.118,-0.663,0.79,0.193,0.582,-0.758,-0.17,-0.629,paper
5.145794,-0.13,0.96,0.248,0.0,-0.964,-0.267,0.123,-0.963,0.241,0.807,-0.203,-0.554,-0.865,0.206,0.458,0.649,0.582,0.491,-0.594,-0.549,-0.588,0.859,0.25,0.446,-0.78,-0.207,-0.591,0.789,0.239,0.565,-0.701,-0.183,-0.689,0.742,0.242,0.625,-0.709,-0.195,-0.678,paper
5.166089,-0.139,0.957,0.254,0.0,-0.964,-0.267,0.143,-0.952,0.272,0.845,-0.161,-0.51,-0.881,0.158,0.447,0.587,0.607,0.536,-0.558,-0.584,-0.59,0.818,0.298,0.492,-0.761,-0.243,-0.601,0.748,0.291,0.597,-0.691,-0.211,-0.691,0.706,0.27,0.654,-0.691,-0.215,-0.691,paper
5.593066,-0.079,0.96,0.268,0.0,-0.961,-0.276,0.143,-0.952,0.272,0.876,-0.131,-0.464,-0.88,0.177,0.44,0.546,0.611,0.573,-0.579,-0.567,-0.586,0.786,0.319,0.53,-0.773,-0.214,-0.597,0.719,0.309,0.622,-0.704,-0.189,-0.685,0.692,0.27,0.67,-0.708,-0.199,-0.677,paper
5.593208,-0.063,0.961,0.27,0.0,-0.961,-0.276,0.202,-0.961,0.188,0.888,-0.113,-0.445,-0.879,0.218,0.424,0.526,0.619,0.583,-0.601,-0.527,-0.601,0.773,0.328,0.542,-0.78,-0.172,-0.602,0.708,0.314,0.633,-0.706,-0.141,-0.694,0.69,0.257,0.677,-0.728,-0.158,-0.667,paper
5.59333,-0.058,0.962,0.268,0.0,-0.961,-0.276,0.227,-0.949,0.22,0.886,-0.131,-0.446,-0.879,0.252,0.406,0.538,0.608,0.583,-0.619,-0.491,-0.613,0.778,0.321,0.54,-0.781,-0.143,-0.608,0.712,0.306,0.632,-0.709,-0.108,-0.697,0.689,0.251,0.68,-0.744,-0.13,-0.655,paper
5.593458,-0.065,0.972,0.224,-0.052,-0.982,-0.179,0.227,-0.949,0.22,0.872,-0.174,-0.457,-0.865,0.268,0.424,0.573,0.584,0.575,-0.636,-0.483,-0.601,0.804,0.282,0.523,-0.797,-0.133,-0.589,0.736,0.274,0.619,-0.724,-0.093,-0.683,0.712,0.243,0.659,-0.759,-0.127,-0.638,paper
5.593727,-0.063,0.982,0.179,-0.029,-0.986,-0.166,0.227,-0.949,0.22,0.864,-0.208,-0.459,-0.859,0.284,0.426,0.603,0.556,0.571,-0.648,-0.467,-0.601,0.826,0.242,0.51,-0.802,-0.12,-0.585,0.765,0.227,0.603,-0.734,-0.069,-0.676,0.754,0.221,0.619,-0.772,-0.119,-0.624,paper
5.593864,-0.039,0.989,0.14,-0.029,-0.986,-0.166,0.239,-0.961,0.141,0.84,-0.257,-0.477,-0.852,0.316,0.417,0.657,0.514,0.551,-0.661,-0.441,-0.607,0.861,0.186,0.474,-0.807,-0.088,-0.585,0.8,0.181,0.572,-0.732,-0.041,-0.68,0.78,0.222,0.585,-0.78,-0.098,-0.618,paper
5.593991,-0.139,0.983,0.117,-0.019,-0.992,-0.126,0.276,-0.959,0.063,0.802,-0.275,-0.53,-0.838,0.329,0.435,0.688,0.528,0.498,-0.672,-0.439,-0.596,0.876,0.213,0.433,-0.819,-0.086,-0.568,0.809,0.211,0.549,-0.739,-0.049,-0.672,0.771,0.245,0.588,-0.782,-0.114,-0.613,paper
5.594242,-0.139,0.983,0.117,-0.019,-0.992,-0.126,0.276,-0.959,0.063,0.788,-0.253,-0.561,-0.833,0.298,0.466,0.677,0.57,0.465,-0.658,-0.479,-0.581,0.875,0.255,0.411,-0.816,-0.129,-0.564,0.812,0.248,0.529,-0.735,-0.094,-0.672,0.774,0.266,0.575,-0.766,-0.139,-0.627,paper
5.594369,-0.188,0.978,0.095,-0.019,-0.992,-0.126,0.268,-0.963,0.043,0.791,-0.231,-0.566,-0.84,0.274,0.469,0.657,0.592,0.467,-0.642,-0.5,-0.581,0.871,0.278,0.404,-0.808,-0.149,-0.57,0.817,0.267,0.512,-0.732,-0.115,-0.672,0.782,0.298,0.548,-0.76,-0.152,-0.632,paper
5.594489,-0.218,0.972,0.082,-0.019,-0.992,-0.126,0.285,-0.955,0.084,0.792,-0.228,-0.566,-0.844,0.3,0.445,0.65,0.601,0.465,-0.665,-0.472,-0.579,0.867,0.299,0.398,-0.819,-0.111,-0.563,0.811,0.305,0.5,-0.745,-0.078,-0.662,0.773,0.333,0.539,-0.78,-0.137,-0.61,paper
5.594611,-0.229,0.971,0.071,-0.02,-0.994,-0.105,0.285,-0.955,0.084,0.775,-0.224,-0.591,-0.835,0.325,0.444,0.66,0.616,0.431,-0.687,-0.449,-0.571,0.876,0.314,0.366,-0.83,-0.088,-0.55,0.827,0.307,0.471,-0.754,-0.057,-0.655,0.781,0.335,0.527,-0.79,-0.123,-0.6,paper
5.594735,-0.25,0.967,0.046,-0.02,-0.994,-0.105,0.294,-0.956,0.017,0.743,-0.235,-0.627,-0.845,0.319,0.43,0.694,0.609,0.385,-0.674,-0.445,-0.589,0.903,0.288,0.32,-0.816,-0.089,-0.571,0.859,0.265,0.437,-0.735,-0.054,-0.676,0.815,0.302,0.494,-0.776,-0.112,-0.62,paper
5.594861,-0.189,0.982,0.012,-0.08,-0.976,-0.202,0.293,-0.956,0.019,0.724,-0.291,-0.626,-0.869,0.28,0.408,0.737,0.555,0.385,-0.632,-0.467,-0.618,0.923,0.227,0.31,-0.794,-0.115,-0.598,0.876,0.21,0.435,-0.707,-0.082,-0.702,0.828,0.273,0.49,-0.751,-0.114,-0.651,paper
5.595057,-0.106,0.994,-0.013,-0.08,-0.976,-0.202,0.293,-0.956,0.019,0.718,-0.356,-0.598,-0.876,0.239,0.419,0.769,0.499,0.401,-0.61,-0.505,-0.61,0.932,0.166,0.321,-0.785,-0.157,-0.599,0.875,0.165,0.455,-0.706,-0.129,-0.696,0.826,0.239,0.511,-0.731,-0.151,-0.665,paper
5.595786,-0.058,0.998,-0.025,0.014,-0.959,-0.283,0.293,-0.956,0.019,0.726,-0.398,-0.561,-0.872,0.178,0.456,0.791,0.434,0.432,-0.582,-0.568,-0.582,0.934,0.094,0.346,-0.778,-0.226,-0.586,0.872,0.094,0.48,-0.7,-0.197,-0.686,0.847,0.177,0.502,-0.706,-0.21,-0.677,paper
5.595924,0.023,1.0,-0.008,0.014,-0.959,-0.283,0.299,-0.951,-0.08,0.762,-0.408,-0.502,-0.873,0.112,0.475,0.77,0.405,0.493,-0.54,-0.615,-0.575,0.916,0.053,0.398,-0.757,-0.282,-0.589,0.856,0.042,0.515,-0.679,-0.256,-0.688,0.855,0.131,0.502,-0.668,-0.246,-0.702,paper
5.59605,0.034,0.999,0.015,0.051,-0.924,-0.38,0.299,-0.951,-0.08,0.779,-0.404,-0.479,-0.872,0.084,0.483,0.754,0.404,0.519,-0.517,-0.641,-0.568,0.904,0.057,0.424,-0.743,-0.316,-0.59,0.843,0.05,0.536,-0.667,-0.285,-0.688,0.847,0.14,0.513,-0.643,-0.276,-0.715,paper
5.596173,-0.01,1.0,0.018,0.053,-0.92,-0.388,0.299,-0.951,-0.08,0.794,-0.38,-0.475,-0.865,0.081,0.495,0.73,0.429,0.532,-0.514,-0.652,-0.557,0.894,0.098,0.437,-0.74,-0.323,-0.589,0.835,0.096,0.542,-0.666,-0.289,-0.687,0.839,0.178,0.514,-0.641,-0.281,-0.714,paper
5.596293,-0.091,0.995,0.03,0.07,-0.93,-0.36,0.351,-0.923,-0.159,0.805,-0.343,-0.485,-0.859,0.119,0.497,0.705,0.47,0.531,-0.548,-0.623,-0.558,0.886,0.147,0.439,-0.759,-0.293,-0.581,0.831,0.144,0.537,-0.681,-0.254,-0.687,0.832,0.219,0.509,-0.668,-0.253,-0.7,paper
5.608723,-0.119,0.992,0.037,0.01,-0.971,-0.239,0.371,-0.911,-0.179,0.804,-0.316,-0.505,-0.859,0.176,0.48,0.695,0.501,0.516,-0.584,-0.574,-0.574,0.888,0.175,0.424,-0.777,-0.233,-0.585,0.837,0.168,0.521,-0.696,-0.194,-0.691,0.831,0.245,0.5,-0.705,-0.207,-0.679,paper
5.628042,-0.136,0.99,0.037,0.01,-0.971,-0.239,0.371,-0.911,-0.179,0.789,-0.318,-0.525,-0.86,0.231,0.456,0.707,0.504,0.496,-0.618,-0.524,-0.586,0.897,0.18,0.404,-0.794,-0.178,-0.581,0.846,0.179,0.502,-0.71,-0.144,-0.689,0.827,0.266,0.495,-0.732,-0.168,-0.661,paper
5.652528,-0.16,0.987,0.018,-0.025,-0.989,-0.148,0.371,-0.911,-0.179,0.766,-0.323,-0.555,-0.845,0.283,0.453,0.727,0.507,0.464,-0.655,-0.486,-0.578,0.907,0.19,0.375,-0.813,-0.131,-0.567,0.858,0.191,0.478,-0.731,-0.096,-0.675,0.823,0.289,0.488,-0.764,-0.145,-0.629,paper
5.673901,-0.181,0.983,0.034,-0.025,-0.989,-0.148,0.355,-0.906,-0.231,0.764,-0.299,-0.572,-0.831,0.316,0.459,0.714,0.539,0.447,-0.682,-0.464,-0.565,0.902,0.233,0.364,-0.828,-0.104,-0.551,0.851,0.233,0.472,-0.746,-0.075,-0.661,0.804,0.313,0.506,-0.785,-0.143,-0.602,paper
6.103339,-0.21,0.976,0.056,-0.025,-0.989,-0.148,0.371,-0.894,-0.25,0.757,-0.252,-0.603,-0.82,0.324,0.471,0.689,0.598,0.41,-0.696,-0.462,-0.55,0.888,0.303,0.345,-0.837,-0.1,-0.538,0.834,0.297,0.464,-0.759,-0.072,-0.647,0.785,0.326,0.527,-0.791,-0.156,-0.592,paper
6.103524,-0.234,0.97,0.065,0.027,-0.99,-0.139,0.335,-0.893,-0.3,0.74,-0.227,-0.633,-0.825,0.3,0.479,0.689,0.624,0.37,-0.675,-0.486,-0.555,0.896,0.319,0.309,-0.83,-0.131,-0.542,0.848,0.309,0.431,-0.752,-0.105,-0.651,0.794,0.338,0.505,-0.775,-0.166,-0.609,paper
6.103662,-0.255,0.967,0.02,0.027,-0.99,-0.139,0.331,-0.904,-0.269,0.706,-0.255,-0.661,-0.833,0.273,0.481,0.713,0.614,0.34,-0.656,-0.502,-0.564,0.914,0.302,0.271,-0.82,-0.152,-0.551,0.869,0.298,0.396,-0.74,-0.126,-0.661,0.806,0.354,0.475,-0.761,-0.175,-0.624,paper
6.103791,-0.266,0.964,0.0,0.027,-0.99,-0.139,0.349,-0.902,-0.253,0.672,-0.295,-0.679,-0.84,0.251,0.482,0.751,0.583,0.311,-0.641,-0.523,-0.561,0.931,0.278,0.238,-0.815,-0.175,-0.553,0.889,0.275,0.366,-0.734,-0.15,-0.663,0.818,0.363,0.447,-0.75,-0.189,-0.634,paper
6.103942,-0.264,0.963,-0.051,0.028,-0.975,-0.222,0.349,-0.902,-0.253,0.653,-0.328,-0.682,-0.838,0.227,0.497,0.788,0.54,0.297,-0.632,-0.546,-0.55,0.949,0.23,0.214,-0.812,-0.199,-0.548,0.909,0.234,0.345,-0.734,-0.175,-0.656,0.83,0.356,0.43,-0.739,-0.219,-0.637,paper
6.104078,-0.196,0.981,0.0,0.096,-0.96,-0.262,0.349,-0.902,-0.253,0.665,-0.341,-0.664,-0.83,0.186,0.525,0.799,0.51,0.319,-0.62,-0.583,-0.525,0.955,0.186,0.229,-0.812,-0.245,-0.53,0.908,0.203,0.367,-0.738,-0.217,-0.639,0.827,0.336,0.45,-0.724,-0.262,-0.638,paper
6.104211,-0.166,0.985,0.04,0.096,-0.96,-0.262,0.349,-0.902,-0.253,0.711,-0.326,-0.623,-0.826,0.155,0.542,0.768,0.517,0.379,-0.606,-0.614,-0.505,0.936,0.195,0.292,-0.811,-0.28,-0.514,0.886,0.201,0.419,-0.737,-0.25,-0.628,0.82,0.308,0.482,-0.708,-0.296,-0.641,paper
6.104331,-0.099,0.99,0.1,0.138,-0.947,-0.289,0.29,-0.876,-0.387,0.763,-0.293,-0.577,-0.816,0.14,0.561,0.724,0.532,0.439,-0.603,-0.629,-0.491,0.91,0.214,0.356,-0.809,-0.3,-0.505,0.854,0.217,0.472,-0.734,-0.271,-0.623,0.8,0.297,0.521,-0.698,-0.317,-0.642,paper
6.104458,-0.11,0.985,0.13,0.145,-0.949,-0.281,0.29,-0.876,-0.387,0.79,-0.255,-0.557,-0.809,0.147,0.569,0.683,0.562,0.467,-0.607,-0.629,-0.485,0.888,0.248,0.387,-0.812,-0.298,-0.501,0.832,0.249,0.496,-0.737,-0.269,-0.62,0.783,0.306,0.542,-0.705,-0.316,-0.635,paper
6.104588,-0.141,0.981,0.13,0.145,-0.949,-0.281,0.244,-0.902,-0.357,0.792,-0.241,-0.561,-0.807,0.169,0.566,0.676,0.573,0.463,-0.617,-0.613,-0.494,0.889,0.254,0.382,-0.817,-0.278,-0.504,0.839,0.249,0.485,-0.738,-0.253,-0.625,0.791,0.314,0.525,-0.714,-0.294,-0.636,paper
6.104706,-0.17,0.983,0.067,0.145,-0.949,-0.281,0.229,-0.901,-0.369,0.765,-0.258,-0.59,-0.816,0.188,0.547,0.713,0.553,0.43,-0.626,-0.59,-0.51,0.911,0.225,0.345,-0.819,-0.251,-0.515,0.871,0.208,0.446,-0.738,-0.227,-0.636,0.82,0.314,0.478,-0.723,-0.263,-0.639,paper
6.104833,-0.172,0.984,0.045,0.067,-0.973,-0.222,0.229,-0.901,-0.369,0.717,-0.3,-0.629,-0.828,0.201,0.524,0.765,0.519,0.381,-0.626,-0.57,-0.532,0.941,0.174,0.291,-0.81,-0.23,-0.539,0.9,0.164,0.404,-0.721,-0.211,-0.66,0.845,0.31,0.437,-0.72,-0.239,-0.651,paper
6.104963,-0.176,0.984,0.038,0.043,-0.97,-0.239,0.229,-0.901,-0.369,0.701,-0.316,-0.64,-0.841,0.193,0.505,0.776,0.51,0.371,-0.607,-0.572,-0.552,0.946,0.159,0.283,-0.796,-0.231,-0.56,0.904,0.154,0.399,-0.707,-0.204,-0.677,0.842,0.313,0.439,-0.71,-0.23,-0.666,paper
6.105083,-0.186,0.978,0.096,0.043,-0.97,-0.239,0.207,-0.865,-0.457,0.732,-0.296,-0.614,-0.851,0.176,0.495,0.736,0.539,0.41,-0.595,-0.584,-0.553,0.917,0.213,0.337,-0.789,-0.241,-0.565,0.862,0.218,0.458,-0.705,-0.219,-0.674,0.805,0.317,0.502,-0.704,-0.243,-0.668,paper
6.105983,-0.175,0.979,0.108,0.07,-0.959,-0.276,0.189,-0.887,-0.422,0.772,-0.269,-0.575,-0.844,0.168,0.509,0.69,0.563,0.455,-0.598,-0.593,-0.54,0.888,0.249,0.387,-0.796,-0.251,-0.55,0.83,0.251,0.499,-0.72,-0.224,-0.657,0.783,0.307,0.541,-0.709,-0.254,-0.658,paper
6.106116,-0.159,0.981,0.108,0.07,-0.959,-0.276,0.189,-0.887,-0.422,0.791,-0.275,-0.546,-0.844,0.176,0.507,0.685,0.548,0.48,-0.608,-0.582,-0.54,0.888,0.223,0.402,-0.801,-0.243,-0.548,0.836,0.214,0.505,-0.727,-0.22,-0.65,0.812,0.273,0.517,-0.72,-0.244,-0.649,paper
6.106239,-0.081,0.997,0.008,0.067,-0.966,-0.248,0.189,-0.887,-0.422,0.779,-0.325,-0.536,-0.853,0.198,0.483,0.733,0.48,0.482,-0.613,-0.556,-0.561,0.912,0.135,0.388,-0.798,-0.214,-0.563,0.866,0.117,0.487,-0.718,-0.182,-0.671,0.856,0.221,0.467,-0.723,-0.217,-0.656,paper
6.106373,-0.027,0.999,0.024,0.021,-0.972,-0.233,0.189,-0.887,-0.422,0.76,-0.379,-0.527,-0.859,0.206,0.469,0.763,0.431,0.482,-0.606,-0.551,-0.573,0.918,0.09,0.387,-0.792,-0.208,-0.574,0.862,0.094,0.499,-0.712,-0.179,-0.679,0.837,0.21,0.505,-0.722,-0.217,-0.657,paper
6.106499,-0.033,0.999,0.03,0.09,-0.962,-0.258,0.189,-0.887,-0.422,0.76,-0.404,-0.509,-0.834,0.183,0.52,0.762,0.414,0.499,-0.613,-0.59,-0.526,0.909,0.086,0.407,-0.808,-0.252,-0.533,0.848,0.094,0.522,-0.739,-0.223,-0.636,0.832,0.196,0.519,-0.716,-0.273,-0.642,paper
6.116615,-0.039,0.999,0.035,0.09,-0.962,-0.258,0.135,-0.869,-0.476,0.771,-0.377,-0.514,-0.818,0.165,0.551,0.753,0.428,0.499,-0.61,-0.61,-0.505,0.915,0.075,0.398,-0.806,-0.275,-0.525,0.862,0.068,0.502,-0.738,-0.246,-0.628,0.86,0.194,0.472,-0.709,-0.293,-0.642,paper
6.139936,-0.112,0.992,0.062,0.09,-0.962,-0.258,0.14,-0.888,-0.438,0.758,-0.365,-0.54,-0.825,0.179,0.536,0.753,0.451,0.479,-0.61,-0.603,-0.514,0.918,0.111,0.381,-0.804,-0.263,-0.534,0.862,0.121,0.493,-0.728,-0.231,-0.646,0.833,0.252,0.492,-0.714,-0.283,-0.64,paper
6.162438,-0.194,0.98,0.05,0.089,-0.964,-0.252,0.14,-0.888,-0.438,0.733,-0.38,-0.564,-0.776,0.178,0.605,0.762,0.469,0.447,-0.653,-0.624,-0.43,0.916,0.171,0.363,-0.84,-0.289,-0.459,0.85,0.197,0.489,-0.769,-0.266,-0.582,0.797,0.305,0.522,-0.727,-0.353,-0.589,paper
6.183605,-0.23,0.973,0.015,0.291,-0.937,-0.194,0.14,-0.888,-0.438,0.7,-0.381,-0.604,-0.693,0.145,0.706,0.779,0.48,0.403,-0.68,-0.659,-0.322,0.935,0.163,0.315,-0.87,-0.341,-0.355,0.885,0.171,0.433,-0.811,-0.323,-0.488,0.839,0.302,0.453,-0.726,-0.43,-0.537,paper
6.612548,-0.22,0.973,-0.076,0.291,-0.937,-0.194,0.099,-0.885,-0.455,0.658,-0.389,-0.644,-0.707,0.109,0.699,0.82,0.451,0.352,-0.66,-0.682,-0.316,0.965,0.084,0.249,-0.862,-0.358,-0.358,0.93,0.067,0.362,-0.797,-0.344,-0.497,0.904,0.255,0.342,-0.71,-0.439,-0.55,paper
6.612788,-0.179,0.982,-0.061,0.291,-0.937,-0.194,0.071,-0.892,-0.447,0.68,-0.407,-0.61,-0.766,0.071,0.639,0.809,0.439,0.392,-0.609,-0.699,-0.376,0.953,0.08,0.294,-0.824,-0.377,-0.423,0.913,0.06,0.403,-0.765,-0.344,-0.543,0.902,0.226,0.368,-0.694,-0.425,-0.582,paper
6.612931,-0.142,0.988,-0.067,0.291,-0.937,-0.194,0.071,-0.892,-0.447,0.749,-0.424,-0.509,-0.806,0.056,0.589,0.76,0.415,0.501,-0.6,-0.689,-0.407,0.911,0.083,0.403,-0.815,-0.369,-0.446,0.859,0.075,0.506,-0.767,-0.328,-0.551,0.877,0.173,0.447,-0.701,-0.399,-0.591,paper
6.613069,0.129,0.984,-0.121,0.166,-0.943,-0.287,0.071,-0.892,-0.447,0.759,-0.494,-0.425,-0.802,0.098,0.589,0.777,0.306,0.55,-0.624,-0.654,-0.428,0.903,-0.049,0.427,-0.831,-0.323,-0.454,0.855,-0.069,0.515,-0.776,-0.291,-0.56,0.915,0.065,0.398,-0.721,-0.357,-0.594,paper
6.613194,0.173,0.979,-0.108,0.144,-0.956,-0.254,0.071,-0.892,-0.447,0.725,-0.557,-0.406,-0.807,0.119,0.578,0.82,0.202,0.535,-0.614,-0.649,-0.45,0.902,-0.166,0.399,-0.82,-0.314,-0.479,0.853,-0.18,0.491,-0.766,-0.281,-0.579,0.927,0.013,0.374,-0.711,-0.351,-0.609,paper
6.613313,0.146,0.987,-0.065,0.155,-0.93,-0.334,0.071,-0.892,-0.447,0.727,-0.556,-0.403,-0.785,0.092,0.612,0.815,0.202,0.543,-0.594,-0.693,-0.407,0.898,-0.157,0.41,-0.811,-0.367,-0.456,0.846,-0.15,0.512,-0.764,-0.327,-0.556,0.906,0.043,0.422,-0.68,-0.417,-0.603,paper
6.613433,0.001,1.0,0.011,0.386,-0.852,-0.354,0.071,-0.892,-0.447,0.751,-0.504,-0.427,-0.676,0.044,0.735,0.785,0.286,0.549,-0.596,-0.766,-0.241,0.896,-0.053,0.441,-0.825,-0.47,-0.313,0.836,-0.047,0.546,-0.787,-0.436,-0.436,0.874,0.097,0.476,-0.639,-0.557,-0.53,paper
6.613554,-0.079,0.996,0.03,0.627,-0.726,-0.281,0.071,-0.892,-0.447,0.779,-0.426,-0.461,-0.547,-0.016,0.837,0.747,0.383,0.543,-0.588,-0.805,-0.077,0.89,0.051,0.453,-0.815,-0.548,-0.188,0.825,0.057,0.562,-0.804,-0.504,-0.315,0.849,0.147,0.508,-0.6,-0.659,-0.454,paper
6.613676,-0.122,0.99,0.067,0.682,-0.682,-0.264,0.071,-0.892,-0.447,0.802,-0.344,-0.488,-0.528,-0.032,0.848,0.695,0.474,0.54,-0.589,-0.806,-0.062,0.875,0.146,0.462,-0.817,-0.55,-0.173,0.816,0.132,0.563,-0.808,-0.507,-0.301,0.837,0.187,0.515,-0.61,-0.655,-0.446,paper
6.613795,-0.144,0.988,0.063,0.556,-0.781,-0.285,0.035,-0.891,-0.453,0.804,-0.304,-0.51,-0.666,0.032,0.745,0.679,0.512,0.525,-0.622,-0.744,-0.243,0.876,0.174,0.45,-0.828,-0.452,-0.331,0.823,0.144,0.55,-0.801,-0.4,-0.445,0.844,0.202,0.497,-0.678,-0.49,-0.548,paper
6.613926,-0.115,0.993,0.035,0.556,-0.781,-0.285,0.055,-0.894,-0.444,0.782,-0.351,-0.515,-0.775,0.082,0.627,0.725,0.459,0.514,-0.617,-0.68,-0.396,0.899,0.109,0.425,-0.81,-0.374,-0.452,0.85,0.082,0.52,-0.778,-0.305,-0.549,0.871,0.19,0.453,-0.704,-0.352,-0.616,paper
6.614047,-0.072,0.997,0.007,0.556,-0.781,-0.285,0.055,-0.894,-0.444,0.759,-0.402,-0.511,-0.851,0.155,0.503,0.762,0.402,0.508,-0.623,-0.605,-0.495,0.913,0.04,0.406,-0.803,-0.274,-0.529,0.863,0.03,0.504,-0.764,-0.182,-0.619,0.882,0.181,0.435,-0.728,-0.243,-0.641,paper
6.614169,-0.041,0.999,0.007,-0.131,-0.983,-0.131,0.055,-0.894,-0.444,0.76,-0.417,-0.499,-0.854,0.276,0.441,0.762,0.389,0.518,-0.704,-0.503,-0.503,0.905,0.049,0.422,-0.823,-0.15,-0.548,0.849,0.05,0.526,-0.8,-0.025,-0.6,0.865,0.186,0.466,-0.795,-0.164,-0.584,paper
6.615467,-0.07,0.996,0.056,0.09,-0.987,0.135,0.073,-0.894,-0.442,0.793,-0.37,-0.485,-0.815,0.445,0.371,0.718,0.438,0.541,-0.834,-0.321,-0.449,0.886,0.098,0.453,-0.874,0.032,-0.485,0.825,0.087,0.558,-0.836,0.155,-0.526,0.85,0.175,0.497,-0.867,-0.087,-0.491,paper
6.615602,-0.07,0.996,0.056,-0.157,-0.981,0.118,0.058,-0.917,-0.394,0.803,-0.36,-0.475,-0.815,0.519,0.259,0.702,0.451,0.551,-0.82,-0.23,-0.525,0.877,0.119,0.466,-0.83,0.128,-0.543,0.814,0.107,0.571,-0.797,0.245,-0.552,0.843,0.165,0.512,-0.87,0.029,-0.493,paper
6.615796,-0.07,0.997,0.035,-0.157,-0.981,0.118,0.058,-0.917,-0.394,0.793,-0.366,-0.487,-0.845,0.507,0.169,0.714,0.45,0.536,-0.756,-0.197,-0.624,0.885,0.106,0.453,-0.759,0.158,-0.632,0.823,0.093,0.56,-0.73,0.254,-0.635,0.847,0.165,0.505,-0.831,0.115,-0.544,paper
6.616016,-0.062,0.998,-0.008,-0.377,-0.926,-0.034,0.058,-0.917,-0.394,0.772,-0.403,-0.492,-0.862,0.503,0.072,0.746,0.411,0.524,-0.717,-0.143,-0.682,0.901,0.063,0.43,-0.696,0.174,-0.696,0.841,0.053,0.539,-0.704,0.235,-0.67,0.866,0.153,0.475,-0.818,0.182,-0.545,paper
6.616164,-0.041,0.998,-0.038,-0.397,-0.914,-0.079,0.058,-0.917,-0.394,0.745,-0.451,-0.491,-0.865,0.481,-0.144,0.782,0.359,0.509,-0.658,-0.047,-0.752,0.913,0.004,0.407,-0.592,0.228,-0.774,0.858,-0.006,0.513,-0.652,0.304,-0.695,0.888,0.133,0.439,-0.791,0.288,-0.54,paper
6.616292,-0.022,0.998,-0.056,-0.736,-0.674,-0.061,0.058,-0.917,-0.394,0.735,-0.479,-0.48,-0.667,0.333,-0.667,0.796,0.325,0.51,-0.402,0.241,-0.884,0.915,-0.033,0.401,-0.269,0.404,-0.874,0.863,-0.048,0.504,-0.424,0.566,-0.707,0.903,0.107,0.416,-0.677,0.521,-0.521,paper
6.629359,0.026,0.998,-0.063,-0.686,0.726,0.04,0.058,-0.917,-0.394,0.744,-0.493,-0.45,-0.0,0.05,-0.999,0.789,0.304,0.534,0.408,0.816,-0.408,0.904,-0.05,0.424,0.615,0.615,-0.492,0.851,-0.067,0.521,0.41,0.889,-0.205,0.907,0.077,0.415,-0.065,0.978,-0.196,paper
6.650457,0.038,0.997,-0.063,-0.686,0.726,0.04,0.031,-0.893,-0.45,0.75,-0.497,-0.437,0.305,-0.068,-0.95,0.788,0.292,0.543,0.644,0.764,-0.04,0.9,-0.065,0.43,0.857,0.489,-0.163,0.844,-0.074,0.532,0.718,0.673,0.179,0.9,0.071,0.431,0.458,0.87,0.183,paper
6.672972,0.038,0.999,-0.037,-0.381,0.92,0.09,0.052,-0.872,-0.487,0.751,-0.497,-0.435,0.501,-0.15,-0.852,0.782,0.296,0.548,0.684,0.711,0.164,0.899,-0.066,0.434,0.915,0.388,0.111,0.842,-0.077,0.534,0.792,0.499,0.352,0.899,0.07,0.431,0.642,0.673,0.367,paper
6.695315,0.022,0.999,-0.044,-0.314,0.943,0.105,0.052,-0.872,-0.487,0.752,-0.491,-0.441,0.575,-0.185,-0.797,0.784,0.301,0.542,0.709,0.65,0.276,0.9,-0.051,0.434,0.92,0.347,0.184,0.843,-0.065,0.534,0.816,0.398,0.419,0.896,0.077,0.437,0.718,0.544,0.435,paper
7.123309,0.004,0.999,-0.036,-0.314,0.943,0.105,0.055,-0.893,-0.447,0.763,-0.471,-0.442,0.625,-0.219,-0.75,0.771,0.323,0.548,0.708,0.628,0.322,0.898,-0.028,0.439,0.924,0.302,0.235,0.84,-0.04,0.54,0.813,0.339,0.474,0.892,0.091,0.442,0.74,0.493,0.458,paper
7.123484,-0.01,1.0,-0.029,-0.314,0.943,0.105,0.048,-0.888,-0.458,0.761,-0.471,-0.446,0.631,-0.188,-0.752,0.774,0.326,0.543,0.685,0.657,0.315,0.904,-0.036,0.426,0.909,0.322,0.266,0.849,-0.047,0.526,0.808,0.346,0.476,0.903,0.094,0.419,0.723,0.517,0.458,paper
7.12361,-0.003,0.997,-0.081,-0.314,0.943,0.105,0.081,-0.864,-0.497,0.737,-0.5,-0.456,0.633,-0.158,-0.758,0.797,0.301,0.524,0.674,0.674,0.302,0.915,-0.065,0.397,0.895,0.349,0.279,0.866,-0.073,0.495,0.802,0.371,0.467,0.917,0.1,0.386,0.696,0.537,0.476,paper
7.123738,-0.006,0.995,-0.098,-0.337,0.913,0.23,0.081,-0.864,-0.497,0.708,-0.532,-0.465,0.655,-0.118,-0.746,0.825,0.265,0.499,0.638,0.703,0.314,0.927,-0.103,0.36,0.869,0.388,0.305,0.885,-0.106,0.454,0.776,0.407,0.482,0.933,0.105,0.343,0.674,0.537,0.508,paper
7.12387,0.004,0.991,-0.134,-0.337,0.913,0.23,0.073,-0.875,-0.479,0.678,-0.559,-0.476,0.679,-0.108,-0.726,0.857,0.228,0.461,0.619,0.705,0.345,0.935,-0.126,0.333,0.856,0.392,0.338,0.895,-0.124,0.428,0.762,0.408,0.503,0.938,0.107,0.329,0.67,0.509,0.541,paper
7.123994,-0.003,0.992,-0.126,-0.246,0.936,0.252,0.127,-0.891,-0.435,0.685,-0.545,-0.483,0.705,-0.118,-0.699,0.844,0.264,0.466,0.611,0.691,0.385,0.939,-0.099,0.33,0.846,0.377,0.377,0.898,-0.094,0.43,0.748,0.391,0.536,0.931,0.117,0.345,0.673,0.469,0.571,paper
7.124112,-0.039,0.994,-0.098,-0.246,0.936,0.252,0.127,-0.891,-0.435,0.703,-0.51,-0.496,0.714,-0.118,-0.69,0.828,0.31,0.467,0.614,0.686,0.391,0.942,-0.054,0.332,0.847,0.37,0.382,0.9,-0.061,0.431,0.751,0.379,0.541,0.925,0.132,0.355,0.679,0.457,0.574,paper
7.124229,-0.055,0.995,-0.083,-0.246,0.936,0.252,0.121,-0.871,-0.477,0.704,-0.491,-0.513,0.707,-0.121,-0.696,0.825,0.333,0.456,0.623,0.684,0.378,0.946,-0.028,0.323,0.852,0.365,0.376,0.904,-0.03,0.426,0.762,0.373,0.529,0.92,0.152,0.362,0.684,0.462,0.564,paper
7.124351,-0.08,0.992,-0.093,-0.267,0.937,0.227,0.121,-0.871,-0.477,0.68,-0.499,-0.537,0.713,-0.133,-0.688,0.841,0.334,0.426,0.633,0.673,0.383,0.956,-0.019,0.293,0.855,0.353,0.379,0.914,-0.007,0.405,0.767,0.358,0.532,0.916,0.183,0.357,0.693,0.452,0.562,paper
7.124475,-0.096,0.991,-0.097,-0.238,0.944,0.229,0.121,-0.871,-0.477,0.66,-0.499,-0.561,0.728,-0.143,-0.671,0.855,0.333,0.397,0.633,0.661,0.403,0.964,-0.013,0.267,0.854,0.336,0.398,0.924,0.006,0.382,0.759,0.346,0.552,0.91,0.213,0.354,0.702,0.422,0.574,paper
7.124594,-0.109,0.99,-0.089,-0.2,0.953,0.226,0.121,-0.871,-0.477,0.664,-0.474,-0.578,0.747,-0.159,-0.645,0.848,0.362,0.387,0.629,0.647,0.431,0.966,0.016,0.256,0.848,0.317,0.424,0.93,0.027,0.367,0.747,0.324,0.581,0.902,0.24,0.36,0.706,0.39,0.591,paper
7.124711,-0.117,0.992,-0.044,-0.2,0.953,0.226,0.161,-0.856,-0.492,0.672,-0.448,-0.59,0.758,-0.165,-0.631,0.839,0.389,0.38,0.623,0.639,0.451,0.966,0.047,0.254,0.842,0.307,0.444,0.927,0.061,0.37,0.74,0.308,0.598,0.886,0.257,0.385,0.707,0.366,0.605,paper
7.124831,-0.118,0.992,-0.033,-0.137,0.964,0.229,0.161,-0.856,-0.492,0.673,-0.435,-0.599,0.77,-0.177,-0.613,0.837,0.405,0.369,0.624,0.624,0.472,0.967,0.06,0.246,0.837,0.288,0.466,0.925,0.082,0.371,0.735,0.282,0.616,0.875,0.268,0.403,0.712,0.342,0.614,paper
7.124961,-0.118,0.992,-0.033,-0.103,0.97,0.22,0.161,-0.856,-0.492,0.665,-0.423,-0.616,0.784,-0.196,-0.588,0.833,0.426,0.352,0.624,0.598,0.503,0.965,0.101,0.241,0.832,0.26,0.49,0.922,0.116,0.37,0.729,0.25,0.638,0.866,0.279,0.415,0.722,0.303,0.621,paper
7.12545,-0.168,0.986,-0.019,-0.103,0.97,0.22,0.277,-0.841,-0.465,0.678,-0.369,-0.636,0.794,-0.218,-0.568,0.804,0.486,0.343,0.634,0.572,0.52,0.958,0.157,0.24,0.833,0.233,0.502,0.915,0.164,0.369,0.73,0.224,0.646,0.859,0.295,0.418,0.737,0.273,0.618,paper
7.12558,-0.187,0.982,-0.019,-0.067,0.981,0.183,0.277,-0.841,-0.465,0.687,-0.325,-0.65,0.788,-0.236,-0.569,0.777,0.532,0.337,0.649,0.563,0.512,0.947,0.21,0.244,0.844,0.219,0.489,0.911,0.195,0.364,0.743,0.214,0.634,0.858,0.313,0.408,0.752,0.274,0.6,paper
7.125702,-0.197,0.98,-0.008,-0.098,0.982,0.161,0.277,-0.841,-0.465,0.693,-0.301,-0.656,0.776,-0.245,-0.581,0.765,0.55,0.335,0.667,0.56,0.492,0.944,0.223,0.242,0.858,0.218,0.465,0.906,0.221,0.36,0.757,0.215,0.617,0.841,0.348,0.414,0.758,0.286,0.586,paper
7.125825,-0.231,0.973,0.029,-0.113,0.978,0.174,0.336,-0.839,-0.428,0.687,-0.309,-0.658,0.776,-0.241,-0.583,0.772,0.542,0.331,0.666,0.563,0.489,0.946,0.222,0.235,0.855,0.225,0.468,0.903,0.239,0.358,0.756,0.217,0.618,0.819,0.383,0.428,0.755,0.288,0.59,paper
7.125955,-0.234,0.972,0.034,-0.113,0.978,0.174,0.337,-0.841,-0.422,0.68,-0.299,-0.669,0.786,-0.236,-0.571,0.77,0.553,0.318,0.649,0.563,0.511,0.944,0.239,0.227,0.844,0.223,0.487,0.899,0.26,0.352,0.742,0.218,0.634,0.804,0.403,0.436,0.748,0.275,0.604,paper
7.147473,-0.242,0.969,0.049,-0.113,0.978,0.174,0.403,-0.835,-0.375,0.682,-0.259,-0.684,0.799,-0.228,-0.557,0.747,0.589,0.307,0.635,0.564,0.527,0.934,0.279,0.222,0.832,0.225,0.507,0.891,0.294,0.345,0.73,0.217,0.648,0.791,0.423,0.441,0.739,0.266,0.618,paper
7.173004,-0.278,0.958,0.076,-0.056,0.977,0.208,0.41,-0.859,-0.308,0.687,-0.209,-0.696,0.8,-0.217,-0.56,0.713,0.637,0.295,0.628,0.575,0.525,0.916,0.334,0.221,0.829,0.235,0.507,0.881,0.332,0.338,0.728,0.228,0.647,0.783,0.443,0.438,0.734,0.273,0.622,paper
7.190056,-0.297,0.952,0.079,-0.056,0.977,0.208,0.404,-0.86,-0.311,0.689,-0.179,-0.703,0.796,-0.207,-0.569,0.692,0.662,0.288,0.628,0.584,0.514,0.905,0.366,0.216,0.831,0.25,0.497,0.869,0.366,0.334,0.732,0.243,0.637,0.766,0.463,0.445,0.729,0.292,0.619,paper
7.21129,-0.316,0.946,0.072,-0.056,0.977,0.208,0.419,-0.86,-0.292,0.672,-0.185,-0.717,0.792,-0.193,-0.579,0.698,0.664,0.269,0.624,0.597,0.505,0.905,0.375,0.203,0.83,0.262,0.493,0.865,0.384,0.323,0.73,0.257,0.634,0.756,0.483,0.442,0.722,0.307,0.621,paper
7.632334,-0.348,0.936,0.049,-0.114,0.965,0.238,0.419,-0.86,-0.292,0.65,-0.2,-0.733,0.793,-0.185,-0.58,0.719,0.651,0.244,0.616,0.605,0.505,0.917,0.359,0.175,0.827,0.272,0.493,0.882,0.366,0.297,0.725,0.268,0.634,0.766,0.488,0.418,0.712,0.315,0.627,paper
7.632577,-0.339,0.94,0.033,-0.114,0.965,0.238,0.451,-0.867,-0.213,0.621,-0.215,-0.754,0.794,-0.179,-0.581,0.74,0.637,0.215,0.614,0.611,0.5,0.93,0.339,0.144,0.827,0.276,0.489,0.896,0.351,0.271,0.726,0.278,0.629,0.777,0.492,0.392,0.711,0.322,0.626,paper
7.632712,-0.345,0.938,0.026,-0.114,0.965,0.238,0.438,-0.868,-0.233,0.6,-0.218,-0.769,0.794,-0.182,-0.581,0.743,0.642,0.19,0.618,0.608,0.498,0.927,0.355,0.125,0.83,0.275,0.485,0.895,0.364,0.259,0.73,0.28,0.623,0.773,0.501,0.389,0.714,0.322,0.622,paper
7.632837,-0.392,0.92,0.0,-0.113,0.969,0.22,0.438,-0.868,-0.233,0.589,-0.205,-0.782,0.789,-0.192,-0.583,0.73,0.661,0.174,0.63,0.602,0.491,0.92,0.374,0.116,0.838,0.27,0.474,0.896,0.371,0.244,0.74,0.274,0.614,0.781,0.504,0.369,0.722,0.325,0.61,paper
7.632985,-0.396,0.918,-0.011,-0.132,0.97,0.203,0.438,-0.868,-0.233,0.569,-0.21,-0.795,0.775,-0.202,-0.598,0.743,0.65,0.16,0.643,0.603,0.472,0.932,0.351,0.095,0.849,0.271,0.453,0.911,0.348,0.223,0.752,0.276,0.598,0.794,0.504,0.34,0.732,0.338,0.592,paper
7.63311,-0.398,0.917,-0.017,-0.132,0.97,0.203,0.441,-0.892,-0.101,0.551,-0.235,-0.801,0.758,-0.213,-0.616,0.77,0.621,0.145,0.661,0.597,0.454,0.948,0.31,0.072,0.86,0.265,0.437,0.926,0.318,0.206,0.765,0.271,0.585,0.8,0.504,0.324,0.739,0.346,0.578,paper
7.633232,-0.389,0.921,-0.011,-0.132,0.97,0.203,0.458,-0.875,-0.156,0.556,-0.27,-0.786,0.751,-0.226,-0.621,0.79,0.592,0.16,0.667,0.592,0.453,0.954,0.289,0.082,0.863,0.255,0.435,0.926,0.308,0.217,0.768,0.261,0.586,0.793,0.501,0.345,0.745,0.336,0.577,paper
7.633414,-0.348,0.937,-0.015,-0.132,0.97,0.203,0.458,-0.875,-0.156,0.59,-0.268,-0.762,0.761,-0.237,-0.604,0.775,0.602,0.194,0.667,0.574,0.475,0.943,0.311,0.119,0.859,0.236,0.454,0.906,0.335,0.261,0.758,0.242,0.605,0.778,0.491,0.393,0.749,0.305,0.589,paper
7.633538,-0.324,0.945,0.037,-0.132,0.97,0.203,0.458,-0.875,-0.156,0.658,-0.225,-0.719,0.772,-0.239,-0.589,0.709,0.653,0.266,0.66,0.565,0.496,0.904,0.376,0.202,0.849,0.23,0.475,0.86,0.384,0.335,0.743,0.238,0.626,0.766,0.469,0.441,0.745,0.285,0.603,paper
7.633661,-0.31,0.95,0.026,-0.087,0.979,0.182,0.458,-0.875,-0.156,0.698,-0.205,-0.686,0.773,-0.233,-0.59,0.682,0.664,0.307,0.653,0.573,0.496,0.892,0.382,0.243,0.847,0.239,0.475,0.854,0.377,0.359,0.737,0.247,0.629,0.772,0.444,0.455,0.741,0.296,0.603,paper
7.633784,-0.278,0.96,-0.008,-0.135,0.968,0.21,0.458,-0.875,-0.156,0.704,-0.246,-0.666,0.775,-0.212,-0.595,0.709,0.624,0.329,0.642,0.589,0.491,0.905,0.339,0.258,0.844,0.254,0.472,0.863,0.339,0.373,0.734,0.261,0.628,0.791,0.417,0.447,0.731,0.313,0.606,paper
7.633928,-0.255,0.966,-0.03,-0.131,0.963,0.236,0.433,-0.901,-0.014,0.692,-0.298,-0.658,0.78,-0.192,-0.596,0.744,0.576,0.338,0.627,0.606,0.488,0.926,0.278,0.256,0.836,0.273,0.475,0.883,0.285,0.374,0.726,0.279,0.629,0.818,0.391,0.423,0.719,0.327,0.614,paper
7.634065,-0.238,0.97,-0.049,-0.131,0.963,0.236,0.433,-0.901,-0.014,0.67,-0.352,-0.653,0.79,-0.176,-0.588,0.783,0.527,0.331,0.611,0.615,0.498,0.945,0.222,0.242,0.822,0.285,0.493,0.898,0.239,0.37,0.71,0.283,0.645,0.832,0.365,0.418,0.705,0.319,0.633,paper
7.634185,-0.219,0.972,-0.089,-0.076,0.964,0.253,0.433,-0.901,-0.014,0.653,-0.393,-0.647,0.813,-0.18,-0.554,0.806,0.493,0.327,0.596,0.596,0.538,0.953,0.19,0.236,0.808,0.262,0.528,0.906,0.206,0.37,0.687,0.259,0.679,0.844,0.339,0.416,0.7,0.276,0.659,paper
7.635523,-0.222,0.97,-0.095,-0.018,0.969,0.248,0.433,-0.901,-0.014,0.659,-0.387,-0.645,0.829,-0.192,-0.526,0.805,0.491,0.334,0.586,0.582,0.564,0.953,0.181,0.242,0.797,0.245,0.552,0.909,0.189,0.372,0.675,0.24,0.698,0.858,0.326,0.397,0.701,0.248,0.669,paper
7.635655,-0.217,0.973,-0.074,-0.018,0.969,0.248,0.402,-0.906,0.131,0.669,-0.372,-0.643,0.831,-0.19,-0.524,0.796,0.5,0.341,0.585,0.58,0.567,0.953,0.176,0.247,0.796,0.247,0.553,0.911,0.178,0.371,0.675,0.239,0.698,0.866,0.319,0.384,0.699,0.25,0.67,paper
7.635778,-0.21,0.976,-0.059,-0.018,0.969,0.248,0.365,-0.924,0.112,0.673,-0.362,-0.646,0.826,-0.185,-0.533,0.791,0.508,0.343,0.589,0.585,0.557,0.952,0.18,0.25,0.8,0.25,0.545,0.91,0.18,0.374,0.681,0.242,0.691,0.861,0.321,0.393,0.702,0.259,0.664,paper
7.635916,-0.208,0.978,-0.034,-0.018,0.969,0.248,0.344,-0.934,0.101,0.693,-0.327,-0.642,0.82,-0.184,-0.542,0.767,0.533,0.357,0.594,0.589,0.548,0.937,0.216,0.273,0.805,0.258,0.534,0.893,0.213,0.395,0.689,0.251,0.68,0.839,0.336,0.428,0.7,0.266,0.663,paper
7.636038,-0.23,0.967,0.108,-0.018,0.969,0.248,0.344,-0.934,0.101,0.736,-0.266,-0.623,0.816,-0.176,-0.55,0.707,0.588,0.393,0.589,0.598,0.543,0.903,0.284,0.323,0.803,0.266,0.533,0.845,0.293,0.446,0.689,0.264,0.675,0.787,0.362,0.5,0.694,0.274,0.666,paper
7.639879,-0.239,0.959,0.15,-0.078,0.963,0.257,0.344,-0.934,0.101,0.776,-0.208,-0.595,0.821,-0.159,-0.549,0.644,0.639,0.421,0.577,0.605,0.548,0.854,0.363,0.372,0.796,0.276,0.539,0.782,0.372,0.499,0.673,0.273,0.688,0.73,0.367,0.576,0.678,0.274,0.683,paper
7.660689,-0.233,0.962,0.142,-0.06,0.955,0.291,0.344,-0.934,0.101,0.802,-0.178,-0.57,0.839,-0.144,-0.525,0.601,0.657,0.455,0.554,0.607,0.57,0.825,0.386,0.412,0.775,0.283,0.565,0.758,0.384,0.527,0.646,0.278,0.711,0.713,0.361,0.601,0.658,0.258,0.707,paper
7.684484,-0.216,0.965,0.146,-0.037,0.93,0.366,0.276,-0.944,0.18,0.792,-0.181,-0.583,0.848,-0.107,-0.52,0.615,0.65,0.446,0.52,0.629,0.578,0.839,0.37,0.398,0.756,0.315,0.573,0.78,0.364,0.509,0.622,0.308,0.72,0.734,0.362,0.575,0.626,0.277,0.729,paper
7.707454,-0.212,0.968,0.136,-0.026,0.938,0.345,0.251,-0.934,0.256,0.727,-0.201,-0.657,0.853,-0.104,-0.512,0.676,0.644,0.359,0.513,0.634,0.579,0.88,0.353,0.318,0.755,0.31,0.578,0.826,0.341,0.448,0.638,0.298,0.711,0.762,0.376,0.528,0.633,0.294,0.716,paper
7.727448,-0.301,0.948,0.106,-0.026,0.938,0.345,0.251,-0.934,0.256,0.671,-0.221,-0.708,0.841,-0.162,-0.517,0.725,0.619,0.302,0.567,0.591,0.573,0.92,0.298,0.256,0.787,0.256,0.561,0.874,0.285,0.394,0.67,0.247,0.7,0.796,0.387,0.466,0.673,0.279,0.685,paper
8.143273,-0.264,0.951,0.158,-0.062,0.982,0.181,0.251,-0.934,0.256,0.691,-0.204,-0.694,0.812,-0.202,-0.547,0.71,0.618,0.336,0.611,0.571,0.548,0.915,0.291,0.281,0.819,0.241,0.521,0.864,0.295,0.409,0.703,0.242,0.669,0.774,0.413,0.48,0.708,0.268,0.654,paper
8.143422,-0.266,0.939,0.22,-0.062,0.982,0.181,0.194,-0.945,0.262,0.755,-0.138,-0.641,0.807,-0.187,-0.56,0.626,0.671,0.398,0.601,0.584,0.545,0.851,0.386,0.357,0.811,0.257,0.526,0.786,0.395,0.475,0.689,0.258,0.677,0.698,0.433,0.57,0.693,0.268,0.67,paper
8.143561,-0.273,0.924,0.267,-0.062,0.982,0.181,0.167,-0.951,0.26,0.81,-0.065,-0.582,0.816,-0.149,-0.558,0.524,0.725,0.446,0.555,0.615,0.561,0.772,0.475,0.422,0.785,0.291,0.547,0.701,0.476,0.531,0.651,0.295,0.7,0.638,0.426,0.641,0.654,0.277,0.704,paper
8.143682,-0.238,0.931,0.278,-0.06,0.931,0.359,0.167,-0.951,0.26,0.832,-0.043,-0.553,0.823,-0.099,-0.56,0.504,0.724,0.471,0.505,0.662,0.553,0.765,0.463,0.448,0.756,0.351,0.553,0.702,0.449,0.553,0.62,0.351,0.702,0.661,0.388,0.643,0.613,0.328,0.719,paper
8.143806,-0.186,0.943,0.275,-0.06,0.931,0.359,0.18,-0.938,0.295,0.82,-0.087,-0.566,0.809,-0.049,-0.586,0.559,0.684,0.468,0.491,0.705,0.512,0.807,0.398,0.437,0.75,0.396,0.53,0.745,0.385,0.544,0.628,0.393,0.671,0.693,0.363,0.623,0.593,0.378,0.711,paper
8.143942,-0.174,0.952,0.251,-0.06,0.931,0.359,0.133,-0.939,0.318,0.786,-0.142,-0.601,0.806,-0.056,-0.589,0.62,0.656,0.432,0.509,0.693,0.509,0.837,0.368,0.405,0.763,0.381,0.523,0.764,0.364,0.533,0.645,0.375,0.666,0.691,0.348,0.633,0.621,0.362,0.695,paper
8.144062,-0.214,0.942,0.257,-0.021,0.975,0.221,0.105,-0.933,0.344,0.773,-0.132,-0.62,0.82,-0.147,-0.554,0.609,0.679,0.41,0.565,0.614,0.551,0.828,0.395,0.397,0.794,0.283,0.538,0.745,0.394,0.539,0.672,0.279,0.686,0.674,0.338,0.657,0.68,0.274,0.68,paper
8.14419,-0.214,0.942,0.257,-0.021,0.975,0.221,0.105,-0.933,0.344,0.788,-0.113,-0.605,0.821,-0.235,-0.521,0.579,0.692,0.431,0.61,0.538,0.581,0.81,0.41,0.42,0.811,0.196,0.551,0.727,0.404,0.556,0.682,0.198,0.704,0.672,0.332,0.661,0.733,0.206,0.649,paper
8.144311,-0.214,0.942,0.257,0.037,0.998,0.06,0.086,-0.945,0.316,0.805,-0.111,-0.582,0.799,-0.32,-0.509,0.581,0.673,0.457,0.66,0.472,0.585,0.819,0.373,0.435,0.837,0.119,0.534,0.749,0.355,0.56,0.709,0.122,0.694,0.709,0.311,0.632,0.774,0.174,0.608,paper
8.144428,-0.135,0.961,0.24,0.037,0.998,0.06,0.086,-0.945,0.316,0.819,-0.123,-0.56,0.764,-0.35,-0.542,0.596,0.641,0.483,0.702,0.465,0.539,0.838,0.32,0.443,0.866,0.109,0.488,0.779,0.294,0.554,0.752,0.119,0.648,0.746,0.298,0.596,0.802,0.2,0.563,paper
8.144546,-0.107,0.965,0.239,-0.139,0.989,0.053,0.049,-0.943,0.33,0.823,-0.156,-0.546,0.737,-0.331,-0.589,0.616,0.612,0.497,0.725,0.49,0.483,0.845,0.292,0.447,0.889,0.137,0.438,0.782,0.281,0.557,0.787,0.146,0.599,0.741,0.305,0.599,0.81,0.251,0.53,paper
8.144665,-0.134,0.958,0.253,-0.132,0.988,0.082,0.049,-0.943,0.33,0.831,-0.142,-0.538,0.737,-0.313,-0.6,0.59,0.631,0.504,0.719,0.514,0.468,0.819,0.34,0.462,0.891,0.157,0.426,0.752,0.332,0.57,0.787,0.167,0.594,0.707,0.323,0.629,0.802,0.267,0.535,paper
8.144784,-0.168,0.952,0.255,-0.132,0.988,0.082,0.046,-0.949,0.313,0.836,-0.105,-0.539,0.741,-0.3,-0.601,0.548,0.674,0.496,0.709,0.522,0.475,0.784,0.408,0.467,0.887,0.168,0.43,0.708,0.404,0.58,0.787,0.176,0.591,0.672,0.333,0.662,0.803,0.275,0.528,paper
8.144912,-0.252,0.948,0.194,-0.095,0.992,0.087,0.017,-0.939,0.344,0.817,-0.095,-0.569,0.728,-0.338,-0.596,0.538,0.708,0.458,0.736,0.493,0.464,0.782,0.442,0.44,0.903,0.127,0.41,0.709,0.425,0.562,0.804,0.135,0.579,0.69,0.336,0.641,0.828,0.276,0.489,paper
8.145523,-0.269,0.955,0.126,-0.123,0.992,-0.026,0.017,-0.939,0.344,0.784,-0.153,-0.602,0.691,-0.378,-0.617,0.605,0.669,0.431,0.782,0.461,0.42,0.84,0.374,0.393,0.927,0.101,0.362,0.779,0.36,0.514,0.834,0.103,0.542,0.747,0.347,0.567,0.855,0.288,0.432,paper
8.145657,-0.262,0.961,0.085,-0.123,0.992,-0.026,0.005,-0.937,0.35,0.743,-0.249,-0.621,0.665,-0.402,-0.63,0.697,0.585,0.415,0.801,0.441,0.405,0.896,0.271,0.352,0.935,0.082,0.345,0.837,0.276,0.473,0.838,0.094,0.537,0.786,0.349,0.51,0.864,0.282,0.417,paper
8.145779,-0.198,0.979,0.056,-0.123,0.992,-0.026,-0.021,-0.94,0.339,0.726,-0.323,-0.607,0.699,-0.397,-0.595,0.748,0.513,0.42,0.769,0.434,0.47,0.917,0.202,0.345,0.909,0.08,0.41,0.858,0.213,0.468,0.799,0.084,0.595,0.804,0.326,0.498,0.851,0.22,0.478,paper
8.14591,-0.155,0.985,0.074,-0.123,0.992,-0.026,-0.021,-0.94,0.339,0.751,-0.302,-0.587,0.74,-0.386,-0.551,0.728,0.521,0.446,0.734,0.427,0.529,0.905,0.204,0.373,0.885,0.077,0.459,0.845,0.206,0.493,0.774,0.087,0.627,0.801,0.303,0.517,0.835,0.18,0.521,paper
8.146032,-0.132,0.983,0.125,0.032,0.998,0.048,-0.021,-0.94,0.339,0.796,-0.241,-0.555,0.751,-0.375,-0.543,0.667,0.565,0.486,0.721,0.434,0.541,0.869,0.252,0.425,0.878,0.081,0.472,0.804,0.244,0.543,0.771,0.091,0.63,0.773,0.284,0.567,0.826,0.17,0.537,paper
8.169895,-0.123,0.969,0.213,-0.041,0.998,0.041,-0.017,-0.916,0.401,0.841,-0.171,-0.514,0.746,-0.377,-0.549,0.582,0.62,0.527,0.733,0.442,0.517,0.809,0.33,0.487,0.891,0.092,0.445,0.738,0.314,0.598,0.783,0.102,0.613,0.73,0.278,0.625,0.831,0.194,0.521,paper
8.19462,-0.144,0.964,0.223,-0.041,0.998,0.041,-0.017,-0.916,0.401,0.864,-0.126,-0.487,0.722,-0.352,-0.596,0.532,0.646,0.547,0.744,0.477,0.468,0.78,0.361,0.512,0.909,0.121,0.399,0.711,0.34,0.615,0.808,0.141,0.573,0.718,0.279,0.638,0.828,0.266,0.493,paper
8.212897,-0.153,0.964,0.216,-0.252,0.966,0.055,-0.017,-0.916,0.401,0.858,-0.145,-0.492,0.686,-0.317,-0.655,0.548,0.635,0.545,0.75,0.521,0.406,0.785,0.353,0.509,0.92,0.18,0.349,0.712,0.342,0.613,0.82,0.194,0.539,0.707,0.292,0.644,0.809,0.342,0.478,paper
8.236326,-0.18,0.97,0.162,-0.268,0.958,0.102,-0.017,-0.916,0.401,0.838,-0.193,-0.511,0.697,-0.277,-0.661,0.588,0.612,0.529,0.716,0.553,0.427,0.806,0.334,0.489,0.906,0.204,0.37,0.727,0.335,0.6,0.787,0.227,0.574,0.709,0.304,0.637,0.778,0.361,0.514,paper
8.653055,-0.185,0.971,0.149,-0.126,0.977,0.173,-0.017,-0.916,0.401,0.827,-0.203,-0.525,0.74,-0.238,-0.629,0.606,0.605,0.515,0.657,0.583,0.478,0.823,0.321,0.469,0.865,0.243,0.44,0.751,0.315,0.58,0.73,0.254,0.635,0.73,0.31,0.609,0.725,0.354,0.59,paper
8.653211,-0.186,0.97,0.155,-0.056,0.964,0.26,-0.017,-0.916,0.401,0.82,-0.197,-0.537,0.759,-0.162,-0.63,0.611,0.609,0.505,0.581,0.632,0.513,0.828,0.319,0.46,0.823,0.315,0.473,0.759,0.314,0.571,0.665,0.341,0.665,0.734,0.318,0.6,0.658,0.367,0.658,paper
8.653332,-0.194,0.955,0.225,-0.088,0.882,0.463,-0.035,-0.926,0.375,0.823,-0.168,-0.542,0.793,-0.037,-0.608,0.592,0.629,0.503,0.472,0.688,0.551,0.815,0.346,0.464,0.756,0.409,0.511,0.742,0.344,0.575,0.582,0.442,0.683,0.706,0.336,0.624,0.565,0.369,0.738,paper
8.653457,-0.21,0.94,0.27,-0.088,0.882,0.463,-0.035,-0.926,0.375,0.832,-0.113,-0.544,0.819,0.084,-0.567,0.548,0.672,0.498,0.356,0.734,0.578,0.785,0.4,0.472,0.673,0.487,0.557,0.705,0.4,0.586,0.484,0.507,0.714,0.665,0.357,0.656,0.454,0.378,0.807,paper
8.653578,-0.234,0.925,0.3,0.0,0.794,0.608,-0.035,-0.926,0.375,0.842,-0.033,-0.539,0.813,0.271,-0.515,0.481,0.725,0.493,0.165,0.799,0.578,0.737,0.47,0.486,0.537,0.597,0.597,0.66,0.46,0.594,0.314,0.627,0.713,0.615,0.38,0.691,0.237,0.407,0.882,paper
8.653696,-0.265,0.891,0.368,-0.05,-0.301,0.952,-0.035,-0.926,0.375,0.84,0.029,-0.542,0.596,0.681,-0.426,0.421,0.768,0.483,-0.299,0.854,0.427,0.69,0.531,0.491,0.051,0.913,0.406,0.611,0.517,0.599,-0.169,0.845,0.507,0.573,0.396,0.718,-0.457,0.457,0.762,paper
8.65382,-0.264,0.884,0.385,-0.05,-0.301,0.952,-0.066,-0.927,0.368,0.842,0.061,-0.535,-0.141,0.99,-0.0,0.397,0.782,0.48,-0.891,0.445,-0.089,0.675,0.55,0.493,-0.696,0.696,-0.174,0.597,0.535,0.598,-0.724,0.686,-0.076,0.553,0.41,0.725,-0.963,0.259,0.074,paper
8.653949,-0.259,0.887,0.382,-0.1,-0.96,0.26,-0.066,-0.927,0.368,0.846,0.067,-0.528,-0.492,0.839,0.232,0.393,0.782,0.483,-0.922,0.081,-0.379,0.674,0.548,0.495,-0.849,0.386,-0.36,0.596,0.536,0.598,-0.831,0.427,-0.356,0.549,0.42,0.723,-0.97,0.135,-0.203,paper
8.654073,-0.255,0.894,0.368,-0.124,-0.964,0.234,-0.075,-0.925,0.372,0.855,0.069,-0.514,-0.622,0.726,0.294,0.385,0.78,0.493,-0.879,-0.065,-0.472,0.668,0.548,0.503,-0.861,0.282,-0.423,0.592,0.535,0.602,-0.823,0.329,-0.464,0.552,0.415,0.723,-0.95,0.099,-0.298,paper
8.654196,-0.25,0.903,0.35,-0.124,-0.964,0.234,-0.106,-0.919,0.379,0.859,0.056,-0.509,-0.678,0.666,0.309,0.39,0.776,0.496,-0.848,-0.126,-0.515,0.672,0.544,0.503,-0.861,0.232,-0.453,0.595,0.529,0.606,-0.817,0.258,-0.516,0.564,0.398,0.723,-0.929,0.083,-0.361,paper
8.654324,-0.238,0.92,0.311,-0.124,-0.964,0.234,-0.076,-0.933,0.352,0.855,0.012,-0.519,-0.71,0.619,0.337,0.431,0.752,0.499,-0.827,-0.167,-0.537,0.706,0.505,0.497,-0.858,0.191,-0.477,0.638,0.483,0.6,-0.807,0.212,-0.552,0.615,0.374,0.694,-0.911,0.073,-0.407,paper
8.654445,-0.178,0.957,0.229,-0.149,-0.981,0.122,-0.094,-0.941,0.325,0.845,-0.066,-0.53,-0.737,0.599,0.315,0.519,0.691,0.503,-0.803,-0.164,-0.573,0.777,0.409,0.478,-0.846,0.184,-0.5,0.712,0.39,0.585,-0.786,0.213,-0.58,0.688,0.34,0.641,-0.902,0.092,-0.423,paper
8.654569,-0.133,0.972,0.193,-0.194,-0.972,0.13,-0.094,-0.941,0.325,0.824,-0.158,-0.544,-0.737,0.613,0.285,0.604,0.621,0.5,-0.795,-0.142,-0.589,0.836,0.307,0.454,-0.83,0.218,-0.513,0.772,0.292,0.565,-0.764,0.245,-0.596,0.742,0.306,0.597,-0.9,0.122,-0.419,paper
8.654692,-0.1,0.979,0.177,-0.194,-0.972,0.13,-0.085,-0.938,0.337,0.812,-0.213,-0.543,-0.731,0.634,0.254,0.651,0.573,0.498,-0.794,-0.109,-0.598,0.86,0.248,0.446,-0.821,0.247,-0.516,0.793,0.24,0.561,-0.753,0.282,-0.594,0.757,0.278,0.591,-0.901,0.148,-0.408,paper
8.655141,-0.092,0.976,0.198,-0.194,-0.972,0.13,-0.082,-0.948,0.306,0.819,-0.218,-0.531,-0.719,0.649,0.25,0.641,0.576,0.508,-0.806,-0.1,-0.583,0.846,0.268,0.462,-0.824,0.259,-0.504,0.769,0.266,0.581,-0.755,0.29,-0.588,0.736,0.268,0.622,-0.906,0.134,-0.401,paper
8.655271,-0.121,0.97,0.212,-0.188,-0.964,0.188,-0.082,-0.948,0.306,0.839,-0.165,-0.518,-0.731,0.621,0.283,0.58,0.63,0.516,-0.808,-0.132,-0.575,0.801,0.347,0.488,-0.831,0.221,-0.511,0.724,0.33,0.606,-0.763,0.252,-0.595,0.709,0.266,0.653,-0.903,0.104,-0.418,paper
8.655392,-0.143,0.966,0.217,-0.14,-0.981,0.132,-0.082,-0.948,0.306,0.847,-0.111,-0.521,-0.765,0.57,0.3,0.539,0.673,0.506,-0.78,-0.193,-0.595,0.782,0.389,0.488,-0.829,0.161,-0.536,0.703,0.369,0.608,-0.75,0.191,-0.633,0.692,0.271,0.669,-0.879,0.071,-0.472,paper
8.655513,-0.169,0.958,0.232,-0.14,-0.981,0.132,-0.059,-0.955,0.29,0.827,-0.139,-0.544,-0.803,0.498,0.327,0.569,0.664,0.485,-0.742,-0.268,-0.615,0.803,0.375,0.463,-0.821,0.083,-0.565,0.723,0.359,0.59,-0.743,0.111,-0.66,0.7,0.274,0.66,-0.848,0.027,-0.529,paper
8.655631,-0.13,0.977,0.167,-0.14,-0.981,0.132,-0.099,-0.964,0.248,0.815,-0.171,-0.554,-0.835,0.432,0.341,0.61,0.629,0.481,-0.701,-0.33,-0.632,0.837,0.317,0.446,-0.804,0.02,-0.594,0.766,0.298,0.569,-0.726,0.048,-0.686,0.741,0.264,0.617,-0.819,0.0,-0.574,paper
8.669643,-0.13,0.977,0.167,-0.14,-0.981,0.132,-0.099,-0.964,0.248,0.807,-0.217,-0.549,-0.858,0.39,0.333,0.653,0.581,0.486,-0.664,-0.357,-0.657,0.86,0.259,0.439,-0.784,-0.014,-0.62,0.789,0.246,0.562,-0.7,0.021,-0.714,0.758,0.25,0.602,-0.792,-0.013,-0.611,paper
8.694611,-0.061,0.98,0.19,-0.14,-0.974,-0.177,-0.099,-0.964,0.248,0.812,-0.258,-0.524,-0.872,0.338,0.353,0.668,0.542,0.51,-0.644,-0.414,-0.644,0.855,0.231,0.464,-0.78,-0.072,-0.621,0.776,0.228,0.588,-0.699,-0.036,-0.714,0.747,0.23,0.624,-0.773,-0.064,-0.631,paper
8.715477,-0.038,0.979,0.201,-0.054,-0.975,-0.217,-0.099,-0.964,0.248,0.838,-0.226,-0.496,-0.878,0.293,0.38,0.632,0.557,0.539,-0.623,-0.462,-0.631,0.836,0.24,0.494,-0.773,-0.12,-0.623,0.759,0.224,0.611,-0.69,-0.082,-0.72,0.75,0.208,0.628,-0.75,-0.096,-0.654,paper
8.737083,-0.041,0.973,0.225,-0.072,-0.964,-0.255,-0.099,-0.964,0.248,0.863,-0.185,-0.47,-0.897,0.256,0.36,0.589,0.579,0.565,-0.583,-0.481,-0.654,0.811,0.265,0.522,-0.745,-0.138,-0.653,0.734,0.245,0.633,-0.66,-0.1,-0.745,0.731,0.206,0.65,-0.719,-0.091,-0.689,paper
9.162322,-0.057,0.97,0.235,-0.072,-0.964,-0.255,-0.034,-0.976,0.214,0.867,-0.194,-0.458,-0.907,0.229,0.355,0.579,0.577,0.576,-0.563,-0.501,-0.657,0.795,0.285,0.536,-0.734,-0.168,-0.658,0.71,0.273,0.65,-0.65,-0.13,-0.749,0.706,0.217,0.675,-0.703,-0.105,-0.703,paper
9.162469,-0.061,0.973,0.223,-0.099,-0.952,-0.289,-0.034,-0.976,0.214,0.865,-0.2,-0.46,-0.902,0.202,0.381,0.588,0.571,0.573,-0.565,-0.527,-0.634,0.803,0.273,0.53,-0.744,-0.195,-0.639,0.719,0.264,0.642,-0.656,-0.158,-0.738,0.714,0.219,0.665,-0.697,-0.132,-0.705,paper
9.162592,-0.06,0.975,0.215,-0.037,-0.956,-0.291,-0.034,-0.976,0.214,0.857,-0.213,-0.469,-0.898,0.194,0.395,0.602,0.562,0.567,-0.564,-0.541,-0.625,0.815,0.256,0.52,-0.742,-0.21,-0.637,0.739,0.241,0.63,-0.658,-0.172,-0.733,0.734,0.217,0.644,-0.688,-0.146,-0.71,paper
9.162719,-0.048,0.98,0.191,-0.038,-0.952,-0.302,0.031,-0.979,0.201,0.849,-0.236,-0.473,-0.903,0.166,0.396,0.627,0.539,0.562,-0.553,-0.553,-0.623,0.83,0.223,0.511,-0.736,-0.228,-0.637,0.752,0.213,0.624,-0.655,-0.19,-0.731,0.745,0.209,0.634,-0.683,-0.158,-0.713,paper
9.162843,-0.032,0.98,0.195,-0.038,-0.952,-0.302,0.031,-0.983,0.179,0.849,-0.25,-0.466,-0.9,0.147,0.409,0.629,0.53,0.568,-0.545,-0.577,-0.609,0.826,0.223,0.517,-0.737,-0.251,-0.627,0.745,0.214,0.632,-0.658,-0.219,-0.721,0.741,0.203,0.64,-0.671,-0.185,-0.718,paper
9.16298,-0.036,0.983,0.178,-0.038,-0.952,-0.302,0.031,-0.983,0.179,0.858,-0.244,-0.452,-0.891,0.133,0.433,0.619,0.529,0.58,-0.536,-0.601,-0.593,0.823,0.218,0.525,-0.734,-0.271,-0.622,0.741,0.206,0.639,-0.658,-0.238,-0.714,0.745,0.193,0.638,-0.664,-0.203,-0.719,paper
9.163105,-0.016,0.984,0.179,0.017,-0.937,-0.348,0.031,-0.983,0.179,0.865,-0.25,-0.436,-0.891,0.126,0.437,0.615,0.519,0.593,-0.535,-0.609,-0.585,0.818,0.207,0.536,-0.736,-0.283,-0.615,0.737,0.192,0.648,-0.661,-0.242,-0.71,0.748,0.181,0.639,-0.658,-0.214,-0.722,paper
9.163738,-0.003,0.984,0.178,0.017,-0.937,-0.348,0.083,-0.98,0.181,0.863,-0.272,-0.426,-0.885,0.111,0.451,0.622,0.5,0.602,-0.541,-0.615,-0.574,0.819,0.186,0.542,-0.745,-0.295,-0.598,0.735,0.178,0.654,-0.67,-0.262,-0.695,0.749,0.166,0.641,-0.655,-0.232,-0.719,paper
9.16388,0.009,0.987,0.16,0.017,-0.937,-0.348,0.097,-0.98,0.175,0.858,-0.296,-0.42,-0.873,0.087,0.48,0.64,0.473,0.606,-0.533,-0.643,-0.55,0.826,0.153,0.542,-0.747,-0.327,-0.579,0.743,0.143,0.653,-0.674,-0.283,-0.682,0.767,0.141,0.626,-0.65,-0.26,-0.715,paper
9.16402,0.046,0.99,0.13,0.088,-0.914,-0.396,0.097,-0.98,0.175,0.852,-0.325,-0.41,-0.87,0.046,0.491,0.66,0.439,0.609,-0.51,-0.672,-0.537,0.837,0.105,0.537,-0.734,-0.362,-0.575,0.761,0.09,0.643,-0.665,-0.324,-0.673,0.794,0.115,0.597,-0.629,-0.284,-0.724,paper
9.164144,0.057,0.994,0.097,0.084,-0.899,-0.431,0.097,-0.98,0.175,0.848,-0.353,-0.395,-0.869,0.02,0.494,0.675,0.409,0.614,-0.495,-0.686,-0.533,0.843,0.072,0.532,-0.723,-0.385,-0.573,0.766,0.057,0.64,-0.654,-0.346,-0.673,0.807,0.1,0.582,-0.606,-0.303,-0.735,paper
9.16427,0.069,0.994,0.081,0.083,-0.887,-0.454,0.097,-0.98,0.175,0.838,-0.381,-0.391,-0.865,-0.021,0.502,0.693,0.382,0.611,-0.467,-0.716,-0.519,0.849,0.043,0.526,-0.706,-0.43,-0.563,0.772,0.03,0.635,-0.644,-0.378,-0.665,0.819,0.084,0.568,-0.578,-0.329,-0.747,paper
9.164392,0.073,0.995,0.068,0.161,-0.831,-0.533,0.163,-0.977,0.135,0.828,-0.405,-0.389,-0.854,-0.07,0.515,0.704,0.36,0.613,-0.434,-0.755,-0.492,0.851,0.024,0.525,-0.677,-0.474,-0.564,0.779,0.003,0.627,-0.61,-0.429,-0.666,0.828,0.069,0.556,-0.533,-0.37,-0.761,paper
9.164514,0.071,0.996,0.047,0.161,-0.831,-0.533,0.141,-0.969,0.203,0.818,-0.427,-0.387,-0.832,-0.172,0.528,0.739,0.319,0.594,-0.366,-0.82,-0.441,0.858,-0.009,0.514,-0.635,-0.546,-0.546,0.783,-0.022,0.622,-0.587,-0.5,-0.637,0.844,0.064,0.533,-0.461,-0.402,-0.791,paper
9.165429,0.09,0.995,0.038,0.161,-0.831,-0.533,0.141,-0.969,0.203,0.803,-0.462,-0.377,-0.786,-0.283,0.55,0.718,0.322,0.617,-0.3,-0.872,-0.386,0.861,-0.039,0.507,-0.589,-0.632,-0.503,0.792,-0.053,0.608,-0.568,-0.568,-0.596,0.855,0.053,0.516,-0.426,-0.453,-0.783,paper
9.165566,0.1,0.995,0.023,0.306,-0.551,-0.776,0.141,-0.969,0.203,0.811,-0.453,-0.369,-0.743,-0.411,0.528,0.732,0.301,0.612,-0.182,-0.927,-0.327,0.864,-0.065,0.5,-0.506,-0.723,-0.47,0.799,-0.084,0.595,-0.508,-0.653,-0.562,0.863,0.042,0.504,-0.327,-0.516,-0.792,paper
9.165691,0.104,0.994,0.018,0.299,-0.326,-0.897,0.172,-0.975,0.142,0.804,-0.469,-0.366,-0.606,-0.662,0.441,0.74,0.285,0.61,0.05,-0.978,-0.201,0.862,-0.069,0.503,-0.254,-0.889,-0.381,0.796,-0.086,0.599,-0.349,-0.833,-0.43,0.867,0.041,0.496,-0.12,-0.6,-0.791,paper
9.165816,0.106,0.994,0.028,0.299,-0.326,-0.897,0.206,-0.962,0.18,0.809,-0.461,-0.365,-0.282,-0.917,0.282,0.731,0.294,0.615,0.326,-0.945,0.033,0.858,-0.054,0.511,0.065,-0.978,-0.196,0.79,-0.067,0.609,-0.109,-0.977,-0.181,0.863,0.048,0.503,0.198,-0.725,-0.659,paper
9.165952,0.095,0.995,0.032,0.299,-0.326,-0.897,0.202,-0.961,0.188,0.823,-0.436,-0.365,0.189,-0.982,0.0,0.716,0.319,0.621,0.667,-0.667,0.333,0.855,-0.028,0.518,0.489,-0.865,0.113,0.785,-0.038,0.618,0.358,-0.894,0.268,0.853,0.065,0.518,0.639,-0.679,-0.36,paper
9.183241,0.062,0.996,0.069,0.28,0.943,-0.178,0.221,-0.967,0.124,0.833,-0.409,-0.373,0.586,-0.772,-0.247,0.696,0.356,0.624,0.764,-0.133,0.631,0.848,0.021,0.53,0.768,-0.501,0.4,0.778,0.007,0.629,0.599,-0.487,0.636,0.838,0.09,0.538,0.885,-0.423,0.192,paper
9.198851,0.062,0.996,0.069,0.28,0.943,-0.178,0.221,-0.967,0.124,0.838,-0.391,-0.382,0.713,-0.627,-0.314,0.689,0.375,0.62,0.721,0.06,0.691,0.847,0.043,0.53,0.82,-0.304,0.486,0.778,0.025,0.628,0.65,-0.26,0.715,0.836,0.103,0.54,0.882,-0.237,0.407,paper
9.221919,0.015,0.994,0.109,0.28,0.943,-0.178,0.234,-0.957,0.172,0.841,-0.365,-0.399,0.774,-0.46,-0.435,0.681,0.402,0.612,0.675,0.3,0.675,0.849,0.067,0.525,0.843,-0.051,0.536,0.777,0.052,0.627,0.68,-0.0,0.733,0.826,0.124,0.55,0.832,0.0,0.555,paper
9.246155,-0.022,0.992,0.124,0.036,0.983,0.182,0.18,-0.957,0.226,0.839,-0.347,-0.42,0.804,-0.33,-0.495,0.676,0.43,0.598,0.612,0.443,0.655,0.847,0.105,0.521,0.82,0.108,0.561,0.777,0.088,0.624,0.656,0.131,0.743,0.81,0.151,0.567,0.757,0.115,0.643,paper
9.672196,-0.04,0.99,0.136,0.066,0.974,0.215,0.18,-0.957,0.226,0.84,-0.323,-0.437,0.829,-0.258,-0.497,0.667,0.458,0.588,0.568,0.512,0.644,0.849,0.129,0.513,0.802,0.172,0.573,0.777,0.115,0.619,0.613,0.192,0.766,0.8,0.17,0.576,0.698,0.164,0.698,paper
9.672426,-0.053,0.988,0.145,0.066,0.974,0.215,0.18,-0.957,0.226,0.838,-0.305,-0.453,0.832,-0.221,-0.509,0.662,0.477,0.577,0.553,0.535,0.639,0.849,0.15,0.506,0.788,0.21,0.578,0.776,0.135,0.616,0.617,0.212,0.758,0.794,0.181,0.581,0.695,0.188,0.695,paper
9.672546,-0.069,0.984,0.164,0.015,0.974,0.225,0.18,-0.957,0.226,0.836,-0.289,-0.467,0.84,-0.218,-0.498,0.656,0.5,0.566,0.555,0.539,0.634,0.846,0.179,0.502,0.781,0.207,0.59,0.771,0.167,0.614,0.625,0.208,0.753,0.779,0.202,0.594,0.683,0.205,0.701,paper
9.672668,-0.085,0.982,0.168,0.044,0.972,0.232,0.18,-0.957,0.226,0.838,-0.265,-0.478,0.847,-0.208,-0.49,0.643,0.526,0.557,0.556,0.541,0.631,0.842,0.211,0.497,0.789,0.212,0.577,0.767,0.199,0.611,0.627,0.214,0.749,0.77,0.221,0.598,0.693,0.198,0.693,paper
9.672797,-0.1,0.977,0.19,0.043,0.973,0.229,0.18,-0.957,0.226,0.844,-0.235,-0.482,0.84,-0.206,-0.501,0.622,0.555,0.552,0.547,0.562,0.621,0.831,0.246,0.5,0.786,0.227,0.575,0.754,0.231,0.615,0.625,0.229,0.747,0.755,0.237,0.612,0.683,0.211,0.699,paper
9.672926,-0.112,0.971,0.209,0.015,0.966,0.257,0.18,-0.957,0.226,0.839,-0.224,-0.495,0.83,-0.207,-0.518,0.62,0.565,0.545,0.551,0.567,0.612,0.832,0.252,0.495,0.783,0.215,0.584,0.754,0.238,0.612,0.622,0.233,0.747,0.748,0.245,0.616,0.682,0.216,0.699,paper
9.673045,-0.1,0.974,0.201,0.0,0.973,0.232,0.18,-0.957,0.226,0.836,-0.238,-0.495,0.827,-0.222,-0.517,0.628,0.555,0.545,0.561,0.546,0.622,0.835,0.243,0.493,0.789,0.212,0.577,0.759,0.231,0.608,0.627,0.214,0.749,0.754,0.242,0.611,0.674,0.214,0.707,paper
9.673164,-0.095,0.98,0.173,0.015,0.977,0.211,0.18,-0.957,0.226,0.838,-0.241,-0.489,0.819,-0.216,-0.532,0.632,0.547,0.548,0.567,0.552,0.612,0.839,0.23,0.494,0.797,0.222,0.561,0.77,0.207,0.604,0.632,0.241,0.737,0.771,0.231,0.593,0.669,0.245,0.702,paper
9.673354,-0.072,0.984,0.162,0.015,0.977,0.211,0.157,-0.955,0.252,0.841,-0.249,-0.481,0.801,-0.193,-0.566,0.636,0.537,0.554,0.567,0.597,0.567,0.84,0.218,0.497,0.806,0.259,0.532,0.766,0.202,0.61,0.654,0.291,0.698,0.769,0.222,0.599,0.668,0.295,0.683,paper
9.673482,-0.074,0.983,0.165,0.015,0.977,0.211,0.139,-0.962,0.235,0.834,-0.277,-0.478,0.806,-0.191,-0.56,0.648,0.521,0.556,0.568,0.582,0.582,0.843,0.205,0.498,0.803,0.244,0.545,0.762,0.193,0.618,0.646,0.258,0.718,0.765,0.207,0.61,0.682,0.264,0.682,paper
9.67361,-0.064,0.987,0.144,0.015,0.977,0.211,0.139,-0.962,0.235,0.826,-0.309,-0.471,0.823,-0.243,-0.513,0.673,0.488,0.556,0.571,0.53,0.627,0.855,0.168,0.491,0.79,0.194,0.582,0.78,0.153,0.607,0.628,0.195,0.753,0.788,0.189,0.586,0.693,0.196,0.693,paper
9.673728,-0.053,0.994,0.097,0.077,0.981,0.181,0.139,-0.962,0.235,0.822,-0.311,-0.476,0.825,-0.258,-0.503,0.683,0.481,0.551,0.593,0.514,0.62,0.865,0.149,0.48,0.799,0.17,0.576,0.798,0.127,0.589,0.654,0.187,0.734,0.816,0.183,0.549,0.721,0.198,0.664,paper
9.673846,-0.053,0.994,0.097,-0.0,0.986,0.168,0.105,-0.951,0.292,0.825,-0.302,-0.477,0.797,-0.245,-0.552,0.674,0.492,0.551,0.61,0.548,0.573,0.863,0.162,0.479,0.825,0.197,0.53,0.797,0.144,0.587,0.691,0.214,0.691,0.811,0.194,0.551,0.732,0.239,0.638,paper
9.67397,-0.083,0.989,0.119,-0.0,0.986,0.168,0.105,-0.951,0.292,0.821,-0.307,-0.481,0.797,-0.226,-0.559,0.673,0.497,0.548,0.617,0.556,0.556,0.858,0.179,0.481,0.831,0.205,0.518,0.786,0.168,0.595,0.698,0.208,0.685,0.793,0.208,0.573,0.733,0.257,0.63,paper
9.674091,-0.082,0.989,0.127,-0.046,0.982,0.185,0.105,-0.951,0.292,0.822,-0.303,-0.482,0.813,-0.232,-0.534,0.668,0.503,0.549,0.597,0.549,0.585,0.855,0.189,0.482,0.811,0.203,0.549,0.782,0.181,0.596,0.669,0.195,0.717,0.784,0.218,0.581,0.713,0.229,0.662,paper
9.674979,-0.086,0.986,0.142,0.023,0.976,0.218,0.105,-0.951,0.292,0.828,-0.285,-0.483,0.828,-0.218,-0.517,0.657,0.516,0.55,0.581,0.545,0.604,0.852,0.198,0.484,0.799,0.211,0.564,0.781,0.188,0.596,0.66,0.216,0.72,0.782,0.22,0.583,0.701,0.225,0.676,paper
9.67511,-0.083,0.986,0.147,0.023,0.973,0.229,0.105,-0.951,0.292,0.828,-0.279,-0.486,0.831,-0.216,-0.512,0.656,0.522,0.545,0.569,0.558,0.604,0.852,0.203,0.483,0.797,0.208,0.566,0.78,0.191,0.596,0.647,0.223,0.729,0.779,0.221,0.586,0.695,0.224,0.683,paper
9.675233,-0.095,0.984,0.149,0.044,0.977,0.209,0.105,-0.951,0.292,0.817,-0.281,-0.503,0.842,-0.233,-0.487,0.667,0.526,0.527,0.584,0.528,0.617,0.859,0.207,0.467,0.793,0.193,0.578,0.787,0.196,0.586,0.64,0.194,0.743,0.777,0.232,0.585,0.706,0.191,0.682,paper
9.675353,-0.118,0.98,0.163,0.063,0.98,0.19,0.071,-0.953,0.294,0.818,-0.257,-0.515,0.847,-0.247,-0.472,0.655,0.548,0.519,0.579,0.513,0.634,0.854,0.238,0.463,0.794,0.165,0.585,0.781,0.229,0.581,0.644,0.178,0.744,0.767,0.256,0.588,0.715,0.164,0.68,paper
9.688862,-0.145,0.974,0.172,0.063,0.98,0.19,0.071,-0.953,0.294,0.821,-0.22,-0.526,0.851,-0.248,-0.463,0.632,0.584,0.51,0.582,0.505,0.637,0.843,0.281,0.46,0.79,0.167,0.59,0.771,0.266,0.578,0.644,0.178,0.744,0.752,0.277,0.599,0.721,0.163,0.674,paper
9.713525,-0.172,0.963,0.208,0.075,0.976,0.204,0.042,-0.949,0.314,0.824,-0.183,-0.536,0.838,-0.257,-0.481,0.607,0.616,0.503,0.594,0.503,0.628,0.826,0.321,0.463,0.805,0.149,0.575,0.752,0.306,0.583,0.655,0.164,0.737,0.731,0.294,0.616,0.734,0.159,0.66,paper
9.734821,-0.177,0.959,0.224,0.047,0.985,0.166,0.044,-0.946,0.32,0.828,-0.165,-0.537,0.832,-0.285,-0.476,0.589,0.632,0.503,0.614,0.481,0.626,0.814,0.343,0.47,0.807,0.135,0.575,0.737,0.328,0.591,0.661,0.15,0.736,0.711,0.304,0.634,0.744,0.144,0.653,paper
9.758086,-0.175,0.954,0.242,0.047,0.985,0.166,0.043,-0.927,0.372,0.83,-0.153,-0.536,0.831,-0.302,-0.466,0.584,0.638,0.503,0.623,0.455,0.636,0.813,0.344,0.47,0.811,0.105,0.576,0.737,0.33,0.59,0.654,0.12,0.747,0.71,0.31,0.632,0.749,0.127,0.65,paper
10.183296,-0.166,0.955,0.246,0.047,0.985,0.166,0.034,-0.946,0.323,0.831,-0.144,-0.537,0.819,-0.309,-0.483,0.575,0.645,0.503,0.631,0.452,0.631,0.807,0.354,0.472,0.816,0.111,0.567,0.733,0.34,0.589,0.665,0.127,0.736,0.702,0.319,0.636,0.751,0.135,0.646,paper
10.18344,-0.176,0.952,0.252,0.043,0.992,0.115,0.034,-0.946,0.323,0.836,-0.13,-0.533,0.819,-0.302,-0.488,0.558,0.656,0.509,0.627,0.463,0.627,0.796,0.371,0.478,0.824,0.12,0.554,0.72,0.358,0.595,0.661,0.138,0.738,0.689,0.326,0.647,0.748,0.13,0.651,paper
10.183567,-0.179,0.949,0.262,0.043,0.992,0.115,0.016,-0.941,0.338,0.84,-0.117,-0.53,0.809,-0.307,-0.501,0.546,0.665,0.511,0.623,0.472,0.623,0.785,0.383,0.486,0.826,0.12,0.551,0.71,0.368,0.601,0.656,0.138,0.742,0.683,0.325,0.654,0.744,0.149,0.651,paper
10.183689,-0.174,0.95,0.26,0.055,0.99,0.128,0.044,-0.942,0.334,0.846,-0.111,-0.522,0.793,-0.302,-0.529,0.54,0.663,0.518,0.614,0.495,0.614,0.785,0.379,0.49,0.836,0.143,0.53,0.708,0.364,0.605,0.641,0.186,0.745,0.684,0.325,0.654,0.729,0.182,0.66,paper
10.183815,-0.168,0.952,0.257,-0.026,0.977,0.211,0.044,-0.942,0.334,0.846,-0.122,-0.52,0.783,-0.261,-0.565,0.547,0.655,0.521,0.584,0.538,0.608,0.79,0.367,0.491,0.817,0.21,0.537,0.713,0.354,0.605,0.624,0.24,0.744,0.687,0.321,0.652,0.672,0.242,0.699,paper
10.183948,-0.161,0.954,0.253,-0.026,0.977,0.211,0.044,-0.942,0.334,0.842,-0.137,-0.521,0.78,-0.182,-0.598,0.555,0.646,0.523,0.539,0.596,0.596,0.791,0.362,0.492,0.81,0.251,0.53,0.713,0.349,0.608,0.578,0.318,0.751,0.691,0.313,0.652,0.604,0.302,0.738,paper
