time,s1_X,s1_Y,s1_Z,s1_gyro_x,s1_gyro_y,s1_gyro_z,s1_mag_x,s1_mag_y,s1_mag_z,s2_X,s2_Y,s2_Z,s2_gyro_x,s2_gyro_y,s2_gyro_z,s3_X,s3_Y,s3_Z,s3_gyro_x,s3_gyro_y,s3_gyro_z,s4_X,s4_Y,s4_Z,s4_gyro_x,s4_gyro_y,s4_gyro_z,s5_X,s5_Y,s5_Z,s5_gyro_x,s5_gyro_y,s5_gyro_z,s6_X,s6_Y,s6_Z,s6_gyro_x,s6_gyro_y,s6_gyro_z,label
0.007493,-0.099,0.95,0.298,0.243,0.97,-0.0,0.272,-0.961,0.047,0.68,-0.683,0.265,0.588,-0.784,-0.196,0.889,-0.246,0.387,0.371,-0.557,0.743,0.905,0.218,0.365,0.781,-0.625,0.0,0.761,0.283,0.583,0.0,0.243,0.97,0.291,0.91,0.294,-0.302,0.905,-0.302,scissors
0.050274,-0.091,0.948,0.306,0.156,0.937,-0.312,0.272,-0.961,0.047,0.675,-0.686,0.271,0.436,-0.873,-0.218,0.885,-0.251,0.392,0.183,-0.365,0.913,0.91,0.204,0.36,0.885,-0.442,0.147,0.766,0.274,0.582,0.192,0.192,0.962,0.297,0.909,0.293,-0.312,0.937,-0.156,scissors
0.050424,-0.078,0.95,0.302,0.287,0.958,0.0,0.291,-0.955,0.066,0.679,-0.682,0.271,0.588,-0.784,0.196,0.886,-0.247,0.392,0.164,0.0,0.986,0.901,0.223,0.371,0.889,-0.254,0.381,0.761,0.277,0.587,0.391,0.13,0.911,0.291,0.909,0.3,-0.381,0.889,0.254,scissors
0.073876,-0.088,0.947,0.309,0.287,0.958,0.0,0.291,-0.955,0.066,0.695,-0.669,0.262,0.535,-0.802,-0.267,0.894,-0.231,0.383,0.196,-0.0,0.981,0.894,0.236,0.381,0.97,-0.243,-0.0,0.749,0.29,0.596,0.429,0.286,0.857,0.278,0.91,0.308,-0.492,0.862,-0.123,scissors
0.09299,-0.079,0.943,0.323,-0.514,0.857,0.0,0.291,-0.955,0.066,0.691,-0.671,0.268,0.371,-0.743,-0.557,0.891,-0.233,0.389,0.333,-0.667,0.667,0.902,0.213,0.377,0.802,0.535,-0.267,0.747,0.289,0.599,0.196,0.588,0.784,0.282,0.908,0.309,-0.549,0.768,-0.329,scissors
0.114297,-0.069,0.947,0.314,-0.514,0.857,0.0,0.297,-0.955,0.0,0.678,-0.68,0.281,0.686,-0.514,-0.514,0.883,-0.245,0.399,0.667,-0.333,0.667,0.914,0.182,0.361,0.662,0.53,0.53,0.761,0.269,0.591,-0.137,0.549,0.824,0.297,0.905,0.303,-0.64,0.768,-0.0,scissors
0.137438,-0.073,0.955,0.287,-0.514,0.857,0.0,0.315,-0.949,0.012,0.673,-0.682,0.285,0.814,-0.465,-0.349,0.879,-0.25,0.406,0.873,0.218,0.436,0.909,0.192,0.37,0.631,0.451,0.631,0.77,0.257,0.584,-0.0,0.53,0.848,0.307,0.904,0.299,-0.597,0.796,0.1,scissors
0.15869,-0.069,0.956,0.284,0.0,0.832,0.555,0.315,-0.949,0.012,0.675,-0.681,0.284,0.738,-0.527,-0.422,0.881,-0.245,0.405,0.962,0.192,0.192,0.905,0.202,0.374,0.686,0.514,0.514,0.767,0.261,0.587,0.094,0.656,0.749,0.305,0.903,0.304,-0.612,0.786,0.087,scissors
0.180662,-0.074,0.955,0.288,-0.085,0.854,0.513,0.315,-0.949,0.012,0.68,-0.678,0.281,0.64,-0.64,-0.426,0.884,-0.241,0.401,0.986,0.0,0.164,0.902,0.209,0.379,0.743,0.557,0.371,0.761,0.264,0.592,0.185,0.74,0.647,0.303,0.902,0.306,-0.573,0.819,0.0,scissors
0.205212,-0.067,0.953,0.297,-0.085,0.854,0.513,0.292,-0.956,0.023,0.679,-0.678,0.283,0.488,-0.781,-0.39,0.882,-0.241,0.404,0.824,-0.549,0.137,0.905,0.201,0.375,0.909,0.404,0.101,0.757,0.266,0.596,0.309,0.722,0.619,0.304,0.901,0.309,-0.408,0.898,-0.163,scissors
0.22642,-0.068,0.953,0.296,-0.085,0.854,0.513,0.328,-0.944,0.04,0.673,-0.681,0.287,0.535,-0.802,-0.267,0.879,-0.246,0.408,0.768,-0.549,0.329,0.91,0.187,0.37,0.941,0.282,0.188,0.766,0.255,0.591,0.426,0.64,0.64,0.311,0.901,0.304,-0.239,0.958,-0.16,scissors
0.246621,-0.064,0.954,0.294,-0.085,0.854,0.513,0.328,-0.944,0.04,0.669,-0.685,0.289,0.535,-0.841,-0.076,0.876,-0.251,0.412,0.681,-0.596,0.426,0.918,0.171,0.359,0.946,0.145,0.291,0.771,0.249,0.586,0.609,0.508,0.609,0.316,0.9,0.299,-0.071,0.987,-0.141,scissors
0.271502,-0.07,0.955,0.29,-0.055,0.997,0.055,0.265,-0.963,0.058,0.667,-0.686,0.29,0.523,-0.85,0.065,0.876,-0.254,0.41,0.662,-0.53,0.53,0.912,0.187,0.366,0.954,0.0,0.298,0.776,0.247,0.581,0.675,0.3,0.675,0.314,0.902,0.296,0.062,0.998,-0.0,scissors
0.293801,-0.086,0.952,0.293,-0.0,0.995,0.095,0.265,-0.963,0.058,0.675,-0.683,0.28,0.52,-0.844,0.13,0.881,-0.249,0.401,0.694,-0.442,0.568,0.908,0.201,0.368,0.983,0.0,0.184,0.765,0.268,0.586,0.701,0.319,0.638,0.303,0.906,0.297,0.117,0.993,0.0,scissors
0.315025,-0.086,0.947,0.309,-0.052,0.993,0.105,0.265,-0.963,0.058,0.678,-0.683,0.272,0.511,-0.852,0.114,0.885,-0.249,0.393,0.706,-0.529,0.471,0.91,0.201,0.363,0.981,0.109,0.163,0.765,0.271,0.585,0.717,0.359,0.598,0.295,0.909,0.295,0.11,0.994,-0.0,scissors
0.337699,-0.098,0.948,0.303,-0.147,0.978,0.147,0.265,-0.963,0.058,0.675,-0.686,0.27,0.551,-0.827,0.11,0.886,-0.251,0.391,0.734,-0.451,0.508,0.909,0.209,0.361,0.958,0.106,0.266,0.76,0.286,0.584,0.667,0.333,0.667,0.291,0.911,0.294,0.11,0.992,0.055,scissors
0.35939,-0.101,0.947,0.305,0.0,0.989,0.148,0.265,-0.963,0.058,0.682,-0.683,0.26,0.565,-0.816,0.125,0.891,-0.246,0.381,0.743,-0.371,0.557,0.901,0.233,0.366,0.953,0.112,0.28,0.753,0.301,0.585,0.66,0.36,0.66,0.281,0.914,0.294,0.055,0.992,0.11,scissors
0.380211,-0.113,0.946,0.304,0.0,0.986,0.164,0.265,-0.963,0.058,0.686,-0.683,0.253,0.503,-0.862,0.072,0.895,-0.245,0.373,0.735,-0.441,0.515,0.899,0.244,0.364,0.957,0.205,0.205,0.754,0.306,0.582,0.679,0.407,0.611,0.273,0.916,0.293,-0.0,1.0,0.0,scissors
0.404683,-0.109,0.944,0.31,-0.208,0.968,0.138,0.286,-0.957,0.045,0.682,-0.688,0.247,0.513,-0.854,-0.085,0.894,-0.252,0.37,0.716,-0.447,0.537,0.905,0.236,0.354,0.967,0.242,0.081,0.758,0.305,0.576,0.655,0.492,0.573,0.275,0.919,0.283,-0.071,0.995,-0.071,scissors
0.421093,-0.111,0.942,0.318,-0.208,0.968,0.138,0.286,-0.957,0.045,0.685,-0.688,0.238,0.513,-0.854,-0.085,0.897,-0.255,0.362,0.716,-0.537,0.447,0.907,0.235,0.349,0.972,0.224,0.075,0.764,0.302,0.57,0.629,0.55,0.55,0.271,0.922,0.278,-0.131,0.983,-0.131,scissors
0.442469,-0.115,0.94,0.32,-0.148,0.964,0.222,0.286,-0.957,0.045,0.686,-0.688,0.235,0.429,-0.857,-0.286,0.898,-0.256,0.358,0.662,-0.735,0.147,0.905,0.245,0.348,0.924,0.355,-0.142,0.754,0.32,0.573,0.614,0.69,0.383,0.264,0.923,0.279,-0.125,0.941,-0.314,scissors
0.46653,-0.123,0.94,0.318,-0.371,0.928,0.0,0.286,-0.957,0.045,0.683,-0.691,0.235,0.432,-0.864,-0.259,0.898,-0.256,0.358,0.634,-0.724,0.272,0.903,0.251,0.349,0.961,0.262,-0.087,0.75,0.326,0.575,0.539,0.647,0.539,0.261,0.924,0.28,-0.16,0.958,-0.239,scissors
0.488083,-0.124,0.938,0.324,-0.371,0.928,0.0,0.275,-0.961,0.014,0.688,-0.689,0.23,0.482,-0.843,-0.241,0.901,-0.252,0.352,0.577,-0.577,0.577,0.901,0.256,0.35,0.992,0.124,-0.0,0.748,0.331,0.576,0.492,0.615,0.615,0.256,0.926,0.278,-0.282,0.941,-0.188,scissors
0.510932,-0.128,0.936,0.329,-0.0,0.986,0.164,0.268,-0.963,0.015,0.691,-0.687,0.226,0.557,-0.743,-0.371,0.904,-0.251,0.347,0.485,-0.485,0.728,0.901,0.26,0.348,0.986,0.164,-0.0,0.746,0.333,0.576,0.154,0.772,0.617,0.251,0.927,0.28,-0.482,0.843,-0.241,scissors
0.535063,-0.125,0.938,0.322,0.0,0.949,0.316,0.268,-0.963,0.015,0.688,-0.69,0.227,0.371,-0.557,-0.743,0.902,-0.256,0.349,0.408,-0.816,0.408,0.905,0.25,0.345,0.894,0.447,-0.0,0.756,0.321,0.57,-0.169,0.845,0.507,0.261,0.925,0.275,-0.651,0.651,-0.391,scissors
0.556238,-0.116,0.943,0.313,-0.667,0.667,0.333,0.268,-0.963,0.015,0.683,-0.692,0.233,0.183,-0.365,-0.913,0.899,-0.257,0.354,-0.408,-0.816,0.408,0.905,0.249,0.344,0.728,0.485,-0.485,0.756,0.319,0.571,-0.183,0.913,0.365,0.265,0.924,0.275,-0.707,0.566,-0.424,scissors
0.578216,-0.119,0.943,0.312,-0.667,0.667,0.333,0.273,-0.956,0.108,0.683,-0.691,0.234,-0.236,-0.236,-0.943,0.898,-0.256,0.358,-0.949,0.0,0.316,0.903,0.253,0.347,0.408,0.408,-0.816,0.751,0.324,0.575,-0.485,0.728,0.485,0.263,0.924,0.278,-0.811,0.324,-0.487,scissors
0.601981,-0.119,0.94,0.319,0.0,-0.316,-0.949,0.302,-0.953,0.002,0.685,-0.689,0.236,-0.447,0.0,-0.894,0.898,-0.255,0.359,-0.962,0.192,0.192,0.905,0.246,0.348,-0.447,-0.0,-0.894,0.754,0.316,0.575,-0.873,0.436,0.218,0.267,0.923,0.277,-0.894,0.0,-0.447,scissors
0.622134,-0.114,0.942,0.315,0.0,-0.316,-0.949,0.302,-0.953,0.002,0.68,-0.691,0.245,-0.588,0.196,-0.784,0.894,-0.255,0.369,-0.986,0.164,0.0,0.905,0.241,0.351,-0.667,-0.333,-0.667,0.757,0.313,0.574,-0.981,0.196,-0.0,0.275,0.92,0.28,-0.885,-0.147,-0.442,scissors
0.64366,-0.106,0.95,0.292,0.267,-0.802,-0.535,0.302,-0.953,0.002,0.673,-0.695,0.254,-0.667,0.333,-0.667,0.887,-0.264,0.378,-0.992,0.124,-0.0,0.912,0.221,0.346,-0.688,-0.229,-0.688,0.769,0.289,0.569,-0.937,0.156,-0.312,0.294,0.915,0.277,-0.717,-0.359,-0.598,scissors
0.669496,-0.083,0.957,0.277,-0.408,-0.408,-0.816,0.302,-0.953,0.002,0.655,-0.703,0.277,-0.845,0.169,-0.507,0.875,-0.274,0.399,-0.992,0.0,0.124,0.92,0.187,0.343,-0.485,-0.485,-0.728,0.781,0.26,0.568,-0.928,0.0,-0.371,0.318,0.907,0.276,-0.745,-0.298,-0.596,scissors
0.689237,-0.066,0.961,0.27,0.218,0.436,-0.873,0.302,-0.953,0.002,0.648,-0.702,0.296,-0.873,-0.218,-0.436,0.865,-0.274,0.42,-0.885,-0.147,0.442,0.924,0.159,0.348,0.0,-0.707,-0.707,0.79,0.225,0.57,-1.0,-0.0,-0.0,0.34,0.897,0.283,-0.6,0.0,-0.8,scissors
0.710956,-0.045,0.964,0.263,0.218,0.436,-0.873,0.28,-0.959,0.046,0.641,-0.697,0.321,-0.365,-0.913,-0.183,0.855,-0.269,0.444,-0.371,-0.557,0.743,0.925,0.127,0.358,0.811,-0.487,-0.324,0.794,0.199,0.575,0.408,0.408,0.816,0.358,0.886,0.294,-0.154,0.772,-0.617,scissors
0.73408,-0.007,0.965,0.263,-0.152,0.986,-0.076,0.28,-0.959,0.046,0.638,-0.69,0.342,0.287,-0.958,-0.0,0.847,-0.262,0.462,0.508,-0.609,0.609,0.923,0.103,0.37,1.0,0.0,0.0,0.798,0.167,0.58,0.64,0.426,0.64,0.372,0.876,0.307,-0.0,0.986,-0.164,scissors
0.754752,0.004,0.965,0.264,-0.226,0.948,0.226,0.28,-0.959,0.046,0.641,-0.681,0.355,0.49,-0.872,0.0,0.845,-0.253,0.472,0.749,-0.499,0.437,0.92,0.097,0.381,0.981,0.163,0.109,0.791,0.158,0.591,0.684,0.456,0.57,0.376,0.87,0.319,0.05,0.998,-0.05,scissors
0.776847,0.004,0.964,0.266,-0.202,0.942,0.269,0.28,-0.959,0.046,0.644,-0.676,0.359,0.536,-0.843,0.038,0.846,-0.246,0.474,0.801,-0.464,0.379,0.916,0.1,0.388,0.969,0.194,0.155,0.789,0.157,0.594,0.707,0.393,0.589,0.374,0.868,0.326,0.071,0.997,0.036,scissors
0.799852,-0.003,0.965,0.264,-0.164,0.938,0.305,0.299,-0.954,0.025,0.643,-0.677,0.358,0.574,-0.816,0.06,0.846,-0.248,0.473,0.846,-0.407,0.345,0.917,0.099,0.385,0.949,0.237,0.208,0.789,0.161,0.593,0.694,0.392,0.604,0.375,0.869,0.324,0.085,0.993,0.085,scissors
0.820963,-0.011,0.965,0.262,-0.164,0.938,0.305,0.291,-0.956,0.026,0.634,-0.685,0.359,0.587,-0.807,0.073,0.84,-0.258,0.478,0.848,-0.411,0.334,0.923,0.086,0.376,0.94,0.241,0.241,0.799,0.145,0.583,0.709,0.391,0.587,0.386,0.867,0.314,0.094,0.991,0.094,scissors
0.843549,-0.011,0.969,0.246,-0.179,0.937,0.299,0.291,-0.956,0.026,0.619,-0.695,0.366,0.584,-0.805,0.101,0.831,-0.275,0.483,0.862,-0.379,0.336,0.931,0.065,0.359,0.938,0.235,0.254,0.811,0.13,0.57,0.72,0.38,0.58,0.4,0.866,0.301,0.135,0.982,0.135,scissors
0.865737,-0.015,0.974,0.228,-0.184,0.936,0.301,0.277,-0.957,0.089,0.613,-0.701,0.363,0.621,-0.772,0.134,0.829,-0.283,0.483,0.875,-0.343,0.343,0.934,0.065,0.351,0.934,0.209,0.29,0.815,0.136,0.564,0.719,0.343,0.605,0.402,0.868,0.292,0.144,0.974,0.176,scissors
0.887255,-0.022,0.97,0.24,-0.184,0.936,0.301,0.253,-0.966,0.06,0.613,-0.704,0.36,0.625,-0.767,0.142,0.829,-0.286,0.48,0.882,-0.333,0.333,0.935,0.07,0.346,0.927,0.235,0.291,0.818,0.14,0.558,0.722,0.354,0.595,0.401,0.869,0.29,0.151,0.972,0.178,scissors
0.907343,-0.03,0.972,0.232,-0.125,0.932,0.341,0.253,-0.966,0.06,0.61,-0.705,0.363,0.64,-0.755,0.141,0.827,-0.287,0.483,0.891,-0.314,0.328,0.936,0.068,0.346,0.922,0.24,0.303,0.819,0.143,0.556,0.716,0.352,0.603,0.403,0.868,0.289,0.149,0.969,0.199,scissors
0.932339,-0.019,0.973,0.228,-0.104,0.929,0.355,0.253,-0.966,0.053,0.606,-0.709,0.36,0.648,-0.748,0.145,0.826,-0.295,0.48,0.891,-0.316,0.327,0.94,0.06,0.335,0.918,0.251,0.306,0.827,0.13,0.546,0.715,0.352,0.605,0.408,0.869,0.28,0.152,0.967,0.206,scissors
0.953501,-0.023,0.973,0.229,-0.104,0.929,0.355,0.228,-0.968,0.101,0.596,-0.72,0.356,0.642,-0.752,0.15,0.823,-0.306,0.479,0.886,-0.322,0.332,0.944,0.065,0.322,0.923,0.236,0.304,0.833,0.134,0.537,0.73,0.325,0.601,0.412,0.871,0.268,0.177,0.962,0.206,scissors
0.976963,-0.054,0.975,0.217,-0.104,0.929,0.355,0.228,-0.968,0.101,0.593,-0.726,0.348,0.639,-0.749,0.174,0.824,-0.315,0.47,0.885,-0.31,0.347,0.948,0.068,0.311,0.922,0.222,0.319,0.836,0.147,0.528,0.735,0.314,0.601,0.406,0.877,0.258,0.186,0.957,0.222,scissors
0.998273,-0.057,0.972,0.228,-0.095,0.944,0.317,0.237,-0.968,0.079,0.601,-0.728,0.33,0.643,-0.743,0.184,0.833,-0.317,0.454,0.887,-0.301,0.351,0.948,0.087,0.306,0.921,0.212,0.326,0.837,0.163,0.522,0.736,0.306,0.604,0.394,0.884,0.251,0.194,0.954,0.226,scissors
1.01981,-0.075,0.969,0.236,-0.096,0.941,0.326,0.237,-0.968,0.079,0.604,-0.731,0.317,0.641,-0.749,0.17,0.838,-0.321,0.442,0.888,-0.317,0.332,0.95,0.099,0.297,0.923,0.227,0.31,0.84,0.175,0.513,0.742,0.321,0.589,0.385,0.891,0.241,0.187,0.96,0.21,scissors
1.040854,-0.081,0.97,0.228,-0.132,0.933,0.334,0.237,-0.968,0.079,0.597,-0.738,0.315,0.646,-0.747,0.158,0.834,-0.33,0.441,0.892,-0.312,0.326,0.953,0.098,0.286,0.922,0.232,0.31,0.845,0.181,0.503,0.739,0.327,0.59,0.386,0.893,0.234,0.184,0.96,0.212,scissors
1.06515,-0.092,0.974,0.205,-0.125,0.929,0.349,0.237,-0.968,0.079,0.59,-0.746,0.309,0.646,-0.747,0.155,0.831,-0.341,0.439,0.896,-0.31,0.317,0.957,0.103,0.272,0.92,0.238,0.311,0.851,0.187,0.491,0.736,0.332,0.59,0.391,0.893,0.221,0.184,0.96,0.21,scissors
1.086784,-0.104,0.976,0.192,-0.125,0.929,0.349,0.181,-0.98,0.082,0.58,-0.754,0.308,0.646,-0.748,0.153,0.827,-0.353,0.438,0.893,-0.321,0.315,0.96,0.105,0.26,0.922,0.245,0.301,0.858,0.187,0.478,0.741,0.335,0.582,0.397,0.893,0.211,0.181,0.963,0.2,scissors
1.106169,-0.108,0.978,0.177,-0.125,0.929,0.349,0.181,-0.98,0.082,0.568,-0.762,0.31,0.638,-0.756,0.149,0.821,-0.361,0.442,0.892,-0.328,0.31,0.963,0.1,0.249,0.926,0.242,0.29,0.864,0.185,0.467,0.743,0.338,0.577,0.407,0.891,0.202,0.182,0.964,0.194,scissors
1.128862,-0.111,0.982,0.153,-0.164,0.928,0.334,0.181,-0.98,0.082,0.55,-0.772,0.317,0.631,-0.762,0.143,0.809,-0.378,0.45,0.891,-0.341,0.299,0.969,0.08,0.235,0.928,0.245,0.28,0.877,0.168,0.449,0.751,0.337,0.568,0.427,0.885,0.186,0.182,0.966,0.182,scissors
1.151756,-0.108,0.987,0.119,-0.164,0.928,0.334,0.137,-0.977,0.161,0.524,-0.786,0.329,0.63,-0.766,0.13,0.792,-0.403,0.46,0.891,-0.354,0.285,0.975,0.051,0.215,0.924,0.247,0.291,0.889,0.153,0.431,0.755,0.346,0.556,0.451,0.877,0.165,0.179,0.968,0.174,scissors
1.17486,-0.114,0.988,0.101,-0.164,0.928,0.334,0.137,-0.977,0.161,0.505,-0.795,0.336,0.645,-0.754,0.126,0.781,-0.417,0.466,0.899,-0.333,0.283,0.979,0.039,0.202,0.919,0.262,0.294,0.895,0.154,0.419,0.741,0.357,0.568,0.458,0.875,0.156,0.166,0.968,0.187,scissors
1.196781,-0.131,0.988,0.082,-0.164,0.928,0.334,0.076,-0.984,0.162,0.5,-0.799,0.334,0.664,-0.737,0.126,0.779,-0.423,0.463,0.912,-0.306,0.274,0.98,0.04,0.195,0.909,0.279,0.31,0.898,0.159,0.411,0.725,0.365,0.584,0.46,0.875,0.151,0.145,0.968,0.207,scissors
1.218641,-0.14,0.987,0.083,-0.164,0.928,0.334,0.076,-0.984,0.162,0.497,-0.803,0.329,0.681,-0.722,0.124,0.782,-0.428,0.453,0.922,-0.28,0.269,0.981,0.057,0.187,0.899,0.289,0.33,0.897,0.178,0.404,0.705,0.373,0.603,0.457,0.877,0.147,0.133,0.964,0.23,scissors
1.240682,-0.17,0.982,0.08,-0.118,0.902,0.414,0.076,-0.984,0.162,0.483,-0.818,0.311,0.69,-0.71,0.138,0.782,-0.451,0.431,0.923,-0.265,0.28,0.986,0.064,0.156,0.893,0.286,0.346,0.907,0.183,0.38,0.7,0.365,0.614,0.455,0.882,0.124,0.141,0.96,0.242,scissors
1.262133,-0.192,0.977,0.088,-0.094,0.913,0.397,0.076,-0.984,0.162,0.468,-0.837,0.282,0.69,-0.7,0.181,0.781,-0.475,0.406,0.914,-0.246,0.322,0.992,0.062,0.111,0.893,0.247,0.375,0.915,0.195,0.354,0.702,0.319,0.637,0.438,0.894,0.093,0.174,0.945,0.278,scissors
1.28646,-0.227,0.959,0.171,0.014,0.941,0.337,0.076,-0.984,0.162,0.501,-0.833,0.234,0.691,-0.686,0.23,0.808,-0.46,0.368,0.902,-0.22,0.372,0.985,0.126,0.118,0.891,0.201,0.407,0.898,0.25,0.361,0.7,0.27,0.661,0.385,0.918,0.09,0.203,0.926,0.318,scissors
1.307911,-0.237,0.943,0.234,0.005,0.938,0.347,0.076,-0.984,0.162,0.557,-0.807,0.196,0.693,-0.679,0.241,0.845,-0.42,0.33,0.901,-0.207,0.381,0.965,0.207,0.16,0.889,0.199,0.412,0.862,0.32,0.394,0.69,0.271,0.671,0.318,0.942,0.112,0.195,0.924,0.329,scissors
1.328712,-0.242,0.933,0.268,0.005,0.938,0.347,-0.036,-0.982,0.184,0.618,-0.77,0.161,0.708,-0.67,0.223,0.884,-0.362,0.295,0.914,-0.19,0.36,0.933,0.293,0.208,0.879,0.231,0.418,0.804,0.402,0.439,0.67,0.299,0.68,0.248,0.957,0.153,0.164,0.929,0.332,scissors
1.351617,-0.248,0.913,0.325,-0.025,0.895,0.445,-0.036,-0.982,0.184,0.673,-0.729,0.127,0.735,-0.653,0.18,0.917,-0.301,0.26,0.933,-0.175,0.314,0.893,0.375,0.248,0.865,0.28,0.417,0.748,0.465,0.474,0.648,0.347,0.678,0.185,0.964,0.193,0.108,0.938,0.328,scissors
1.37358,-0.254,0.913,0.318,-0.073,0.867,0.492,-0.098,-0.971,0.217,0.678,-0.726,0.116,0.753,-0.645,0.13,0.919,-0.299,0.259,0.948,-0.182,0.261,0.886,0.393,0.247,0.854,0.329,0.402,0.739,0.474,0.478,0.633,0.392,0.667,0.189,0.963,0.192,0.068,0.952,0.299,scissors
1.39523,-0.252,0.926,0.28,-0.073,0.867,0.492,-0.104,-0.976,0.193,0.627,-0.766,0.141,0.754,-0.649,0.105,0.889,-0.355,0.289,0.95,-0.199,0.242,0.925,0.319,0.205,0.853,0.347,0.39,0.799,0.406,0.443,0.637,0.405,0.656,0.256,0.955,0.147,0.061,0.959,0.277,scissors
1.419715,-0.226,0.952,0.208,-0.106,0.913,0.394,-0.105,-0.979,0.178,0.543,-0.823,0.167,0.727,-0.677,0.114,0.834,-0.449,0.32,0.935,-0.24,0.259,0.977,0.181,0.114,0.871,0.321,0.371,0.882,0.288,0.374,0.673,0.38,0.635,0.337,0.939,0.074,0.105,0.961,0.254,scissors
1.440436,-0.215,0.955,0.204,-0.106,0.913,0.394,-0.125,-0.975,0.181,0.504,-0.843,0.188,0.691,-0.703,0.171,0.809,-0.483,0.336,0.912,-0.259,0.318,0.991,0.102,0.086,0.897,0.24,0.371,0.914,0.215,0.344,0.701,0.319,0.638,0.37,0.928,0.051,0.167,0.95,0.265,scissors
1.462128,-0.191,0.958,0.215,-0.064,0.943,0.327,-0.125,-0.975,0.181,0.544,-0.817,0.191,0.67,-0.718,0.19,0.833,-0.444,0.329,0.904,-0.26,0.34,0.98,0.144,0.138,0.905,0.222,0.362,0.887,0.257,0.385,0.711,0.308,0.632,0.333,0.938,0.09,0.182,0.945,0.27,scissors
1.485911,-0.192,0.939,0.285,-0.064,0.943,0.327,-0.221,-0.956,0.192,0.628,-0.761,0.164,0.682,-0.707,0.186,0.891,-0.35,0.29,0.911,-0.237,0.337,0.934,0.282,0.22,0.9,0.234,0.368,0.802,0.385,0.457,0.696,0.323,0.641,0.239,0.956,0.168,0.164,0.945,0.283,scissors
1.508296,-0.235,0.903,0.359,-0.064,0.943,0.327,-0.201,-0.958,0.203,0.694,-0.709,0.125,0.706,-0.69,0.162,0.928,-0.279,0.249,0.926,-0.221,0.305,0.882,0.385,0.271,0.886,0.275,0.373,0.728,0.472,0.497,0.673,0.358,0.647,0.161,0.963,0.217,0.125,0.95,0.287,scissors
1.531507,-0.245,0.897,0.368,-0.081,0.882,0.464,-0.201,-0.958,0.203,0.701,-0.705,0.108,0.729,-0.672,0.125,0.934,-0.274,0.23,0.939,-0.212,0.269,0.879,0.394,0.269,0.868,0.316,0.383,0.723,0.476,0.5,0.655,0.387,0.649,0.154,0.966,0.209,0.091,0.954,0.284,scissors
1.552839,-0.201,0.919,0.339,-0.088,0.867,0.49,-0.201,-0.958,0.203,0.674,-0.729,0.124,0.747,-0.657,0.102,0.918,-0.313,0.243,0.951,-0.197,0.239,0.912,0.33,0.242,0.854,0.347,0.388,0.77,0.421,0.479,0.632,0.412,0.656,0.194,0.964,0.18,0.059,0.957,0.284,scissors
1.57383,-0.202,0.925,0.321,-0.09,0.861,0.5,-0.201,-0.958,0.203,0.658,-0.74,0.138,0.762,-0.642,0.09,0.912,-0.327,0.25,0.959,-0.169,0.229,0.922,0.309,0.233,0.837,0.366,0.407,0.784,0.403,0.472,0.607,0.423,0.673,0.209,0.962,0.174,0.036,0.953,0.302,scissors
1.597863,-0.204,0.923,0.326,-0.053,0.855,0.516,-0.201,-0.958,0.203,0.666,-0.734,0.131,0.775,-0.625,0.09,0.918,-0.317,0.236,0.963,-0.139,0.23,0.915,0.328,0.234,0.828,0.372,0.42,0.776,0.418,0.472,0.595,0.422,0.684,0.2,0.963,0.18,0.024,0.947,0.32,scissors
1.619846,-0.203,0.911,0.358,-0.054,0.872,0.487,-0.31,-0.937,0.162,0.674,-0.73,0.114,0.771,-0.63,0.098,0.926,-0.312,0.214,0.96,-0.142,0.24,0.909,0.35,0.227,0.832,0.365,0.419,0.762,0.437,0.478,0.607,0.414,0.679,0.188,0.965,0.182,0.036,0.947,0.32,scissors
1.64179,-0.198,0.912,0.36,-0.054,0.872,0.487,-0.316,-0.932,0.177,0.667,-0.738,0.101,0.746,-0.653,0.129,0.924,-0.324,0.202,0.943,-0.18,0.279,0.917,0.347,0.197,0.857,0.32,0.404,0.776,0.425,0.467,0.648,0.381,0.66,0.194,0.967,0.164,0.091,0.948,0.304,scissors
1.663186,-0.193,0.914,0.356,-0.055,0.909,0.412,-0.316,-0.932,0.177,0.65,-0.754,0.101,0.701,-0.689,0.183,0.915,-0.345,0.211,0.911,-0.238,0.336,0.942,0.297,0.159,0.884,0.234,0.404,0.798,0.402,0.449,0.697,0.318,0.643,0.207,0.967,0.148,0.174,0.943,0.282,scissors
1.688245,-0.203,0.926,0.32,-0.051,0.966,0.253,-0.337,-0.925,0.174,0.639,-0.76,0.119,0.644,-0.726,0.242,0.903,-0.356,0.24,0.874,-0.283,0.396,0.935,0.301,0.186,0.914,0.155,0.374,0.805,0.387,0.45,0.739,0.246,0.627,0.227,0.962,0.15,0.245,0.932,0.268,scissors
1.709678,-0.204,0.931,0.304,-0.051,0.966,0.253,-0.38,-0.916,0.13,0.643,-0.753,0.143,0.616,-0.742,0.265,0.898,-0.346,0.27,0.854,-0.312,0.416,0.937,0.277,0.214,0.928,0.125,0.351,0.807,0.367,0.462,0.756,0.219,0.617,0.243,0.956,0.166,0.273,0.927,0.256,scissors
1.730599,-0.178,0.938,0.298,-0.051,0.966,0.253,-0.399,-0.907,0.134,0.641,-0.746,0.178,0.618,-0.746,0.25,0.891,-0.34,0.301,0.857,-0.323,0.401,0.943,0.237,0.233,0.928,0.144,0.344,0.821,0.328,0.467,0.754,0.236,0.613,0.264,0.948,0.177,0.265,0.933,0.243,scissors
1.757129,-0.131,0.947,0.293,-0.083,0.948,0.307,-0.399,-0.907,0.134,0.642,-0.74,0.201,0.643,-0.733,0.223,0.888,-0.329,0.323,0.879,-0.298,0.373,0.943,0.226,0.246,0.919,0.185,0.349,0.821,0.316,0.476,0.737,0.272,0.619,0.27,0.943,0.192,0.232,0.938,0.258,scissors
1.779378,-0.139,0.941,0.308,-0.083,0.948,0.307,-0.399,-0.907,0.134,0.65,-0.734,0.194,0.661,-0.723,0.201,0.893,-0.319,0.317,0.893,-0.274,0.356,0.937,0.245,0.25,0.91,0.213,0.356,0.812,0.334,0.479,0.721,0.302,0.624,0.257,0.946,0.196,0.199,0.943,0.265,scissors
1.801672,-0.161,0.938,0.306,-0.073,0.927,0.369,-0.399,-0.907,0.134,0.655,-0.735,0.173,0.675,-0.715,0.181,0.897,-0.324,0.3,0.907,-0.263,0.329,0.933,0.267,0.241,0.906,0.243,0.347,0.81,0.352,0.469,0.714,0.327,0.619,0.244,0.952,0.184,0.173,0.951,0.257,scissors
1.826405,-0.201,0.933,0.299,-0.123,0.915,0.384,-0.399,-0.907,0.134,0.642,-0.751,0.153,0.678,-0.718,0.157,0.894,-0.344,0.286,0.91,-0.28,0.305,0.938,0.277,0.209,0.904,0.261,0.338,0.813,0.367,0.451,0.715,0.343,0.609,0.243,0.957,0.16,0.169,0.956,0.241,scissors
1.855712,-0.207,0.94,0.27,-0.123,0.915,0.384,-0.44,-0.895,0.067,0.612,-0.775,0.157,0.666,-0.729,0.16,0.876,-0.376,0.3,0.904,-0.295,0.309,0.95,0.258,0.175,0.91,0.249,0.331,0.836,0.351,0.421,0.727,0.33,0.602,0.274,0.952,0.137,0.183,0.956,0.231,scissors
1.867771,-0.22,0.949,0.228,-0.122,0.935,0.332,-0.44,-0.895,0.067,0.568,-0.804,0.176,0.647,-0.743,0.168,0.849,-0.418,0.323,0.895,-0.313,0.318,0.969,0.206,0.139,0.919,0.232,0.318,0.871,0.305,0.385,0.74,0.318,0.593,0.324,0.941,0.1,0.199,0.956,0.218,scissors
1.892845,-0.215,0.965,0.149,-0.136,0.942,0.308,-0.451,-0.892,0.035,0.516,-0.834,0.195,0.625,-0.759,0.181,0.814,-0.467,0.344,0.881,-0.334,0.334,0.986,0.139,0.093,0.931,0.205,0.301,0.904,0.253,0.343,0.759,0.295,0.58,0.371,0.926,0.065,0.223,0.953,0.205,scissors
1.913366,-0.212,0.967,0.138,-0.125,0.952,0.28,-0.451,-0.892,0.035,0.505,-0.837,0.21,0.608,-0.767,0.204,0.81,-0.466,0.358,0.869,-0.343,0.357,0.987,0.126,0.096,0.938,0.179,0.297,0.921,0.216,0.324,0.773,0.266,0.576,0.377,0.923,0.073,0.251,0.946,0.207,scissors
1.935533,-0.201,0.969,0.143,-0.125,0.952,0.28,-0.492,-0.87,0.039,0.544,-0.809,0.222,0.606,-0.769,0.206,0.831,-0.421,0.363,0.869,-0.335,0.365,0.974,0.166,0.152,0.937,0.177,0.3,0.877,0.285,0.388,0.769,0.274,0.577,0.351,0.929,0.117,0.248,0.944,0.218,scissors
1.958108,-0.176,0.961,0.215,-0.125,0.952,0.28,-0.477,-0.879,-0.021,0.596,-0.771,0.224,0.619,-0.761,0.193,0.859,-0.364,0.359,0.88,-0.325,0.347,0.952,0.222,0.212,0.931,0.201,0.303,0.839,0.326,0.436,0.755,0.293,0.587,0.317,0.933,0.169,0.224,0.951,0.215,scissors
1.979232,-0.158,0.96,0.232,-0.127,0.934,0.334,-0.477,-0.879,-0.021,0.622,-0.749,0.23,0.637,-0.752,0.168,0.873,-0.329,0.36,0.892,-0.32,0.32,0.938,0.249,0.241,0.923,0.234,0.305,0.809,0.355,0.468,0.74,0.325,0.589,0.3,0.931,0.207,0.195,0.957,0.217,scissors
2.001057,-0.15,0.961,0.234,-0.138,0.92,0.366,-0.477,-0.879,-0.021,0.617,-0.752,0.232,0.655,-0.738,0.166,0.874,-0.334,0.353,0.901,-0.297,0.316,0.941,0.244,0.233,0.915,0.244,0.322,0.811,0.349,0.47,0.733,0.325,0.598,0.304,0.93,0.205,0.189,0.955,0.231,scissors
2.024508,-0.16,0.963,0.217,-0.068,0.941,0.332,-0.503,-0.862,-0.063,0.586,-0.776,0.232,0.659,-0.726,0.197,0.86,-0.371,0.349,0.894,-0.284,0.346,0.958,0.209,0.199,0.914,0.209,0.348,0.835,0.317,0.45,0.734,0.288,0.614,0.332,0.926,0.178,0.215,0.943,0.254,scissors
2.045867,-0.178,0.966,0.186,-0.068,0.941,0.332,-0.507,-0.856,-0.102,0.554,-0.797,0.24,0.652,-0.72,0.238,0.84,-0.406,0.36,0.883,-0.272,0.383,0.972,0.161,0.171,0.914,0.173,0.366,0.87,0.264,0.416,0.734,0.248,0.632,0.366,0.92,0.143,0.241,0.932,0.27,scissors
2.065588,-0.181,0.971,0.159,-0.068,0.941,0.332,-0.507,-0.856,-0.102,0.538,-0.804,0.254,0.649,-0.721,0.245,0.823,-0.422,0.379,0.878,-0.278,0.389,0.977,0.126,0.173,0.917,0.166,0.361,0.887,0.228,0.402,0.732,0.246,0.636,0.39,0.912,0.131,0.243,0.931,0.272,scissors
2.091734,-0.156,0.978,0.139,-0.063,0.94,0.335,-0.507,-0.856,-0.102,0.539,-0.792,0.288,0.664,-0.71,0.234,0.817,-0.402,0.412,0.89,-0.258,0.375,0.974,0.1,0.201,0.907,0.191,0.377,0.879,0.215,0.425,0.713,0.268,0.648,0.395,0.905,0.16,0.218,0.933,0.288,scissors
2.1122,-0.071,0.981,0.178,-0.013,0.927,0.374,-0.507,-0.856,-0.102,0.563,-0.768,0.306,0.694,-0.68,0.236,0.827,-0.366,0.426,0.906,-0.209,0.369,0.967,0.104,0.233,0.881,0.211,0.423,0.863,0.215,0.458,0.68,0.276,0.68,0.385,0.901,0.198,0.189,0.924,0.333,scissors
2.132665,-0.054,0.975,0.216,0.021,0.915,0.402,-0.507,-0.856,-0.102,0.599,-0.746,0.291,0.713,-0.664,0.227,0.848,-0.333,0.412,0.915,-0.187,0.357,0.955,0.15,0.255,0.873,0.232,0.43,0.847,0.236,0.477,0.667,0.292,0.685,0.358,0.907,0.22,0.172,0.925,0.339,scissors
2.154145,-0.074,0.967,0.243,0.021,0.915,0.402,-0.506,-0.845,-0.174,0.628,-0.736,0.252,0.71,-0.675,0.199,0.869,-0.316,0.38,0.919,-0.208,0.336,0.945,0.208,0.252,0.88,0.248,0.405,0.832,0.28,0.478,0.683,0.311,0.661,0.322,0.921,0.22,0.162,0.935,0.315,scissors
2.177166,-0.164,0.947,0.275,0.021,0.915,0.402,-0.502,-0.844,-0.188,0.633,-0.746,0.206,0.699,-0.695,0.168,0.88,-0.331,0.341,0.92,-0.242,0.308,0.943,0.244,0.227,0.891,0.266,0.367,0.825,0.329,0.459,0.699,0.334,0.633,0.287,0.939,0.191,0.157,0.948,0.275,scissors
2.198709,-0.203,0.94,0.274,-0.113,0.913,0.391,-0.502,-0.844,-0.188,0.625,-0.759,0.182,0.697,-0.701,0.151,0.882,-0.348,0.317,0.92,-0.257,0.296,0.943,0.264,0.204,0.892,0.277,0.356,0.822,0.36,0.442,0.698,0.345,0.627,0.268,0.949,0.167,0.149,0.954,0.259,scissors
2.219815,-0.222,0.936,0.273,-0.11,0.91,0.4,-0.502,-0.844,-0.188,0.624,-0.763,0.167,0.702,-0.697,0.148,0.885,-0.354,0.301,0.924,-0.248,0.293,0.938,0.287,0.197,0.889,0.281,0.362,0.812,0.388,0.436,0.691,0.35,0.633,0.252,0.955,0.16,0.139,0.953,0.269,scissors
2.243266,-0.236,0.932,0.276,-0.11,0.91,0.4,-0.492,-0.829,-0.264,0.636,-0.759,0.143,0.709,-0.69,0.144,0.894,-0.347,0.282,0.929,-0.237,0.283,0.928,0.316,0.198,0.885,0.293,0.362,0.804,0.405,0.435,0.681,0.364,0.635,0.231,0.96,0.157,0.124,0.955,0.271,scissors
2.264723,-0.23,0.931,0.285,-0.11,0.91,0.4,-0.485,-0.822,-0.299,0.644,-0.756,0.118,0.708,-0.694,0.134,0.903,-0.344,0.257,0.93,-0.243,0.277,0.92,0.342,0.192,0.885,0.303,0.355,0.787,0.435,0.437,0.684,0.373,0.627,0.206,0.967,0.152,0.123,0.958,0.261,scissors
2.285044,-0.243,0.92,0.306,-0.11,0.91,0.4,-0.485,-0.822,-0.299,0.63,-0.771,0.094,0.697,-0.702,0.149,0.903,-0.358,0.239,0.921,-0.249,0.299,0.918,0.363,0.159,0.89,0.284,0.357,0.772,0.472,0.426,0.702,0.351,0.619,0.199,0.971,0.135,0.153,0.953,0.262,scissors
2.308207,-0.293,0.917,0.27,-0.053,0.948,0.313,-0.485,-0.822,-0.299,0.597,-0.795,0.102,0.669,-0.716,0.197,0.88,-0.4,0.256,0.896,-0.281,0.344,0.945,0.302,0.128,0.91,0.213,0.356,0.83,0.395,0.393,0.731,0.284,0.62,0.253,0.962,0.099,0.207,0.946,0.248,scissors
2.331042,-0.233,0.955,0.182,-0.11,0.953,0.283,-0.493,-0.806,-0.327,0.551,-0.816,0.177,0.646,-0.739,0.191,0.837,-0.443,0.321,0.889,-0.31,0.336,0.975,0.176,0.139,0.919,0.208,0.335,0.881,0.289,0.375,0.741,0.282,0.61,0.337,0.939,0.074,0.205,0.953,0.225,scissors
2.351882,-0.233,0.955,0.182,-0.12,0.927,0.355,-0.479,-0.808,-0.343,0.528,-0.82,0.222,0.672,-0.721,0.167,0.819,-0.448,0.359,0.909,-0.28,0.309,0.979,0.134,0.152,0.897,0.239,0.372,0.892,0.253,0.375,0.704,0.327,0.63,0.366,0.927,0.086,0.165,0.954,0.252,scissors
2.373859,-0.169,0.97,0.173,-0.12,0.927,0.355,-0.479,-0.808,-0.343,0.536,-0.812,0.23,0.705,-0.691,0.162,0.827,-0.435,0.357,0.925,-0.232,0.302,0.98,0.13,0.151,0.879,0.273,0.392,0.887,0.257,0.384,0.675,0.347,0.652,0.356,0.929,0.106,0.138,0.949,0.284,scissors
2.397616,-0.158,0.953,0.26,-0.12,0.927,0.355,-0.466,-0.789,-0.4,0.571,-0.799,0.191,0.717,-0.677,0.168,0.856,-0.411,0.312,0.928,-0.208,0.309,0.97,0.192,0.146,0.875,0.276,0.397,0.873,0.296,0.389,0.671,0.34,0.658,0.307,0.945,0.112,0.139,0.942,0.304,scissors
2.41942,-0.195,0.934,0.298,-0.033,0.91,0.414,-0.466,-0.789,-0.4,0.612,-0.781,0.127,0.71,-0.684,0.166,0.892,-0.385,0.238,0.927,-0.214,0.308,0.954,0.265,0.141,0.884,0.274,0.378,0.848,0.366,0.384,0.689,0.342,0.639,0.236,0.966,0.107,0.142,0.947,0.289,scissors
2.440411,-0.236,0.907,0.349,-0.076,0.914,0.399,-0.466,-0.789,-0.4,0.643,-0.764,0.052,0.702,-0.694,0.158,0.916,-0.368,0.156,0.927,-0.22,0.303,0.922,0.362,0.138,0.888,0.28,0.365,0.796,0.465,0.387,0.696,0.35,0.627,0.153,0.983,0.097,0.144,0.949,0.279,scissors
2.464432,-0.327,0.854,0.404,-0.076,0.914,0.399,-0.429,-0.792,-0.435,0.673,-0.74,-0.004,0.694,-0.703,0.156,0.937,-0.335,0.095,0.923,-0.239,0.302,0.879,0.455,0.143,0.894,0.273,0.356,0.736,0.549,0.396,0.701,0.348,0.622,0.087,0.991,0.106,0.154,0.951,0.267,scissors
2.485942,-0.323,0.859,0.397,-0.076,0.914,0.399,-0.406,-0.777,-0.481,0.675,-0.737,-0.009,0.689,-0.706,0.166,0.94,-0.328,0.098,0.915,-0.257,0.31,0.872,0.466,0.148,0.9,0.255,0.355,0.724,0.56,0.403,0.707,0.33,0.625,0.084,0.99,0.109,0.165,0.951,0.261,scissors
2.505814,-0.318,0.867,0.384,-0.076,0.914,0.399,-0.406,-0.777,-0.481,0.662,-0.749,0.017,0.682,-0.709,0.177,0.928,-0.345,0.14,0.907,-0.269,0.324,0.893,0.424,0.149,0.902,0.239,0.361,0.753,0.52,0.404,0.711,0.313,0.63,0.126,0.986,0.107,0.176,0.95,0.258,scissors
2.528243,-0.318,0.867,0.384,-0.094,0.93,0.354,-0.385,-0.769,-0.511,0.623,-0.779,0.07,0.673,-0.719,0.172,0.897,-0.391,0.207,0.904,-0.288,0.315,0.936,0.324,0.139,0.908,0.239,0.344,0.829,0.412,0.379,0.72,0.314,0.619,0.215,0.973,0.078,0.18,0.955,0.235,scissors
2.547822,-0.238,0.938,0.254,-0.094,0.93,0.354,-0.385,-0.769,-0.511,0.575,-0.81,0.118,0.67,-0.725,0.159,0.862,-0.437,0.256,0.906,-0.297,0.302,0.967,0.23,0.112,0.909,0.254,0.33,0.872,0.339,0.354,0.72,0.333,0.609,0.271,0.961,0.056,0.175,0.958,0.228,scissors
2.572714,-0.228,0.941,0.252,-0.116,0.919,0.377,-0.32,-0.772,-0.549,0.557,-0.822,0.12,0.67,-0.725,0.158,0.855,-0.449,0.26,0.909,-0.286,0.303,0.972,0.218,0.086,0.905,0.263,0.334,0.882,0.334,0.332,0.722,0.336,0.605,0.275,0.96,0.045,0.173,0.955,0.24,scissors
2.594454,-0.253,0.929,0.269,-0.102,0.926,0.365,-0.32,-0.772,-0.549,0.577,-0.811,0.092,0.664,-0.73,0.165,0.871,-0.43,0.236,0.905,-0.285,0.314,0.956,0.28,0.086,0.91,0.25,0.33,0.857,0.387,0.341,0.732,0.326,0.599,0.24,0.969,0.055,0.183,0.955,0.236,scissors
2.615303,-0.27,0.921,0.279,-0.102,0.926,0.365,-0.298,-0.792,-0.533,0.605,-0.793,0.066,0.644,-0.746,0.17,0.89,-0.405,0.209,0.896,-0.306,0.322,0.939,0.33,0.098,0.92,0.234,0.313,0.825,0.437,0.358,0.748,0.314,0.585,0.202,0.977,0.071,0.201,0.955,0.221,scissors
2.64028,-0.281,0.911,0.301,-0.147,0.943,0.298,-0.23,-0.74,-0.632,0.629,-0.775,0.062,0.625,-0.76,0.176,0.904,-0.375,0.205,0.884,-0.337,0.325,0.918,0.374,0.13,0.931,0.215,0.295,0.795,0.473,0.381,0.762,0.306,0.571,0.182,0.978,0.098,0.22,0.955,0.2,scissors
2.660245,-0.29,0.916,0.279,-0.147,0.943,0.298,-0.23,-0.74,-0.632,0.633,-0.77,0.08,0.615,-0.771,0.164,0.902,-0.369,0.223,0.88,-0.357,0.314,0.931,0.337,0.138,0.933,0.207,0.294,0.804,0.452,0.387,0.765,0.308,0.566,0.195,0.975,0.107,0.219,0.96,0.177,scissors
2.682621,-0.258,0.929,0.265,-0.172,0.938,0.301,-0.23,-0.74,-0.632,0.616,-0.779,0.115,0.62,-0.772,0.143,0.89,-0.381,0.251,0.887,-0.358,0.293,0.938,0.31,0.158,0.931,0.225,0.286,0.815,0.424,0.394,0.754,0.329,0.568,0.225,0.968,0.107,0.199,0.965,0.169,scissors
2.706614,-0.219,0.929,0.298,-0.154,0.918,0.366,-0.23,-0.74,-0.632,0.622,-0.772,0.13,0.644,-0.754,0.132,0.894,-0.365,0.259,0.901,-0.328,0.284,0.94,0.296,0.172,0.919,0.251,0.303,0.814,0.414,0.407,0.735,0.35,0.581,0.221,0.967,0.128,0.172,0.966,0.194,scissors
2.725147,-0.219,0.929,0.298,-0.116,0.914,0.388,-0.111,-0.714,-0.692,0.646,-0.753,0.123,0.661,-0.737,0.139,0.909,-0.336,0.248,0.911,-0.293,0.289,0.923,0.333,0.194,0.908,0.263,0.325,0.779,0.451,0.436,0.716,0.354,0.601,0.188,0.97,0.155,0.161,0.961,0.224,scissors
2.745179,-0.22,0.918,0.33,-0.116,0.914,0.388,-0.111,-0.714,-0.692,0.691,-0.717,0.091,0.685,-0.713,0.148,0.935,-0.284,0.213,0.92,-0.252,0.299,0.883,0.408,0.231,0.896,0.268,0.355,0.723,0.511,0.465,0.69,0.349,0.634,0.128,0.974,0.188,0.144,0.955,0.261,scissors
2.769925,-0.276,0.864,0.422,-0.046,0.902,0.428,-0.101,-0.751,-0.653,0.726,-0.686,0.044,0.711,-0.686,0.15,0.955,-0.247,0.167,0.928,-0.228,0.294,0.842,0.48,0.244,0.883,0.281,0.376,0.678,0.56,0.476,0.67,0.35,0.655,0.074,0.977,0.199,0.132,0.951,0.278,scissors
2.791137,-0.276,0.864,0.422,-0.074,0.899,0.432,-0.059,-0.754,-0.654,0.725,-0.689,0.025,0.714,-0.687,0.137,0.954,-0.256,0.154,0.929,-0.239,0.284,0.84,0.49,0.233,0.882,0.29,0.372,0.681,0.562,0.47,0.675,0.354,0.648,0.071,0.98,0.187,0.122,0.956,0.265,scissors
2.813914,-0.283,0.871,0.402,-0.074,0.899,0.432,-0.059,-0.754,-0.654,0.705,-0.709,0.026,0.709,-0.69,0.145,0.946,-0.283,0.158,0.924,-0.239,0.3,0.858,0.468,0.213,0.886,0.28,0.369,0.699,0.549,0.458,0.68,0.328,0.656,0.085,0.982,0.166,0.133,0.953,0.271,scissors
2.832545,-0.283,0.871,0.402,-0.074,0.899,0.432,-0.021,-0.72,-0.694,0.702,-0.712,0.017,0.699,-0.693,0.176,0.945,-0.288,0.153,0.916,-0.226,0.332,0.858,0.471,0.206,0.893,0.244,0.379,0.687,0.56,0.462,0.685,0.295,0.666,0.082,0.983,0.162,0.156,0.945,0.287,scissors
2.856621,-0.295,0.861,0.415,-0.074,0.899,0.432,-0.01,-0.719,-0.695,0.712,-0.702,0.015,0.681,-0.703,0.203,0.95,-0.277,0.146,0.902,-0.216,0.373,0.85,0.476,0.226,0.897,0.212,0.388,0.666,0.572,0.479,0.694,0.273,0.666,0.067,0.983,0.169,0.174,0.936,0.305,scissors
2.87829,-0.284,0.853,0.438,0.0,0.944,0.33,-0.01,-0.719,-0.695,0.732,-0.681,0.014,0.702,-0.67,0.242,0.959,-0.245,0.143,0.891,-0.19,0.412,0.836,0.486,0.256,0.886,0.182,0.427,0.647,0.576,0.501,0.673,0.248,0.697,0.041,0.979,0.198,0.195,0.917,0.349,scissors
2.899694,-0.271,0.837,0.475,0.098,0.936,0.339,-0.01,-0.719,-0.695,0.763,-0.647,-0.002,0.733,-0.621,0.278,0.971,-0.204,0.122,0.891,-0.112,0.441,0.805,0.52,0.286,0.85,0.172,0.497,0.615,0.594,0.519,0.616,0.23,0.754,-0.0,0.975,0.222,0.167,0.893,0.418,scissors
2.923033,-0.278,0.798,0.535,0.098,0.936,0.339,0.003,-0.753,-0.658,0.792,-0.609,-0.044,0.782,-0.552,0.288,0.984,-0.162,0.077,0.89,0.0,0.457,0.758,0.581,0.297,0.805,0.201,0.559,0.56,0.639,0.528,0.549,0.24,0.801,-0.062,0.969,0.237,0.117,0.856,0.504,scissors
2.943965,-0.293,0.781,0.551,0.098,0.936,0.339,0.005,-0.748,-0.663,0.805,-0.588,-0.083,0.818,-0.497,0.289,0.989,-0.145,0.038,0.888,0.081,0.452,0.723,0.626,0.293,0.777,0.218,0.591,0.525,0.672,0.522,0.482,0.249,0.84,-0.102,0.968,0.23,0.067,0.833,0.55,scissors
2.96392,-0.316,0.769,0.555,0.098,0.936,0.339,0.005,-0.748,-0.663,0.799,-0.592,-0.108,0.855,-0.402,0.327,0.987,-0.158,0.015,0.838,0.173,0.518,0.722,0.635,0.274,0.729,0.194,0.656,0.518,0.687,0.509,0.408,0.216,0.887,-0.115,0.97,0.212,0.026,0.781,0.624,scissors
2.986959,-0.339,0.754,0.562,0.989,-0.066,-0.132,0.005,-0.748,-0.663,0.788,-0.604,-0.12,0.857,-0.0,0.514,0.984,-0.176,0.006,0.503,0.503,0.704,0.728,0.635,0.259,0.467,-0.052,0.883,0.529,0.687,0.498,-0.0,-0.1,0.995,-0.112,0.974,0.195,-0.0,0.423,0.906,scissors
3.011049,-0.333,0.777,0.535,0.64,-0.64,-0.426,0.04,-0.728,-0.685,0.782,-0.614,-0.107,-0.228,0.912,0.342,0.982,-0.185,0.023,-0.715,0.625,0.313,0.746,0.612,0.261,-0.754,-0.538,0.377,0.551,0.67,0.498,-0.824,-0.549,0.137,-0.091,0.977,0.195,-0.206,-0.928,0.309,scissors
3.032513,-0.312,0.791,0.527,0.372,-0.83,-0.415,0.04,-0.728,-0.685,0.783,-0.616,-0.083,-0.511,0.86,0.0,0.982,-0.183,0.046,-0.874,0.485,-0.024,0.758,0.592,0.275,-0.924,-0.381,-0.027,0.563,0.652,0.508,-0.859,-0.43,-0.278,-0.075,0.976,0.206,-0.254,-0.967,0.0,scissors
3.054228,-0.297,0.799,0.523,0.279,-0.898,-0.341,0.04,-0.728,-0.685,0.789,-0.611,-0.069,-0.553,0.821,-0.143,0.983,-0.177,0.057,-0.88,0.432,-0.199,0.766,0.575,0.288,-0.953,-0.247,-0.176,0.577,0.632,0.517,-0.856,-0.302,-0.42,-0.065,0.975,0.214,-0.304,-0.945,-0.118,scissors
3.076777,-0.273,0.797,0.539,0.279,-0.898,-0.341,0.003,-0.751,-0.66,0.795,-0.604,-0.061,-0.56,0.795,-0.234,0.984,-0.167,0.059,-0.866,0.395,-0.306,0.756,0.583,0.296,-0.955,-0.168,-0.245,0.563,0.639,0.525,-0.848,-0.237,-0.474,-0.069,0.971,0.227,-0.337,-0.925,-0.175,scissors
3.098284,-0.281,0.788,0.548,0.141,-0.957,-0.252,0.003,-0.751,-0.66,0.801,-0.594,-0.075,-0.566,0.783,-0.257,0.987,-0.154,0.042,-0.863,0.371,-0.341,0.743,0.603,0.291,-0.949,-0.141,-0.283,0.55,0.655,0.518,-0.83,-0.217,-0.514,-0.091,0.97,0.225,-0.348,-0.914,-0.209,scissors
3.119452,-0.298,0.778,0.553,0.116,-0.96,-0.256,0.003,-0.751,-0.66,0.801,-0.589,-0.105,-0.589,0.754,-0.29,0.988,-0.155,0.015,-0.862,0.337,-0.378,0.73,0.628,0.271,-0.936,-0.123,-0.329,0.544,0.676,0.498,-0.809,-0.186,-0.558,-0.113,0.971,0.21,-0.349,-0.901,-0.26,scissors
3.143993,-0.344,0.773,0.534,0.116,-0.96,-0.256,-0.05,-0.757,-0.652,0.791,-0.598,-0.132,-0.624,0.712,-0.322,0.986,-0.167,-0.008,-0.867,0.276,-0.414,0.72,0.65,0.242,-0.913,-0.121,-0.389,0.545,0.694,0.47,-0.774,-0.172,-0.609,-0.122,0.975,0.185,-0.341,-0.886,-0.315,scissors
3.165886,-0.355,0.784,0.509,0.116,-0.96,-0.256,-0.108,-0.74,-0.664,0.771,-0.622,-0.136,-0.651,0.679,-0.34,0.98,-0.198,-0.006,-0.876,0.225,-0.427,0.739,0.641,0.207,-0.891,-0.13,-0.434,0.564,0.695,0.445,-0.737,-0.174,-0.653,-0.101,0.983,0.156,-0.318,-0.876,-0.363,scissors
3.18847,-0.368,0.801,0.472,-0.055,-0.941,-0.334,-0.088,-0.745,-0.661,0.737,-0.665,-0.119,-0.671,0.661,-0.336,0.968,-0.249,0.018,-0.883,0.192,-0.429,0.778,0.605,0.172,-0.881,-0.138,-0.453,0.613,0.672,0.415,-0.722,-0.182,-0.668,-0.058,0.991,0.123,-0.298,-0.875,-0.381,scissors
3.214336,-0.36,0.842,0.401,-0.055,-0.941,-0.334,-0.088,-0.745,-0.661,0.699,-0.711,-0.08,-0.675,0.671,-0.307,0.952,-0.3,0.06,-0.89,0.207,-0.405,0.832,0.537,0.136,-0.889,-0.158,-0.429,0.664,0.638,0.389,-0.73,-0.207,-0.651,0.003,0.995,0.099,-0.28,-0.892,-0.354,scissors
3.237668,-0.342,0.864,0.37,-0.055,-0.941,-0.334,-0.164,-0.78,-0.604,0.674,-0.737,-0.048,-0.669,0.69,-0.274,0.939,-0.332,0.091,-0.896,0.235,-0.376,0.863,0.491,0.119,-0.899,-0.182,-0.398,0.708,0.599,0.374,-0.743,-0.235,-0.627,0.046,0.995,0.086,-0.268,-0.91,-0.317,scissors
3.257312,-0.325,0.877,0.353,0.07,-0.935,-0.349,-0.164,-0.78,-0.604,0.665,-0.746,-0.032,-0.668,0.7,-0.254,0.932,-0.345,0.109,-0.901,0.255,-0.352,0.873,0.474,0.112,-0.904,-0.194,-0.381,0.733,0.574,0.364,-0.746,-0.251,-0.617,0.071,0.994,0.081,-0.259,-0.919,-0.298,scissors
3.28099,-0.31,0.897,0.314,0.072,-0.933,-0.351,-0.223,-0.761,-0.609,0.664,-0.748,-0.015,-0.674,0.697,-0.245,0.931,-0.342,0.123,-0.904,0.253,-0.346,0.876,0.469,0.116,-0.901,-0.206,-0.383,0.745,0.56,0.363,-0.74,-0.261,-0.62,0.092,0.992,0.09,-0.25,-0.92,-0.302,scissors
3.30115,-0.285,0.91,0.302,0.072,-0.933,-0.351,-0.223,-0.761,-0.609,0.656,-0.755,0.012,-0.684,0.687,-0.246,0.926,-0.348,0.148,-0.908,0.238,-0.345,0.895,0.432,0.116,-0.895,-0.208,-0.395,0.77,0.521,0.367,-0.731,-0.262,-0.631,0.124,0.988,0.096,-0.244,-0.917,-0.315,scissors
3.321955,-0.253,0.924,0.289,0.034,-0.927,-0.372,-0.223,-0.761,-0.609,0.636,-0.77,0.053,-0.688,0.684,-0.242,0.913,-0.365,0.18,-0.911,0.229,-0.343,0.921,0.373,0.113,-0.893,-0.216,-0.394,0.795,0.482,0.368,-0.728,-0.268,-0.631,0.165,0.981,0.098,-0.233,-0.919,-0.317,scissors
3.346252,-0.223,0.937,0.27,0.068,-0.922,-0.382,-0.223,-0.761,-0.609,0.618,-0.781,0.089,-0.687,0.691,-0.225,0.901,-0.378,0.214,-0.915,0.238,-0.326,0.936,0.333,0.115,-0.896,-0.23,-0.381,0.82,0.441,0.365,-0.732,-0.284,-0.619,0.203,0.974,0.102,-0.219,-0.927,-0.304,scissors
3.366603,-0.225,0.942,0.249,0.068,-0.922,-0.382,-0.316,-0.771,-0.552,0.61,-0.785,0.105,-0.69,0.69,-0.218,0.894,-0.386,0.226,-0.916,0.238,-0.322,0.941,0.318,0.117,-0.892,-0.237,-0.385,0.835,0.414,0.362,-0.728,-0.288,-0.623,0.226,0.969,0.102,-0.213,-0.929,-0.304,scissors
3.390124,-0.219,0.948,0.231,0.068,-0.922,-0.382,-0.351,-0.786,-0.509,0.598,-0.792,0.124,-0.7,0.68,-0.221,0.885,-0.395,0.247,-0.92,0.227,-0.32,0.95,0.291,0.115,-0.886,-0.24,-0.396,0.844,0.395,0.362,-0.718,-0.287,-0.634,0.251,0.963,0.102,-0.21,-0.925,-0.316,scissors
3.412774,-0.208,0.954,0.216,0.039,-0.918,-0.395,-0.351,-0.786,-0.509,0.589,-0.796,0.141,-0.705,0.672,-0.225,0.877,-0.401,0.266,-0.921,0.219,-0.323,0.956,0.266,0.119,-0.881,-0.238,-0.409,0.857,0.369,0.361,-0.712,-0.283,-0.643,0.269,0.958,0.1,-0.208,-0.923,-0.323,scissors
3.430807,-0.202,0.955,0.217,0.029,-0.919,-0.393,-0.351,-0.786,-0.509,0.588,-0.794,0.152,-0.706,0.667,-0.238,0.873,-0.4,0.278,-0.918,0.209,-0.337,0.96,0.248,0.127,-0.879,-0.227,-0.418,0.863,0.349,0.365,-0.708,-0.272,-0.652,0.278,0.955,0.103,-0.217,-0.917,-0.335,scissors
3.452864,-0.192,0.956,0.222,0.029,-0.919,-0.393,-0.412,-0.798,-0.44,0.589,-0.792,0.16,-0.708,0.658,-0.258,0.871,-0.397,0.289,-0.914,0.2,-0.354,0.961,0.244,0.133,-0.877,-0.211,-0.432,0.864,0.342,0.37,-0.705,-0.253,-0.663,0.281,0.953,0.112,-0.227,-0.909,-0.349,scissors
3.47445,-0.183,0.958,0.222,0.029,-0.919,-0.393,-0.44,-0.778,-0.448,0.593,-0.788,0.162,-0.708,0.655,-0.265,0.875,-0.386,0.293,-0.912,0.193,-0.363,0.957,0.255,0.137,-0.874,-0.207,-0.44,0.855,0.355,0.379,-0.703,-0.245,-0.667,0.274,0.954,0.123,-0.23,-0.905,-0.359,scissors
3.495818,-0.191,0.954,0.23,-0.01,-0.925,-0.38,-0.44,-0.778,-0.448,0.602,-0.784,0.154,-0.709,0.651,-0.271,0.88,-0.379,0.286,-0.911,0.189,-0.368,0.952,0.274,0.138,-0.872,-0.202,-0.446,0.847,0.371,0.38,-0.699,-0.241,-0.673,0.263,0.956,0.127,-0.231,-0.902,-0.365,scissors
3.516531,-0.197,0.953,0.229,-0.01,-0.925,-0.38,-0.467,-0.78,-0.416,0.6,-0.786,0.148,-0.709,0.648,-0.277,0.88,-0.382,0.284,-0.91,0.183,-0.372,0.951,0.28,0.131,-0.871,-0.199,-0.449,0.844,0.384,0.375,-0.698,-0.237,-0.676,0.261,0.958,0.122,-0.234,-0.899,-0.369,scissors
3.542073,-0.219,0.954,0.205,-0.01,-0.925,-0.38,-0.491,-0.79,-0.366,0.587,-0.795,0.152,-0.707,0.647,-0.284,0.872,-0.393,0.291,-0.908,0.188,-0.376,0.955,0.271,0.12,-0.872,-0.195,-0.449,0.851,0.381,0.362,-0.7,-0.232,-0.675,0.27,0.957,0.108,-0.241,-0.899,-0.366,scissors
3.564211,-0.228,0.959,0.17,-0.01,-0.925,-0.38,-0.491,-0.79,-0.366,0.574,-0.804,0.155,-0.699,0.656,-0.286,0.864,-0.408,0.295,-0.903,0.197,-0.382,0.959,0.261,0.108,-0.878,-0.185,-0.441,0.859,0.376,0.348,-0.708,-0.228,-0.668,0.28,0.955,0.094,-0.252,-0.898,-0.36,scissors
3.584287,-0.237,0.959,0.158,-0.01,-0.925,-0.38,-0.491,-0.79,-0.366,0.565,-0.811,0.152,-0.687,0.663,-0.296,0.858,-0.423,0.293,-0.895,0.206,-0.395,0.962,0.256,0.098,-0.884,-0.17,-0.435,0.869,0.368,0.33,-0.719,-0.212,-0.662,0.286,0.955,0.081,-0.267,-0.895,-0.358,scissors
3.608444,-0.264,0.952,0.157,-0.012,-0.946,-0.325,-0.491,-0.79,-0.366,0.544,-0.829,0.132,-0.677,0.674,-0.296,0.852,-0.446,0.275,-0.891,0.221,-0.396,0.963,0.266,0.052,-0.892,-0.161,-0.423,0.869,0.393,0.3,-0.726,-0.208,-0.655,0.277,0.959,0.054,-0.271,-0.899,-0.345,scissors
3.629936,-0.264,0.952,0.157,0.026,-0.938,-0.345,-0.551,-0.793,-0.26,0.513,-0.854,0.084,-0.682,0.679,-0.273,0.839,-0.489,0.238,-0.901,0.219,-0.374,0.957,0.289,-0.027,-0.89,-0.185,-0.416,0.878,0.418,0.235,-0.72,-0.238,-0.652,0.271,0.963,-0.002,-0.246,-0.908,-0.34,scissors
3.65172,-0.347,0.93,0.121,0.026,-0.938,-0.345,-0.551,-0.793,-0.26,0.467,-0.883,0.048,-0.706,0.663,-0.248,0.813,-0.542,0.211,-0.917,0.198,-0.347,0.961,0.258,-0.095,-0.877,-0.228,-0.424,0.908,0.381,0.176,-0.696,-0.279,-0.661,0.284,0.956,-0.07,-0.208,-0.914,-0.349,scissors
3.675153,-0.332,0.931,0.15,0.026,-0.938,-0.345,-0.558,-0.807,-0.193,0.452,-0.888,0.088,-0.722,0.652,-0.231,0.799,-0.553,0.237,-0.925,0.186,-0.331,0.982,0.179,-0.057,-0.869,-0.248,-0.429,0.92,0.335,0.205,-0.691,-0.296,-0.659,0.306,0.95,-0.066,-0.193,-0.918,-0.348,scissors
3.696696,-0.273,0.941,0.197,0.021,-0.905,-0.426,-0.558,-0.807,-0.193,0.488,-0.863,0.128,-0.703,0.676,-0.221,0.818,-0.511,0.264,-0.921,0.221,-0.321,0.984,0.179,0.024,-0.89,-0.242,-0.387,0.911,0.323,0.255,-0.723,-0.291,-0.626,0.297,0.955,-0.01,-0.211,-0.928,-0.308,scissors
3.717287,-0.223,0.942,0.251,0.089,-0.925,-0.37,-0.558,-0.807,-0.193,0.554,-0.822,0.133,-0.674,0.706,-0.216,0.857,-0.442,0.265,-0.908,0.269,-0.322,0.972,0.222,0.079,-0.909,-0.219,-0.356,0.884,0.352,0.308,-0.752,-0.277,-0.598,0.264,0.963,0.056,-0.234,-0.933,-0.272,scissors
3.741652,-0.174,0.935,0.309,0.115,-0.936,-0.333,-0.542,-0.836,-0.083,0.618,-0.781,0.09,-0.664,0.712,-0.228,0.896,-0.385,0.219,-0.901,0.283,-0.328,0.946,0.308,0.1,-0.912,-0.204,-0.357,0.851,0.403,0.337,-0.756,-0.263,-0.6,0.202,0.976,0.085,-0.246,-0.93,-0.272,scissors
3.762214,-0.204,0.914,0.35,0.05,-0.931,-0.361,-0.542,-0.836,-0.083,0.632,-0.774,0.038,-0.671,0.704,-0.234,0.911,-0.378,0.166,-0.904,0.268,-0.333,0.929,0.362,0.078,-0.906,-0.208,-0.369,0.815,0.473,0.334,-0.743,-0.267,-0.614,0.148,0.986,0.073,-0.236,-0.929,-0.286,scissors
3.783863,-0.286,0.881,0.377,0.05,-0.931,-0.361,-0.545,-0.834,-0.09,0.625,-0.78,-0.026,-0.678,0.704,-0.212,0.915,-0.39,0.107,-0.912,0.266,-0.312,0.907,0.419,0.037,-0.902,-0.232,-0.365,0.787,0.538,0.302,-0.736,-0.293,-0.61,0.098,0.995,0.032,-0.214,-0.936,-0.28,scissors
3.807345,-0.388,0.849,0.358,0.086,-0.918,-0.386,-0.545,-0.838,0.019,0.615,-0.784,-0.086,-0.692,0.695,-0.197,0.91,-0.412,0.05,-0.921,0.254,-0.296,0.891,0.455,0.0,-0.893,-0.254,-0.372,0.786,0.56,0.263,-0.72,-0.312,-0.62,0.071,0.997,-0.02,-0.193,-0.938,-0.289,scissors
3.828958,-0.397,0.851,0.344,0.086,-0.918,-0.386,-0.514,-0.858,-0.001,0.603,-0.791,-0.102,-0.713,0.67,-0.206,0.902,-0.432,0.031,-0.927,0.218,-0.305,0.894,0.447,-0.016,-0.877,-0.255,-0.406,0.802,0.542,0.249,-0.698,-0.305,-0.648,0.077,0.996,-0.043,-0.186,-0.928,-0.323,scissors
3.851151,-0.347,0.868,0.354,0.086,-0.918,-0.386,-0.489,-0.872,0.015,0.597,-0.799,-0.077,-0.736,0.64,-0.221,0.898,-0.438,0.046,-0.932,0.178,-0.317,0.915,0.404,-0.007,-0.859,-0.256,-0.443,0.822,0.506,0.262,-0.677,-0.296,-0.674,0.101,0.994,-0.028,-0.178,-0.916,-0.359,scissors
3.874788,-0.293,0.884,0.365,-0.033,-0.892,-0.451,-0.49,-0.872,-0.011,0.618,-0.786,-0.02,-0.755,0.616,-0.227,0.908,-0.408,0.095,-0.937,0.149,-0.315,0.928,0.369,0.05,-0.847,-0.261,-0.462,0.821,0.476,0.314,-0.664,-0.294,-0.688,0.124,0.992,0.031,-0.169,-0.909,-0.382,scissors
3.896265,-0.189,0.908,0.375,-0.033,-0.892,-0.451,-0.49,-0.872,-0.011,0.651,-0.759,0.02,-0.766,0.6,-0.232,0.923,-0.362,0.131,-0.94,0.135,-0.314,0.923,0.369,0.107,-0.837,-0.266,-0.478,0.807,0.463,0.367,-0.652,-0.293,-0.699,0.128,0.988,0.09,-0.166,-0.902,-0.398,scissors
3.917041,-0.169,0.905,0.39,-0.039,-0.883,-0.468,-0.49,-0.872,-0.011,0.68,-0.732,0.051,-0.774,0.588,-0.236,0.934,-0.316,0.164,-0.941,0.124,-0.316,0.913,0.374,0.163,-0.83,-0.267,-0.49,0.777,0.471,0.417,-0.643,-0.292,-0.709,0.123,0.981,0.147,-0.161,-0.9,-0.406,scissors
3.94054,-0.166,0.905,0.393,0.0,-0.889,-0.458,-0.417,-0.908,0.042,0.692,-0.718,0.081,-0.766,0.603,-0.222,0.937,-0.29,0.198,-0.942,0.135,-0.308,0.907,0.374,0.195,-0.839,-0.275,-0.47,0.755,0.48,0.446,-0.654,-0.306,-0.692,0.124,0.976,0.18,-0.154,-0.909,-0.386,scissors
3.962407,-0.189,0.919,0.346,0.045,-0.899,-0.436,-0.417,-0.908,0.042,0.69,-0.718,0.094,-0.748,0.629,-0.21,0.932,-0.29,0.217,-0.939,0.162,-0.304,0.906,0.371,0.202,-0.855,-0.274,-0.44,0.761,0.477,0.44,-0.674,-0.311,-0.67,0.14,0.974,0.177,-0.163,-0.92,-0.357,scissors
3.98362,-0.218,0.928,0.302,0.045,-0.899,-0.436,-0.387,-0.918,0.084,0.666,-0.739,0.103,-0.725,0.653,-0.22,0.916,-0.325,0.235,-0.929,0.187,-0.32,0.922,0.341,0.18,-0.871,-0.249,-0.424,0.797,0.444,0.41,-0.693,-0.294,-0.659,0.178,0.973,0.147,-0.187,-0.92,-0.344,scissors
4.008182,-0.228,0.944,0.24,0.027,-0.931,-0.365,-0.387,-0.918,0.084,0.613,-0.781,0.12,-0.704,0.666,-0.246,0.885,-0.387,0.26,-0.917,0.2,-0.346,0.951,0.278,0.133,-0.881,-0.214,-0.422,0.852,0.377,0.363,-0.706,-0.263,-0.658,0.246,0.964,0.095,-0.221,-0.913,-0.344,scissors
4.028695,-0.228,0.944,0.24,0.003,-0.935,-0.354,-0.338,-0.931,0.139,0.565,-0.811,0.151,-0.695,0.667,-0.268,0.851,-0.435,0.292,-0.907,0.201,-0.37,0.975,0.198,0.101,-0.883,-0.19,-0.429,0.891,0.306,0.334,-0.712,-0.24,-0.66,0.303,0.951,0.062,-0.243,-0.904,-0.351,scissors
4.050637,-0.216,0.956,0.197,0.003,-0.935,-0.354,-0.324,-0.94,0.107,0.533,-0.828,0.176,-0.686,0.671,-0.282,0.832,-0.458,0.314,-0.899,0.216,-0.38,0.987,0.136,0.081,-0.888,-0.173,-0.426,0.905,0.276,0.324,-0.72,-0.219,-0.658,0.323,0.945,0.056,-0.257,-0.904,-0.342,scissors
4.075422,-0.23,0.942,0.245,0.04,-0.939,-0.342,-0.302,-0.949,0.094,0.547,-0.822,0.155,-0.673,0.7,-0.238,0.85,-0.436,0.295,-0.904,0.266,-0.334,0.971,0.221,0.087,-0.904,-0.205,-0.375,0.871,0.355,0.339,-0.738,-0.259,-0.623,0.288,0.954,0.078,-0.239,-0.927,-0.289,scissors
4.095288,-0.272,0.938,0.215,0.139,-0.917,-0.373,-0.302,-0.949,0.094,0.576,-0.809,0.116,-0.68,0.703,-0.209,0.868,-0.419,0.265,-0.913,0.269,-0.307,0.948,0.305,0.095,-0.901,-0.233,-0.366,0.849,0.406,0.338,-0.732,-0.295,-0.614,0.263,0.962,0.076,-0.216,-0.935,-0.28,scissors
4.116457,-0.296,0.935,0.194,0.1,-0.911,-0.4,-0.302,-0.949,0.094,0.545,-0.83,0.118,-0.689,0.696,-0.204,0.849,-0.458,0.265,-0.919,0.248,-0.306,0.964,0.258,0.064,-0.895,-0.244,-0.374,0.87,0.383,0.311,-0.727,-0.304,-0.616,0.292,0.956,0.039,-0.206,-0.934,-0.291,scissors
4.139907,-0.286,0.947,0.145,0.1,-0.911,-0.4,-0.226,-0.97,0.084,0.493,-0.857,0.15,-0.691,0.695,-0.201,0.812,-0.507,0.288,-0.921,0.245,-0.303,0.986,0.162,0.033,-0.895,-0.241,-0.375,0.917,0.29,0.275,-0.727,-0.304,-0.616,0.355,0.935,0.001,-0.203,-0.935,-0.292,scissors
4.161456,-0.238,0.964,0.12,0.1,-0.911,-0.4,-0.226,-0.97,0.084,0.474,-0.86,0.19,-0.705,0.678,-0.208,0.796,-0.516,0.316,-0.923,0.229,-0.308,0.994,0.098,0.038,-0.886,-0.242,-0.395,0.935,0.217,0.281,-0.715,-0.296,-0.634,0.396,0.918,0.015,-0.2,-0.929,-0.311,scissors
4.181129,-0.171,0.977,0.125,0.036,-0.911,-0.412,-0.226,-0.97,0.084,0.495,-0.834,0.244,-0.717,0.668,-0.198,0.809,-0.475,0.346,-0.93,0.231,-0.286,0.992,0.075,0.101,-0.879,-0.263,-0.397,0.919,0.2,0.34,-0.709,-0.31,-0.633,0.399,0.913,0.087,-0.186,-0.935,-0.303,scissors
4.206295,-0.091,0.976,0.196,0.114,-0.885,-0.451,-0.163,-0.97,0.178,0.565,-0.783,0.26,-0.721,0.674,-0.161,0.854,-0.392,0.341,-0.936,0.244,-0.252,0.971,0.144,0.191,-0.879,-0.294,-0.374,0.865,0.256,0.432,-0.71,-0.346,-0.614,0.358,0.917,0.177,-0.164,-0.945,-0.282,scissors
4.227938,-0.109,0.966,0.234,0.114,-0.885,-0.451,-0.163,-0.97,0.178,0.609,-0.754,0.247,-0.727,0.673,-0.135,0.884,-0.339,0.322,-0.943,0.246,-0.226,0.949,0.217,0.228,-0.874,-0.322,-0.364,0.826,0.313,0.468,-0.7,-0.375,-0.608,0.322,0.921,0.217,-0.137,-0.953,-0.27,scissors
4.249325,-0.141,0.966,0.216,0.124,-0.864,-0.488,-0.163,-0.97,0.178,0.616,-0.755,0.227,-0.738,0.665,-0.118,0.888,-0.343,0.306,-0.95,0.23,-0.21,0.945,0.246,0.217,-0.864,-0.343,-0.368,0.822,0.341,0.456,-0.68,-0.393,-0.619,0.311,0.929,0.199,-0.108,-0.954,-0.281,scissors
4.268992,-0.177,0.964,0.196,0.124,-0.864,-0.488,-0.163,-0.97,0.178,0.581,-0.787,0.208,-0.746,0.656,-0.109,0.868,-0.394,0.301,-0.957,0.204,-0.208,0.961,0.224,0.165,-0.856,-0.356,-0.375,0.852,0.329,0.406,-0.663,-0.408,-0.628,0.328,0.934,0.144,-0.089,-0.951,-0.295,scissors
4.292521,-0.235,0.963,0.13,0.102,-0.858,-0.503,-0.03,-0.99,0.138,0.528,-0.822,0.214,-0.748,0.656,-0.104,0.833,-0.451,0.322,-0.959,0.199,-0.202,0.98,0.158,0.12,-0.854,-0.364,-0.372,0.888,0.289,0.358,-0.666,-0.416,-0.62,0.359,0.929,0.087,-0.088,-0.953,-0.29,scissors
4.31377,-0.243,0.963,0.12,0.124,-0.864,-0.488,-0.03,-0.99,0.138,0.508,-0.832,0.222,-0.73,0.676,-0.105,0.815,-0.47,0.34,-0.953,0.22,-0.209,0.984,0.132,0.118,-0.868,-0.347,-0.355,0.899,0.271,0.344,-0.693,-0.4,-0.6,0.374,0.925,0.07,-0.108,-0.957,-0.269,scissors
4.33476,-0.229,0.966,0.121,0.14,-0.884,-0.446,-0.03,-0.99,0.138,0.516,-0.829,0.218,-0.709,0.694,-0.125,0.817,-0.46,0.348,-0.941,0.246,-0.231,0.981,0.15,0.125,-0.885,-0.313,-0.345,0.898,0.273,0.346,-0.715,-0.369,-0.594,0.371,0.926,0.076,-0.144,-0.955,-0.26,scissors
4.357591,-0.215,0.967,0.14,0.09,-0.918,-0.385,0.039,-0.995,0.095,0.537,-0.817,0.211,-0.698,0.698,-0.161,0.828,-0.442,0.345,-0.929,0.258,-0.266,0.974,0.18,0.138,-0.893,-0.277,-0.355,0.887,0.294,0.357,-0.727,-0.33,-0.602,0.353,0.931,0.088,-0.183,-0.947,-0.265,scissors
4.379399,-0.214,0.96,0.18,0.09,-0.918,-0.385,0.055,-0.987,0.153,0.565,-0.804,0.186,-0.681,0.705,-0.199,0.849,-0.419,0.322,-0.916,0.266,-0.3,0.963,0.225,0.149,-0.901,-0.236,-0.364,0.866,0.339,0.369,-0.738,-0.294,-0.607,0.313,0.945,0.098,-0.217,-0.937,-0.275,scissors
4.40122,-0.243,0.946,0.216,0.09,-0.918,-0.385,0.083,-0.992,0.09,0.592,-0.793,0.146,-0.662,0.712,-0.235,0.872,-0.399,0.285,-0.899,0.278,-0.338,0.945,0.291,0.147,-0.91,-0.196,-0.366,0.839,0.403,0.365,-0.75,-0.254,-0.61,0.265,0.959,0.099,-0.256,-0.926,-0.278,scissors
4.425653,-0.314,0.924,0.218,0.059,-0.947,-0.317,0.124,-0.981,0.151,0.592,-0.8,0.097,-0.645,0.717,-0.265,0.883,-0.41,0.229,-0.886,0.282,-0.368,0.933,0.345,0.101,-0.915,-0.164,-0.368,0.824,0.461,0.33,-0.756,-0.229,-0.613,0.23,0.971,0.07,-0.284,-0.916,-0.284,scissors
4.442462,-0.342,0.918,0.199,0.059,-0.947,-0.317,0.146,-0.986,0.077,0.573,-0.817,0.069,-0.64,0.719,-0.27,0.877,-0.437,0.199,-0.882,0.286,-0.375,0.934,0.353,0.057,-0.915,-0.158,-0.37,0.828,0.478,0.293,-0.759,-0.227,-0.611,0.225,0.974,0.034,-0.29,-0.913,-0.286,scissors
4.462946,-0.362,0.915,0.181,0.059,-0.947,-0.317,0.146,-0.986,0.077,0.543,-0.839,0.03,-0.643,0.716,-0.272,0.863,-0.476,0.171,-0.882,0.278,-0.382,0.934,0.358,-0.003,-0.914,-0.155,-0.375,0.845,0.48,0.235,-0.755,-0.221,-0.617,0.223,0.975,-0.017,-0.288,-0.911,-0.295,scissors
4.485853,-0.376,0.911,0.17,0.037,-0.938,-0.345,0.146,-0.986,0.077,0.488,-0.873,-0.011,-0.665,0.7,-0.262,0.834,-0.533,0.144,-0.894,0.253,-0.369,0.929,0.354,-0.11,-0.903,-0.177,-0.392,0.861,0.485,0.153,-0.733,-0.244,-0.635,0.233,0.968,-0.091,-0.258,-0.915,-0.311,scissors
4.511772,-0.387,0.916,0.106,0.033,-0.912,-0.41,0.183,-0.983,-0.019,0.427,-0.904,-0.03,-0.714,0.659,-0.235,0.792,-0.595,0.138,-0.922,0.193,-0.336,0.929,0.312,-0.201,-0.872,-0.227,-0.433,0.903,0.421,0.086,-0.687,-0.293,-0.665,0.272,0.95,-0.154,-0.192,-0.917,-0.35,scissors
4.531621,-0.363,0.926,0.104,-0.015,-0.877,-0.481,0.183,-0.983,-0.019,0.402,-0.915,0.021,-0.759,0.619,-0.2,0.774,-0.606,0.186,-0.944,0.141,-0.297,0.958,0.222,-0.179,-0.842,-0.288,-0.457,0.922,0.372,0.111,-0.649,-0.341,-0.68,0.308,0.941,-0.137,-0.136,-0.917,-0.375,scissors
4.553431,-0.325,0.94,0.105,-0.0,-0.847,-0.531,0.183,-0.983,-0.019,0.414,-0.904,0.103,-0.78,0.605,-0.157,0.774,-0.577,0.26,-0.96,0.126,-0.25,0.984,0.156,-0.087,-0.826,-0.345,-0.445,0.926,0.329,0.184,-0.637,-0.386,-0.667,0.344,0.936,-0.072,-0.092,-0.927,-0.363,scissors
4.579002,-0.216,0.969,0.12,0.099,-0.85,-0.518,0.346,-0.934,-0.085,0.458,-0.871,0.177,-0.777,0.619,-0.114,0.787,-0.524,0.325,-0.966,0.148,-0.212,0.992,0.123,0.02,-0.831,-0.371,-0.414,0.925,0.276,0.261,-0.647,-0.409,-0.644,0.369,0.929,0.001,-0.078,-0.941,-0.329,scissors
4.599023,-0.18,0.976,0.125,0.099,-0.85,-0.518,0.346,-0.934,-0.085,0.49,-0.845,0.214,-0.767,0.63,-0.12,0.8,-0.485,0.354,-0.962,0.165,-0.219,0.99,0.118,0.078,-0.84,-0.356,-0.41,0.92,0.245,0.304,-0.656,-0.394,-0.644,0.379,0.924,0.049,-0.091,-0.943,-0.321,scissors
4.62053,-0.149,0.979,0.142,0.077,-0.868,-0.491,0.346,-0.934,-0.085,0.519,-0.821,0.238,-0.758,0.637,-0.138,0.812,-0.449,0.372,-0.956,0.181,-0.233,0.986,0.108,0.128,-0.848,-0.334,-0.411,0.906,0.233,0.353,-0.666,-0.372,-0.646,0.375,0.923,0.09,-0.115,-0.94,-0.32,scissors
4.645234,-0.111,0.969,0.22,0.059,-0.881,-0.469,0.427,-0.901,-0.08,0.562,-0.79,0.244,-0.74,0.651,-0.167,0.836,-0.403,0.372,-0.944,0.201,-0.26,0.975,0.132,0.178,-0.864,-0.297,-0.407,0.884,0.244,0.398,-0.688,-0.34,-0.641,0.349,0.927,0.137,-0.15,-0.937,-0.317,scissors
4.666765,-0.115,0.965,0.238,0.059,-0.881,-0.469,0.467,-0.874,-0.135,0.594,-0.77,0.233,-0.724,0.661,-0.197,0.855,-0.374,0.358,-0.932,0.21,-0.294,0.966,0.163,0.202,-0.872,-0.262,-0.414,0.87,0.254,0.423,-0.699,-0.311,-0.644,0.328,0.931,0.159,-0.182,-0.928,-0.326,scissors
4.687504,-0.109,0.962,0.25,0.059,-0.881,-0.469,0.437,-0.868,-0.235,0.613,-0.76,0.218,-0.723,0.654,-0.223,0.87,-0.354,0.343,-0.928,0.2,-0.313,0.959,0.188,0.211,-0.869,-0.245,-0.429,0.85,0.28,0.446,-0.696,-0.288,-0.658,0.302,0.936,0.178,-0.192,-0.92,-0.342,scissors
4.710361,-0.115,0.95,0.291,0.004,-0.911,-0.413,0.437,-0.868,-0.235,0.635,-0.745,0.205,-0.725,0.649,-0.231,0.884,-0.33,0.33,-0.927,0.195,-0.32,0.949,0.218,0.228,-0.866,-0.245,-0.435,0.828,0.309,0.469,-0.691,-0.286,-0.664,0.273,0.942,0.196,-0.195,-0.916,-0.35,scissors
4.73212,-0.118,0.944,0.307,0.004,-0.911,-0.413,0.443,-0.872,-0.209,0.653,-0.731,0.198,-0.727,0.645,-0.235,0.895,-0.31,0.32,-0.927,0.191,-0.322,0.937,0.246,0.248,-0.866,-0.246,-0.435,0.81,0.333,0.482,-0.693,-0.286,-0.661,0.256,0.943,0.212,-0.203,-0.913,-0.353,scissors
4.753491,-0.133,0.949,0.287,0.004,-0.911,-0.413,0.443,-0.872,-0.209,0.658,-0.725,0.203,-0.717,0.651,-0.25,0.897,-0.302,0.324,-0.92,0.196,-0.34,0.933,0.248,0.26,-0.872,-0.227,-0.434,0.808,0.335,0.484,-0.703,-0.268,-0.658,0.259,0.941,0.215,-0.224,-0.908,-0.354,scissors
4.775875,-0.124,0.957,0.264,-0.004,-0.927,-0.376,0.472,-0.819,-0.327,0.646,-0.732,0.216,-0.698,0.657,-0.283,0.885,-0.314,0.343,-0.905,0.201,-0.374,0.94,0.228,0.255,-0.88,-0.191,-0.436,0.82,0.32,0.475,-0.715,-0.236,-0.658,0.28,0.937,0.206,-0.258,-0.897,-0.36,scissors
4.797135,-0.123,0.959,0.254,-0.025,-0.942,-0.336,0.472,-0.819,-0.327,0.63,-0.745,0.22,-0.68,0.66,-0.319,0.876,-0.334,0.349,-0.889,0.208,-0.408,0.949,0.209,0.238,-0.882,-0.153,-0.445,0.839,0.299,0.455,-0.723,-0.19,-0.665,0.296,0.936,0.188,-0.294,-0.882,-0.369,scissors
4.821658,-0.145,0.957,0.253,-0.059,-0.952,-0.302,0.472,-0.819,-0.327,0.612,-0.76,0.218,-0.66,0.672,-0.336,0.868,-0.352,0.349,-0.876,0.221,-0.429,0.957,0.195,0.215,-0.891,-0.126,-0.437,0.846,0.299,0.442,-0.738,-0.165,-0.654,0.303,0.937,0.172,-0.317,-0.878,-0.359,scissors
4.841787,-0.159,0.954,0.255,0.009,-0.96,-0.279,0.445,-0.793,-0.416,0.6,-0.77,0.216,-0.642,0.69,-0.334,0.862,-0.367,0.35,-0.87,0.241,-0.431,0.962,0.187,0.199,-0.903,-0.117,-0.415,0.854,0.293,0.43,-0.755,-0.164,-0.634,0.311,0.937,0.161,-0.33,-0.881,-0.339,scissors
4.863496,-0.153,0.956,0.25,0.009,-0.96,-0.279,0.439,-0.79,-0.429,0.608,-0.766,0.21,-0.636,0.698,-0.329,0.867,-0.359,0.345,-0.866,0.256,-0.429,0.957,0.206,0.203,-0.905,-0.115,-0.408,0.849,0.299,0.436,-0.76,-0.168,-0.628,0.307,0.937,0.167,-0.333,-0.884,-0.329,scissors
4.885687,-0.14,0.953,0.268,0.009,-0.96,-0.279,0.439,-0.79,-0.429,0.623,-0.755,0.207,-0.646,0.686,-0.334,0.875,-0.341,0.343,-0.871,0.243,-0.427,0.952,0.22,0.213,-0.898,-0.117,-0.424,0.843,0.296,0.45,-0.751,-0.171,-0.638,0.304,0.935,0.183,-0.325,-0.881,-0.343,scissors
4.903343,-0.119,0.955,0.272,-0.042,-0.943,-0.331,0.439,-0.79,-0.429,0.621,-0.751,0.226,-0.663,0.672,-0.331,0.869,-0.336,0.363,-0.879,0.215,-0.426,0.954,0.193,0.228,-0.886,-0.133,-0.445,0.842,0.274,0.465,-0.734,-0.179,-0.656,0.317,0.927,0.2,-0.308,-0.879,-0.364,scissors
4.931417,-0.069,0.962,0.265,-0.024,-0.931,-0.364,0.439,-0.79,-0.429,0.609,-0.748,0.263,-0.676,0.676,-0.293,0.858,-0.331,0.392,-0.895,0.224,-0.386,0.957,0.151,0.246,-0.889,-0.172,-0.425,0.837,0.255,0.483,-0.735,-0.224,-0.64,0.329,0.919,0.216,-0.279,-0.899,-0.337,scissors
4.950245,-0.069,0.961,0.268,-0.024,-0.931,-0.364,0.416,-0.771,-0.483,0.608,-0.749,0.263,-0.667,0.697,-0.264,0.857,-0.336,0.391,-0.9,0.256,-0.354,0.957,0.15,0.248,-0.901,-0.194,-0.388,0.841,0.254,0.478,-0.749,-0.248,-0.615,0.331,0.92,0.209,-0.265,-0.915,-0.305,scissors
4.971463,-0.1,0.959,0.265,-0.024,-0.931,-0.364,0.406,-0.753,-0.518,0.609,-0.756,0.242,-0.663,0.71,-0.237,0.859,-0.351,0.374,-0.904,0.271,-0.332,0.958,0.171,0.23,-0.905,-0.207,-0.372,0.847,0.261,0.462,-0.748,-0.265,-0.608,0.328,0.926,0.188,-0.254,-0.923,-0.29,scissors
4.994692,-0.147,0.951,0.272,-0.024,-0.931,-0.364,0.373,-0.747,-0.55,0.614,-0.762,0.208,-0.683,0.689,-0.242,0.864,-0.367,0.344,-0.913,0.24,-0.331,0.959,0.19,0.212,-0.889,-0.222,-0.401,0.855,0.27,0.444,-0.729,-0.266,-0.631,0.316,0.935,0.163,-0.239,-0.917,-0.32,scissors
5.016886,-0.183,0.938,0.294,0.023,-0.915,-0.403,0.373,-0.747,-0.55,0.621,-0.761,0.189,-0.709,0.658,-0.255,0.873,-0.361,0.327,-0.919,0.2,-0.34,0.954,0.213,0.212,-0.871,-0.226,-0.436,0.841,0.304,0.448,-0.702,-0.261,-0.663,0.291,0.942,0.165,-0.227,-0.908,-0.352,scissors
5.037633,-0.177,0.934,0.31,-0.03,-0.907,-0.421,0.373,-0.747,-0.55,0.626,-0.755,0.195,-0.718,0.654,-0.239,0.88,-0.343,0.328,-0.924,0.207,-0.321,0.947,0.228,0.229,-0.871,-0.245,-0.427,0.816,0.335,0.471,-0.708,-0.278,-0.65,0.275,0.943,0.186,-0.216,-0.916,-0.338,scissors
5.061507,-0.155,0.939,0.308,0.127,-0.892,-0.434,0.353,-0.733,-0.581,0.64,-0.739,0.213,-0.709,0.679,-0.191,0.884,-0.318,0.342,-0.932,0.237,-0.272,0.938,0.232,0.259,-0.883,-0.274,-0.382,0.806,0.327,0.494,-0.724,-0.318,-0.612,0.282,0.935,0.215,-0.195,-0.935,-0.296,scissors
5.083102,-0.095,0.957,0.274,0.121,-0.887,-0.446,0.353,-0.733,-0.581,0.64,-0.731,0.238,-0.712,0.682,-0.169,0.878,-0.308,0.366,-0.937,0.234,-0.258,0.939,0.207,0.274,-0.881,-0.294,-0.371,0.818,0.284,0.5,-0.718,-0.344,-0.605,0.311,0.923,0.228,-0.174,-0.94,-0.293,scissors
5.103277,-0.081,0.965,0.25,0.121,-0.887,-0.446,0.353,-0.733,-0.581,0.624,-0.734,0.27,-0.722,0.673,-0.159,0.862,-0.315,0.397,-0.943,0.221,-0.251,0.946,0.168,0.278,-0.875,-0.304,-0.377,0.828,0.25,0.502,-0.713,-0.356,-0.604,0.342,0.911,0.231,-0.165,-0.94,-0.299,scissors
5.12547,-0.08,0.971,0.225,0.096,-0.882,-0.46,0.353,-0.733,-0.581,0.604,-0.741,0.292,-0.725,0.669,-0.164,0.844,-0.331,0.421,-0.945,0.209,-0.252,0.955,0.117,0.273,-0.868,-0.308,-0.39,0.849,0.196,0.49,-0.702,-0.351,-0.62,0.38,0.898,0.221,-0.158,-0.937,-0.31,scissors
5.149147,-0.054,0.978,0.2,0.041,-0.881,-0.471,0.337,-0.741,-0.581,0.58,-0.751,0.315,-0.747,0.639,-0.182,0.823,-0.353,0.444,-0.95,0.17,-0.262,0.962,0.07,0.264,-0.85,-0.303,-0.432,0.864,0.146,0.482,-0.676,-0.338,-0.655,0.412,0.886,0.213,-0.156,-0.923,-0.353,scissors
5.171441,-0.047,0.977,0.207,0.041,-0.881,-0.471,0.322,-0.739,-0.592,0.568,-0.754,0.33,-0.77,0.616,-0.169,0.816,-0.359,0.452,-0.959,0.157,-0.236,0.963,0.043,0.265,-0.833,-0.332,-0.442,0.861,0.138,0.489,-0.656,-0.361,-0.663,0.416,0.883,0.216,-0.126,-0.926,-0.356,scissors
5.192545,-0.044,0.974,0.223,0.041,-0.881,-0.471,0.343,-0.698,-0.628,0.572,-0.75,0.332,-0.784,0.611,-0.107,0.819,-0.352,0.453,-0.972,0.158,-0.174,0.961,0.036,0.273,-0.819,-0.397,-0.414,0.857,0.126,0.499,-0.642,-0.42,-0.642,0.414,0.882,0.225,-0.066,-0.944,-0.323,scissors
5.214234,-0.031,0.967,0.254,0.041,-0.881,-0.471,0.332,-0.705,-0.627,0.592,-0.736,0.329,-0.806,0.591,-0.037,0.831,-0.331,0.448,-0.985,0.143,-0.098,0.953,0.063,0.297,-0.79,-0.47,-0.395,0.843,0.144,0.518,-0.612,-0.489,-0.621,0.397,0.885,0.241,-0.0,-0.95,-0.313,scissors
5.235615,-0.04,0.965,0.26,0.041,-0.881,-0.471,0.323,-0.726,-0.607,0.622,-0.716,0.316,-0.814,0.581,-0.011,0.85,-0.302,0.432,-0.988,0.141,-0.06,0.939,0.106,0.327,-0.777,-0.5,-0.383,0.819,0.192,0.541,-0.608,-0.512,-0.608,0.359,0.896,0.262,0.022,-0.953,-0.303,scissors
5.2583,-0.073,0.947,0.313,0.041,-0.881,-0.471,0.304,-0.722,-0.621,0.658,-0.696,0.289,-0.796,0.606,-0.012,0.874,-0.269,0.404,-0.982,0.178,-0.067,0.923,0.163,0.349,-0.793,-0.486,-0.367,0.791,0.241,0.562,-0.637,-0.496,-0.59,0.317,0.906,0.28,-0.012,-0.961,-0.276,scissors
5.283034,-0.077,0.943,0.323,0.126,-0.838,-0.531,0.297,-0.739,-0.605,0.675,-0.687,0.269,-0.778,0.623,-0.078,0.885,-0.259,0.386,-0.973,0.197,-0.123,0.914,0.196,0.355,-0.824,-0.425,-0.374,0.781,0.26,0.568,-0.673,-0.44,-0.595,0.297,0.912,0.284,-0.079,-0.95,-0.303,scissors
5.304481,-0.074,0.945,0.318,0.059,-0.871,-0.487,0.297,-0.739,-0.605,0.675,-0.689,0.264,-0.766,0.627,-0.139,0.887,-0.262,0.379,-0.967,0.188,-0.175,0.917,0.193,0.35,-0.839,-0.363,-0.405,0.783,0.259,0.566,-0.688,-0.379,-0.618,0.297,0.913,0.278,-0.127,-0.932,-0.339,scissors
5.325159,-0.079,0.947,0.312,0.032,-0.891,-0.453,0.297,-0.739,-0.605,0.664,-0.698,0.267,-0.744,0.638,-0.197,0.883,-0.275,0.38,-0.959,0.177,-0.221,0.924,0.178,0.339,-0.849,-0.324,-0.417,0.791,0.25,0.558,-0.706,-0.329,-0.627,0.306,0.913,0.269,-0.171,-0.918,-0.358,scissors
5.349382,-0.088,0.956,0.281,0.038,-0.908,-0.416,0.282,-0.719,-0.635,0.656,-0.703,0.273,-0.711,0.659,-0.243,0.877,-0.281,0.39,-0.942,0.202,-0.269,0.926,0.172,0.337,-0.877,-0.263,-0.403,0.792,0.248,0.558,-0.745,-0.277,-0.607,0.318,0.909,0.269,-0.246,-0.896,-0.369,scissors
5.370465,-0.073,0.959,0.275,0.021,-0.933,-0.36,0.282,-0.719,-0.635,0.651,-0.702,0.287,-0.692,0.653,-0.307,0.87,-0.281,0.405,-0.922,0.188,-0.339,0.927,0.157,0.341,-0.881,-0.196,-0.431,0.798,0.227,0.559,-0.763,-0.21,-0.611,0.334,0.901,0.275,-0.309,-0.869,-0.386,scissors
5.391372,-0.05,0.961,0.272,-0.091,-0.935,-0.342,0.282,-0.719,-0.635,0.639,-0.702,0.313,-0.68,0.638,-0.361,0.857,-0.282,0.431,-0.916,0.187,-0.354,0.929,0.127,0.347,-0.875,-0.153,-0.459,0.803,0.196,0.564,-0.767,-0.171,-0.618,0.358,0.89,0.283,-0.346,-0.843,-0.411,scissors
5.415509,-0.007,0.967,0.256,-0.091,-0.935,-0.342,0.288,-0.714,-0.638,0.625,-0.704,0.337,-0.697,0.619,-0.361,0.844,-0.288,0.452,-0.925,0.18,-0.334,0.933,0.088,0.348,-0.867,-0.19,-0.461,0.811,0.158,0.563,-0.77,-0.186,-0.611,0.384,0.878,0.286,-0.385,-0.825,-0.413,scissors
5.438064,-0.003,0.967,0.257,0.0,-0.902,-0.431,0.288,-0.714,-0.638,0.615,-0.706,0.352,-0.736,0.581,-0.348,0.832,-0.295,0.47,-0.955,0.147,-0.257,0.937,0.056,0.345,-0.83,-0.249,-0.498,0.82,0.124,0.559,-0.744,-0.235,-0.626,0.403,0.87,0.284,-0.372,-0.785,-0.496,scissors
5.459064,0.004,0.969,0.249,-0.074,-0.741,-0.667,0.288,-0.714,-0.638,0.612,-0.704,0.361,-0.841,0.382,-0.382,0.828,-0.291,0.48,-1.0,-0.0,-0.0,0.935,0.049,0.35,-0.631,-0.451,-0.631,0.819,0.117,0.562,-0.677,-0.29,-0.677,0.405,0.868,0.288,-0.375,-0.656,-0.656,scissors
5.483483,0.004,0.964,0.267,-0.117,0.702,-0.702,0.269,-0.725,-0.634,0.625,-0.692,0.36,-0.365,-0.913,0.183,0.836,-0.273,0.477,-0.367,-0.367,0.855,0.927,0.067,0.368,0.762,-0.635,-0.127,0.803,0.136,0.581,0.688,-0.229,0.688,0.389,0.869,0.305,0.192,0.962,-0.192,scissors
5.504862,0.004,0.962,0.271,-0.117,0.702,-0.702,0.28,-0.709,-0.647,0.635,-0.686,0.355,0.408,-0.816,0.408,0.839,-0.264,0.475,0.499,-0.437,0.749,0.924,0.083,0.374,0.928,-0.232,0.29,0.798,0.144,0.585,0.707,0.0,0.707,0.383,0.87,0.31,0.314,0.941,0.125,scissors
5.527095,-0.003,0.966,0.26,-0.031,0.992,0.124,0.32,-0.701,-0.638,0.629,-0.692,0.354,0.498,-0.83,0.249,0.836,-0.274,0.476,0.691,-0.447,0.569,0.927,0.084,0.367,0.97,-0.0,0.243,0.808,0.145,0.57,0.751,0.209,0.626,0.394,0.87,0.296,0.233,0.969,0.078,scissors
5.553152,-0.028,0.977,0.213,-0.031,0.992,0.124,0.32,-0.701,-0.638,0.599,-0.713,0.364,0.603,-0.795,0.055,0.816,-0.309,0.488,0.84,-0.434,0.325,0.941,0.043,0.336,0.948,0.237,0.211,0.835,0.114,0.539,0.731,0.379,0.568,0.42,0.867,0.268,0.099,0.992,0.074,scissors
5.57581,-0.021,0.981,0.194,-0.239,0.883,0.405,0.32,-0.701,-0.638,0.57,-0.729,0.378,0.668,-0.744,0.0,0.798,-0.334,0.502,0.914,-0.331,0.233,0.95,-0.001,0.313,0.9,0.342,0.27,0.852,0.082,0.517,0.674,0.455,0.582,0.446,0.86,0.247,0.035,0.987,0.156,scissors
5.597152,-0.007,0.982,0.187,-0.177,0.869,0.462,0.32,-0.701,-0.638,0.564,-0.732,0.381,0.713,-0.699,0.042,0.793,-0.338,0.506,0.943,-0.229,0.243,0.951,-0.002,0.31,0.878,0.351,0.324,0.853,0.078,0.515,0.647,0.445,0.62,0.447,0.859,0.248,0.027,0.974,0.227,scissors
5.621603,-0.015,0.976,0.219,-0.086,0.878,0.471,0.347,-0.704,-0.619,0.579,-0.728,0.366,0.706,-0.706,0.067,0.806,-0.327,0.494,0.937,-0.229,0.263,0.949,0.027,0.314,0.885,0.335,0.324,0.845,0.104,0.525,0.668,0.42,0.614,0.434,0.864,0.254,0.054,0.97,0.237,scissors
5.642519,-0.038,0.976,0.215,-0.086,0.878,0.471,0.333,-0.722,-0.607,0.585,-0.73,0.353,0.695,-0.715,0.078,0.812,-0.326,0.484,0.929,-0.267,0.257,0.95,0.049,0.31,0.896,0.314,0.314,0.846,0.122,0.519,0.693,0.404,0.597,0.424,0.87,0.251,0.085,0.972,0.217,scissors
5.663042,-0.048,0.976,0.211,-0.086,0.878,0.471,0.333,-0.722,-0.607,0.579,-0.737,0.35,0.692,-0.718,0.079,0.81,-0.338,0.479,0.924,-0.284,0.258,0.953,0.043,0.298,0.901,0.312,0.303,0.854,0.123,0.506,0.702,0.399,0.59,0.426,0.873,0.239,0.094,0.974,0.205,scissors
5.687538,-0.044,0.979,0.2,-0.137,0.894,0.426,0.341,-0.714,-0.612,0.567,-0.745,0.352,0.697,-0.712,0.085,0.805,-0.349,0.48,0.929,-0.265,0.258,0.958,0.031,0.284,0.891,0.317,0.325,0.861,0.122,0.494,0.688,0.401,0.605,0.429,0.874,0.228,0.098,0.969,0.225,scissors
5.709663,-0.041,0.98,0.196,-0.137,0.894,0.426,0.358,-0.719,-0.596,0.565,-0.749,0.346,0.716,-0.689,0.111,0.808,-0.352,0.471,0.933,-0.225,0.281,0.961,0.034,0.274,0.878,0.311,0.365,0.863,0.132,0.488,0.671,0.38,0.637,0.419,0.88,0.222,0.101,0.958,0.27,scissors
5.730832,-0.045,0.976,0.213,-0.137,0.894,0.426,0.37,-0.726,-0.58,0.577,-0.75,0.323,0.732,-0.669,0.132,0.819,-0.353,0.451,0.936,-0.197,0.293,0.962,0.064,0.267,0.87,0.302,0.389,0.862,0.156,0.482,0.66,0.37,0.654,0.402,0.89,0.215,0.105,0.949,0.296,scissors
5.753538,-0.088,0.967,0.238,-0.137,0.894,0.426,0.395,-0.691,-0.606,0.595,-0.75,0.287,0.724,-0.677,0.128,0.836,-0.352,0.421,0.936,-0.212,0.282,0.96,0.115,0.256,0.875,0.309,0.372,0.859,0.197,0.473,0.675,0.377,0.635,0.377,0.903,0.204,0.109,0.955,0.276,scissors
5.775801,-0.134,0.96,0.246,-0.101,0.894,0.436,0.395,-0.691,-0.606,0.595,-0.758,0.268,0.709,-0.698,0.106,0.842,-0.357,0.405,0.933,-0.243,0.266,0.96,0.142,0.24,0.886,0.312,0.344,0.856,0.23,0.463,0.692,0.387,0.61,0.358,0.914,0.192,0.104,0.962,0.253,scissors
5.796703,-0.143,0.962,0.234,-0.14,0.894,0.426,0.395,-0.691,-0.606,0.586,-0.769,0.255,0.709,-0.698,0.102,0.841,-0.374,0.392,0.935,-0.24,0.262,0.964,0.143,0.224,0.885,0.316,0.342,0.861,0.243,0.446,0.69,0.39,0.611,0.356,0.919,0.17,0.101,0.963,0.249,scissors
5.820324,-0.147,0.966,0.214,-0.111,0.892,0.438,0.421,-0.735,-0.531,0.566,-0.785,0.253,0.719,-0.688,0.097,0.83,-0.402,0.386,0.937,-0.236,0.256,0.974,0.117,0.195,0.876,0.325,0.355,0.88,0.227,0.418,0.675,0.4,0.62,0.366,0.92,0.141,0.09,0.962,0.259,scissors
5.842982,-0.147,0.967,0.207,-0.072,0.884,0.462,0.421,-0.735,-0.531,0.547,-0.799,0.249,0.733,-0.671,0.11,0.823,-0.419,0.383,0.94,-0.216,0.264,0.981,0.1,0.168,0.867,0.325,0.377,0.89,0.222,0.398,0.657,0.393,0.643,0.371,0.921,0.123,0.094,0.955,0.282,scissors
5.862719,-0.152,0.966,0.208,-0.072,0.884,0.462,0.444,-0.696,-0.564,0.547,-0.803,0.235,0.744,-0.654,0.135,0.828,-0.42,0.372,0.941,-0.194,0.279,0.98,0.126,0.153,0.861,0.311,0.404,0.89,0.244,0.386,0.649,0.374,0.663,0.359,0.926,0.117,0.102,0.945,0.311,scissors
5.886755,-0.195,0.958,0.211,-0.029,0.893,0.449,0.444,-0.696,-0.564,0.565,-0.801,0.2,0.74,-0.658,0.143,0.842,-0.415,0.345,0.938,-0.195,0.285,0.972,0.182,0.146,0.865,0.307,0.396,0.882,0.283,0.378,0.66,0.366,0.656,0.338,0.934,0.112,0.111,0.947,0.303,scissors
5.907568,-0.195,0.958,0.211,-0.086,0.896,0.436,0.471,-0.743,-0.475,0.568,-0.801,0.186,0.726,-0.675,0.127,0.844,-0.42,0.335,0.936,-0.221,0.272,0.971,0.195,0.14,0.876,0.31,0.369,0.879,0.298,0.371,0.676,0.375,0.634,0.332,0.938,0.101,0.109,0.955,0.276,scissors
5.934058,-0.206,0.955,0.214,-0.086,0.896,0.436,0.453,-0.769,-0.451,0.549,-0.812,0.198,0.723,-0.681,0.116,0.833,-0.435,0.341,0.937,-0.228,0.265,0.98,0.155,0.128,0.876,0.318,0.363,0.89,0.279,0.361,0.675,0.382,0.631,0.342,0.936,0.087,0.102,0.958,0.269,scissors
5.952116,-0.168,0.963,0.208,-0.089,0.887,0.453,0.457,-0.765,-0.454,0.526,-0.823,0.213,0.734,-0.667,0.126,0.82,-0.452,0.352,0.941,-0.201,0.272,0.988,0.114,0.108,0.866,0.317,0.387,0.902,0.255,0.348,0.659,0.376,0.651,0.356,0.931,0.078,0.097,0.951,0.294,scissors
5.97483,-0.155,0.968,0.199,-0.036,0.888,0.458,0.457,-0.765,-0.454,0.522,-0.827,0.209,0.743,-0.651,0.155,0.821,-0.457,0.342,0.939,-0.174,0.296,0.989,0.112,0.092,0.857,0.301,0.418,0.911,0.243,0.334,0.646,0.357,0.675,0.355,0.932,0.072,0.109,0.939,0.326,scissors
5.995609,-0.149,0.967,0.208,-0.003,0.894,0.447,0.457,-0.765,-0.454,0.549,-0.814,0.188,0.74,-0.652,0.165,0.839,-0.437,0.323,0.935,-0.175,0.308,0.982,0.159,0.098,0.861,0.293,0.417,0.901,0.271,0.34,0.653,0.352,0.67,0.331,0.94,0.087,0.121,0.937,0.327,scissors
6.02536,-0.169,0.959,0.227,-0.003,0.894,0.447,0.478,-0.797,-0.369,0.593,-0.788,0.166,0.722,-0.674,0.156,0.867,-0.396,0.301,0.931,-0.206,0.301,0.964,0.231,0.129,0.876,0.287,0.388,0.871,0.327,0.367,0.673,0.353,0.65,0.294,0.948,0.121,0.131,0.945,0.298,scissors
6.044834,-0.15,0.958,0.246,-0.003,0.894,0.447,0.465,-0.826,-0.319,0.595,-0.784,0.176,0.711,-0.688,0.148,0.87,-0.387,0.305,0.928,-0.23,0.294,0.963,0.231,0.137,0.883,0.288,0.37,0.866,0.33,0.376,0.686,0.353,0.636,0.295,0.946,0.133,0.139,0.95,0.278,scissors
6.067483,-0.15,0.958,0.246,-0.003,0.894,0.447,0.465,-0.826,-0.319,0.57,-0.798,0.197,0.707,-0.69,0.156,0.854,-0.41,0.322,0.924,-0.238,0.3,0.974,0.188,0.125,0.885,0.278,0.372,0.881,0.304,0.363,0.69,0.342,0.638,0.322,0.939,0.119,0.147,0.949,0.277,scissors
6.091476,-0.154,0.975,0.162,-0.087,0.909,0.408,0.441,-0.859,-0.261,0.53,-0.823,0.204,0.711,-0.682,0.174,0.829,-0.453,0.328,0.921,-0.229,0.315,0.988,0.131,0.081,0.883,0.266,0.386,0.91,0.259,0.323,0.689,0.327,0.647,0.349,0.934,0.075,0.158,0.943,0.294,scissors
6.112866,-0.177,0.97,0.167,-0.036,0.916,0.401,0.441,-0.859,-0.261,0.517,-0.835,0.188,0.713,-0.676,0.187,0.824,-0.47,0.315,0.92,-0.217,0.327,0.988,0.14,0.058,0.88,0.257,0.399,0.926,0.247,0.285,0.686,0.314,0.656,0.337,0.94,0.053,0.166,0.937,0.308,scissors
6.13374,-0.216,0.96,0.18,-0.026,0.915,0.402,0.441,-0.859,-0.261,0.53,-0.834,0.153,0.72,-0.666,0.195,0.839,-0.466,0.281,0.921,-0.203,0.332,0.982,0.182,0.047,0.875,0.254,0.411,0.898,0.324,0.297,0.678,0.31,0.666,0.303,0.952,0.041,0.163,0.933,0.321,scissors
6.157065,-0.251,0.94,0.231,-0.036,0.902,0.43,0.442,-0.872,-0.212,0.555,-0.824,0.109,0.726,-0.663,0.184,0.859,-0.451,0.241,0.925,-0.198,0.324,0.966,0.253,0.047,0.871,0.269,0.411,0.878,0.38,0.29,0.674,0.327,0.663,0.257,0.966,0.035,0.151,0.935,0.321,scissors
6.179008,-0.279,0.931,0.234,-0.036,0.902,0.43,0.361,-0.924,-0.127,0.569,-0.819,0.078,0.732,-0.661,0.166,0.868,-0.446,0.218,0.932,-0.202,0.302,0.955,0.295,0.044,0.87,0.285,0.401,0.867,0.411,0.281,0.671,0.348,0.654,0.234,0.972,0.025,0.133,0.943,0.306,scissors
6.20007,-0.29,0.93,0.227,-0.056,0.894,0.444,0.361,-0.924,-0.127,0.561,-0.825,0.069,0.736,-0.664,0.129,0.864,-0.456,0.211,0.94,-0.211,0.269,0.955,0.296,0.035,0.867,0.319,0.381,0.869,0.418,0.266,0.668,0.379,0.64,0.236,0.972,0.006,0.105,0.953,0.286,scissors
6.225282,-0.313,0.933,0.18,-0.099,0.879,0.467,0.342,-0.939,-0.011,0.512,-0.855,0.077,0.747,-0.658,0.097,0.835,-0.504,0.221,0.949,-0.21,0.235,0.969,0.247,-0.013,0.86,0.348,0.374,0.894,0.389,0.223,0.657,0.407,0.635,0.271,0.962,-0.037,0.076,0.958,0.275,scissors
6.249292,-0.316,0.94,0.13,-0.099,0.879,0.467,0.265,-0.964,-0.035,0.452,-0.888,0.088,0.753,-0.652,0.09,0.795,-0.561,0.233,0.952,-0.205,0.225,0.98,0.184,-0.071,0.853,0.361,0.377,0.927,0.335,0.171,0.648,0.419,0.637,0.315,0.945,-0.088,0.063,0.959,0.277,scissors
6.269989,-0.318,0.945,0.071,-0.099,0.879,0.467,0.235,-0.971,-0.043,0.397,-0.914,0.082,0.754,-0.651,0.089,0.759,-0.609,0.23,0.954,-0.198,0.225,0.982,0.136,-0.135,0.853,0.363,0.376,0.95,0.292,0.11,0.647,0.419,0.637,0.34,0.93,-0.14,0.063,0.958,0.28,scissors
6.297726,-0.326,0.942,0.084,-0.092,0.893,0.44,0.235,-0.971,-0.043,0.372,-0.927,0.051,0.737,-0.668,0.105,0.751,-0.628,0.205,0.946,-0.21,0.246,0.966,0.158,-0.202,0.864,0.34,0.373,0.946,0.319,0.055,0.669,0.4,0.626,0.331,0.93,-0.162,0.093,0.956,0.278,scissors
6.3135,-0.341,0.939,0.046,-0.092,0.893,0.44,0.17,-0.985,-0.027,0.375,-0.926,0.035,0.718,-0.683,0.132,0.756,-0.624,0.197,0.934,-0.23,0.273,0.956,0.195,-0.22,0.879,0.304,0.368,0.937,0.345,0.05,0.689,0.369,0.624,0.325,0.932,-0.159,0.13,0.954,0.27,scissors
6.334004,-0.341,0.939,0.046,-0.081,0.918,0.388,0.129,-0.989,0.067,0.387,-0.921,0.042,0.687,-0.713,0.141,0.756,-0.622,0.206,0.92,-0.269,0.284,0.964,0.197,-0.178,0.9,0.276,0.338,0.943,0.326,0.071,0.718,0.352,0.601,0.338,0.927,-0.163,0.156,0.958,0.238,scissors
6.358578,-0.36,0.932,0.038,-0.171,0.904,0.392,0.129,-0.989,0.067,0.38,-0.922,0.078,0.676,-0.728,0.119,0.747,-0.624,0.231,0.918,-0.298,0.263,0.979,0.154,-0.137,0.904,0.284,0.32,0.943,0.319,0.099,0.727,0.37,0.579,0.35,0.924,-0.155,0.147,0.966,0.213,scissors
6.3787,-0.344,0.938,0.05,-0.171,0.904,0.392,0.129,-0.989,0.067,0.381,-0.921,0.082,0.688,-0.717,0.107,0.754,-0.616,0.226,0.926,-0.28,0.253,0.978,0.153,-0.142,0.896,0.303,0.324,0.936,0.338,0.099,0.713,0.387,0.585,0.332,0.932,-0.144,0.132,0.965,0.225,scissors
6.39989,-0.349,0.935,0.067,-0.138,0.893,0.429,0.129,-0.989,0.067,0.404,-0.912,0.066,0.703,-0.703,0.113,0.778,-0.593,0.208,0.932,-0.253,0.258,0.967,0.213,-0.139,0.887,0.308,0.344,0.915,0.389,0.104,0.695,0.385,0.607,0.297,0.947,-0.122,0.124,0.96,0.25,scissors
6.424619,-0.374,0.922,0.101,-0.079,0.893,0.444,0.129,-0.989,0.067,0.447,-0.894,0.032,0.716,-0.689,0.117,0.805,-0.568,0.172,0.937,-0.235,0.259,0.954,0.28,-0.111,0.88,0.313,0.357,0.891,0.435,0.127,0.685,0.385,0.619,0.259,0.959,-0.11,0.113,0.959,0.261,scissors
6.447089,-0.389,0.914,0.118,-0.114,0.88,0.462,0.129,-0.989,0.067,0.47,-0.883,0.013,0.722,-0.685,0.095,0.822,-0.551,0.144,0.943,-0.235,0.235,0.943,0.318,-0.097,0.875,0.336,0.349,0.874,0.466,0.138,0.677,0.408,0.612,0.238,0.966,-0.101,0.092,0.964,0.25,scissors
6.467993,-0.402,0.909,0.112,-0.114,0.88,0.462,-0.146,-0.987,0.059,0.461,-0.887,0.023,0.73,-0.679,0.077,0.821,-0.552,0.147,0.948,-0.228,0.22,0.944,0.315,-0.101,0.87,0.351,0.346,0.868,0.477,0.141,0.667,0.423,0.613,0.246,0.965,-0.094,0.074,0.965,0.252,scissors
6.490608,-0.379,0.922,0.076,-0.111,0.866,0.488,-0.146,-0.987,0.059,0.439,-0.897,0.056,0.745,-0.661,0.089,0.805,-0.565,0.182,0.952,-0.203,0.229,0.959,0.266,-0.101,0.858,0.352,0.373,0.884,0.443,0.148,0.649,0.415,0.638,0.281,0.956,-0.087,0.069,0.958,0.278,scissors
6.511942,-0.343,0.938,0.058,-0.055,0.869,0.491,-0.146,-0.987,0.059,0.427,-0.9,0.089,0.762,-0.637,0.116,0.796,-0.564,0.221,0.953,-0.17,0.253,0.97,0.224,-0.09,0.845,0.34,0.412,0.898,0.409,0.162,0.63,0.394,0.669,0.311,0.948,-0.071,0.071,0.945,0.318,scissors
6.53358,-0.31,0.949,0.056,-0.055,0.869,0.491,-0.259,-0.965,0.038,0.435,-0.894,0.106,0.774,-0.616,0.144,0.797,-0.554,0.242,0.951,-0.138,0.278,0.973,0.216,-0.076,0.836,0.324,0.442,0.903,0.391,0.178,0.617,0.373,0.693,0.321,0.946,-0.057,0.081,0.932,0.353,scissors
6.556603,-0.294,0.949,0.111,0.037,0.883,0.469,-0.26,-0.964,0.056,0.471,-0.878,0.081,0.777,-0.606,0.17,0.818,-0.528,0.228,0.946,-0.118,0.302,0.964,0.261,-0.057,0.833,0.307,0.461,0.889,0.414,0.198,0.613,0.353,0.707,0.287,0.957,-0.041,0.094,0.923,0.374,scissors
6.578048,-0.318,0.934,0.161,0.037,0.883,0.469,-0.283,-0.957,0.057,0.509,-0.86,0.04,0.776,-0.605,0.18,0.843,-0.502,0.19,0.941,-0.118,0.316,0.945,0.323,-0.044,0.835,0.297,0.463,0.863,0.458,0.213,0.619,0.344,0.706,0.235,0.971,-0.034,0.105,0.92,0.378,scissors
6.599352,-0.346,0.915,0.209,0.027,0.887,0.461,-0.283,-0.957,0.057,0.534,-0.845,-0.001,0.769,-0.611,0.186,0.861,-0.485,0.155,0.938,-0.133,0.321,0.93,0.366,-0.037,0.84,0.288,0.459,0.843,0.491,0.22,0.626,0.337,0.704,0.195,0.98,-0.037,0.117,0.921,0.37,scissors
6.623423,-0.375,0.889,0.264,-0.003,0.898,0.441,-0.376,-0.924,0.074,0.554,-0.832,-0.032,0.761,-0.623,0.182,0.874,-0.47,0.124,0.935,-0.15,0.322,0.919,0.394,-0.023,0.848,0.286,0.447,0.825,0.515,0.232,0.634,0.336,0.696,0.156,0.987,-0.037,0.121,0.927,0.355,scissors
6.646263,-0.382,0.881,0.278,-0.003,0.898,0.441,-0.371,-0.928,0.03,0.582,-0.813,-0.029,0.76,-0.628,0.168,0.888,-0.443,0.125,0.939,-0.155,0.307,0.916,0.402,0.022,0.85,0.295,0.436,0.81,0.523,0.266,0.634,0.347,0.691,0.139,0.99,-0.012,0.106,0.933,0.344,scissors
6.666529,-0.349,0.885,0.309,-0.027,0.873,0.487,-0.371,-0.928,0.03,0.606,-0.795,-0.023,0.771,-0.621,0.143,0.902,-0.414,0.126,0.949,-0.143,0.282,0.91,0.411,0.052,0.84,0.326,0.435,0.79,0.538,0.295,0.617,0.379,0.69,0.12,0.993,0.015,0.079,0.935,0.346,scissors
6.689758,-0.34,0.863,0.374,-0.02,0.861,0.508,-0.371,-0.928,0.03,0.625,-0.78,-0.042,0.783,-0.605,0.144,0.917,-0.385,0.105,0.951,-0.12,0.284,0.888,0.458,0.05,0.825,0.336,0.455,0.746,0.59,0.31,0.605,0.38,0.7,0.08,0.996,0.046,0.075,0.927,0.368,scissors
6.711023,-0.323,0.877,0.356,0.039,0.874,0.483,-0.46,-0.888,0.018,0.631,-0.774,-0.054,0.781,-0.598,0.179,0.921,-0.381,0.085,0.94,-0.111,0.323,0.88,0.473,0.039,0.828,0.296,0.476,0.756,0.575,0.313,0.616,0.34,0.711,0.09,0.995,0.05,0.107,0.918,0.381,scissors
6.73307,-0.284,0.906,0.313,0.052,0.903,0.427,-0.46,-0.888,0.018,0.614,-0.789,-0.009,0.756,-0.622,0.204,0.905,-0.409,0.118,0.926,-0.144,0.348,0.919,0.392,0.053,0.849,0.262,0.459,0.813,0.488,0.318,0.641,0.309,0.703,0.161,0.986,0.04,0.143,0.922,0.36,scissors
6.758054,-0.251,0.937,0.244,0.0,0.923,0.386,-0.504,-0.863,-0.027,0.566,-0.822,0.064,0.735,-0.642,0.218,0.875,-0.459,0.155,0.916,-0.18,0.359,0.964,0.262,0.053,0.864,0.237,0.445,0.872,0.379,0.309,0.655,0.289,0.699,0.245,0.969,0.022,0.168,0.924,0.343,scissors
6.778182,-0.229,0.947,0.226,0.0,0.923,0.386,-0.504,-0.863,-0.027,0.533,-0.841,0.097,0.725,-0.654,0.217,0.855,-0.492,0.163,0.914,-0.19,0.359,0.98,0.195,0.035,0.871,0.233,0.434,0.904,0.319,0.284,0.661,0.288,0.693,0.285,0.958,-0.001,0.175,0.926,0.335,scissors
6.799683,-0.221,0.946,0.236,-0.013,0.921,0.39,-0.504,-0.863,-0.027,0.53,-0.845,0.079,0.714,-0.664,0.22,0.857,-0.496,0.14,0.911,-0.191,0.366,0.98,0.2,0.006,0.877,0.227,0.424,0.906,0.329,0.266,0.678,0.286,0.678,0.259,0.966,-0.008,0.187,0.924,0.334,scissors
6.825074,-0.267,0.903,0.337,0.003,0.934,0.358,-0.504,-0.863,-0.027,0.586,-0.81,0.011,0.703,-0.669,0.242,0.897,-0.433,0.089,0.9,-0.19,0.392,0.942,0.336,0.022,0.884,0.2,0.422,0.841,0.456,0.291,0.692,0.266,0.671,0.153,0.988,0.023,0.21,0.915,0.343,scissors
6.846395,-0.309,0.866,0.394,0.003,0.934,0.358,-0.517,-0.851,-0.094,0.645,-0.763,-0.052,0.692,-0.674,0.259,0.929,-0.365,0.054,0.891,-0.182,0.417,0.892,0.448,0.054,0.888,0.18,0.424,0.774,0.549,0.316,0.696,0.244,0.675,0.055,0.997,0.048,0.23,0.905,0.358,scissors
6.867102,-0.338,0.836,0.433,0.003,0.934,0.358,-0.516,-0.85,-0.112,0.684,-0.723,-0.096,0.686,-0.683,0.251,0.944,-0.328,0.026,0.89,-0.199,0.41,0.856,0.509,0.092,0.892,0.189,0.412,0.731,0.594,0.335,0.703,0.252,0.665,0.01,0.998,0.065,0.225,0.915,0.336,scissors
6.890516,-0.347,0.838,0.421,-0.049,0.932,0.359,-0.516,-0.85,-0.112,0.696,-0.712,-0.094,0.684,-0.7,0.207,0.949,-0.314,0.039,0.899,-0.236,0.368,0.852,0.513,0.108,0.896,0.22,0.385,0.753,0.569,0.331,0.707,0.287,0.646,0.008,0.997,0.08,0.201,0.934,0.296,scissors
6.911598,-0.322,0.851,0.416,-0.049,0.932,0.359,-0.525,-0.835,-0.164,0.684,-0.727,-0.055,0.688,-0.704,0.176,0.939,-0.332,0.087,0.907,-0.262,0.331,0.881,0.461,0.112,0.896,0.245,0.369,0.739,0.566,0.364,0.704,0.311,0.638,0.06,0.995,0.075,0.179,0.947,0.266,scissors
6.933601,-0.269,0.882,0.386,-0.049,0.932,0.359,-0.552,-0.818,-0.163,0.651,-0.758,-0.018,0.686,-0.716,0.131,0.916,-0.382,0.122,0.915,-0.288,0.282,0.922,0.378,0.089,0.899,0.273,0.343,0.828,0.458,0.324,0.707,0.345,0.617,0.131,0.991,0.029,0.148,0.962,0.227,scissors
6.957915,-0.228,0.916,0.331,-0.223,0.884,0.411,-0.516,-0.829,-0.215,0.595,-0.803,0.01,0.673,-0.736,0.076,0.884,-0.444,0.148,0.923,-0.311,0.227,0.958,0.284,0.028,0.902,0.306,0.303,0.885,0.388,0.256,0.714,0.393,0.58,0.18,0.984,-0.018,0.112,0.976,0.188,scissors
7.436756,-0.26,0.916,0.307,-0.223,0.884,0.411,-0.525,-0.816,-0.24,0.563,-0.827,0.009,0.677,-0.734,0.06,0.872,-0.468,0.14,0.933,-0.287,0.218,0.958,0.286,-0.016,0.899,0.313,0.307,0.88,0.421,0.221,0.705,0.395,0.588,0.182,0.983,-0.034,0.105,0.973,0.206,scissors
7.436908,-0.359,0.904,0.233,-0.223,0.884,0.411,-0.536,-0.798,-0.275,0.557,-0.831,-0.006,0.686,-0.724,0.076,0.876,-0.466,0.123,0.933,-0.273,0.235,0.939,0.342,-0.031,0.895,0.304,0.328,0.832,0.505,0.23,0.702,0.388,0.597,0.166,0.986,-0.019,0.117,0.968,0.223,scissors
7.437122,-0.378,0.903,0.205,-0.139,0.896,0.422,-0.501,-0.78,-0.375,0.565,-0.825,-0.012,0.698,-0.71,0.092,0.881,-0.455,0.131,0.929,-0.273,0.25,0.925,0.379,-0.022,0.892,0.297,0.34,0.828,0.513,0.227,0.703,0.378,0.602,0.166,0.986,-0.015,0.132,0.965,0.229,scissors
7.437267,-0.358,0.906,0.225,-0.128,0.904,0.408,-0.501,-0.78,-0.375,0.535,-0.845,-0.01,0.699,-0.708,0.101,0.859,-0.491,0.145,0.924,-0.287,0.254,0.935,0.348,-0.064,0.896,0.287,0.339,0.859,0.475,0.19,0.714,0.364,0.598,0.205,0.977,-0.05,0.148,0.964,0.223,scissors
7.437397,-0.366,0.924,0.112,-0.128,0.904,0.408,-0.513,-0.785,-0.347,0.462,-0.887,0.028,0.689,-0.714,0.124,0.812,-0.55,0.196,0.912,-0.309,0.27,0.958,0.265,-0.112,0.906,0.261,0.332,0.911,0.386,0.144,0.728,0.335,0.599,0.291,0.952,-0.091,0.178,0.96,0.215,scissors
7.437522,-0.332,0.942,0.042,-0.1,0.934,0.344,-0.46,-0.767,-0.447,0.383,-0.919,0.094,0.671,-0.723,0.164,0.749,-0.61,0.259,0.901,-0.304,0.31,0.984,0.113,-0.135,0.916,0.219,0.336,0.961,0.254,0.106,0.732,0.285,0.618,0.367,0.922,-0.125,0.205,0.951,0.232,scissors
7.437656,-0.332,0.942,0.042,-0.058,0.938,0.341,-0.445,-0.762,-0.471,0.387,-0.915,0.116,0.674,-0.712,0.198,0.752,-0.601,0.27,0.9,-0.265,0.347,0.991,0.079,-0.105,0.909,0.197,0.368,0.95,0.271,0.153,0.718,0.266,0.643,0.359,0.927,-0.107,0.211,0.937,0.278,scissors
7.437782,-0.3,0.941,0.159,-0.058,0.938,0.341,-0.445,-0.762,-0.471,0.472,-0.875,0.103,0.7,-0.68,0.22,0.815,-0.52,0.255,0.907,-0.198,0.371,0.983,0.183,-0.025,0.885,0.2,0.42,0.909,0.351,0.224,0.687,0.274,0.673,0.289,0.957,-0.031,0.197,0.92,0.338,scissors
7.437904,-0.246,0.93,0.273,0.035,0.911,0.41,-0.445,-0.762,-0.471,0.595,-0.801,0.065,0.727,-0.653,0.212,0.888,-0.405,0.217,0.919,-0.157,0.361,0.938,0.34,0.066,0.867,0.222,0.446,0.834,0.459,0.305,0.662,0.306,0.684,0.199,0.978,0.066,0.17,0.917,0.361,scissors
7.438034,-0.227,0.93,0.288,0.003,0.902,0.432,-0.445,-0.762,-0.471,0.682,-0.731,0.032,0.734,-0.653,0.187,0.939,-0.299,0.17,0.926,-0.17,0.337,0.87,0.473,0.139,0.869,0.246,0.429,0.758,0.538,0.368,0.663,0.329,0.672,0.125,0.981,0.151,0.155,0.929,0.335,scissors
7.438155,-0.227,0.93,0.288,-0.058,0.902,0.427,-0.341,-0.76,-0.553,0.711,-0.701,0.051,0.727,-0.665,0.171,0.951,-0.251,0.181,0.925,-0.207,0.319,0.847,0.499,0.183,0.88,0.253,0.403,0.72,0.561,0.409,0.683,0.326,0.654,0.118,0.971,0.209,0.162,0.939,0.304,scissors
7.438276,-0.152,0.954,0.259,-0.058,0.902,0.427,-0.341,-0.76,-0.553,0.665,-0.737,0.12,0.714,-0.672,0.195,0.92,-0.301,0.252,0.915,-0.22,0.339,0.91,0.375,0.174,0.888,0.223,0.403,0.783,0.456,0.423,0.692,0.273,0.668,0.216,0.957,0.193,0.183,0.935,0.302,scissors
7.438397,-0.15,0.974,0.169,-0.012,0.936,0.353,-0.341,-0.76,-0.553,0.596,-0.782,0.184,0.699,-0.68,0.221,0.866,-0.38,0.324,0.901,-0.234,0.365,0.968,0.208,0.143,0.898,0.187,0.399,0.866,0.308,0.393,0.702,0.228,0.674,0.326,0.935,0.142,0.211,0.929,0.303,scissors
7.438517,-0.118,0.983,0.138,-0.015,0.946,0.323,-0.341,-0.76,-0.553,0.547,-0.802,0.241,0.692,-0.681,0.239,0.829,-0.415,0.375,0.893,-0.24,0.38,0.986,0.101,0.133,0.9,0.173,0.4,0.889,0.238,0.392,0.709,0.232,0.667,0.376,0.918,0.129,0.229,0.923,0.308,scissors
7.438635,-0.103,0.986,0.129,-0.014,0.943,0.332,-0.201,-0.75,-0.63,0.543,-0.798,0.261,0.703,-0.664,0.255,0.824,-0.406,0.395,0.894,-0.202,0.4,0.985,0.096,0.143,0.89,0.169,0.424,0.887,0.236,0.397,0.697,0.227,0.68,0.378,0.916,0.137,0.228,0.91,0.346,scissors
7.43876,-0.125,0.978,0.167,-0.014,0.943,0.332,-0.201,-0.75,-0.63,0.574,-0.785,0.233,0.712,-0.651,0.264,0.844,-0.386,0.372,0.895,-0.174,0.41,0.977,0.148,0.155,0.882,0.175,0.438,0.886,0.247,0.393,0.687,0.229,0.69,0.347,0.927,0.141,0.22,0.904,0.366,scissors
7.438907,-0.134,0.963,0.233,0.055,0.929,0.366,-0.201,-0.75,-0.63,0.623,-0.764,0.169,0.709,-0.662,0.243,0.879,-0.359,0.314,0.9,-0.191,0.393,0.957,0.241,0.16,0.888,0.194,0.417,0.867,0.305,0.393,0.698,0.25,0.671,0.285,0.949,0.137,0.213,0.917,0.337,scissors
7.439035,-0.168,0.948,0.269,-0.099,0.927,0.363,-0.093,-0.759,-0.645,0.654,-0.75,0.097,0.689,-0.699,0.193,0.909,-0.339,0.244,0.905,-0.248,0.345,0.93,0.338,0.146,0.907,0.218,0.36,0.828,0.409,0.384,0.729,0.289,0.621,0.21,0.969,0.129,0.201,0.941,0.271,scissors
7.43916,-0.222,0.931,0.29,-0.099,0.927,0.363,-0.081,-0.75,-0.657,0.651,-0.757,0.058,0.678,-0.716,0.165,0.917,-0.343,0.205,0.906,-0.275,0.321,0.91,0.394,0.132,0.915,0.23,0.331,0.786,0.49,0.377,0.742,0.308,0.595,0.166,0.979,0.115,0.192,0.951,0.244,scissors
7.439281,-0.347,0.896,0.277,-0.121,0.92,0.373,-0.035,-0.737,-0.674,0.638,-0.769,0.028,0.68,-0.717,0.152,0.913,-0.369,0.176,0.91,-0.28,0.306,0.911,0.397,0.11,0.914,0.246,0.323,0.794,0.495,0.352,0.744,0.318,0.588,0.156,0.985,0.079,0.18,0.956,0.232,scissors
7.439403,-0.367,0.885,0.287,-0.127,0.908,0.398,-0.035,-0.737,-0.674,0.62,-0.785,0.013,0.692,-0.712,0.123,0.905,-0.394,0.163,0.921,-0.272,0.279,0.917,0.387,0.095,0.908,0.277,0.316,0.801,0.495,0.338,0.729,0.349,0.588,0.154,0.987,0.048,0.149,0.962,0.227,scissors
7.439587,-0.37,0.881,0.294,-0.128,0.894,0.43,-0.035,-0.737,-0.674,0.615,-0.788,-0.001,0.701,-0.706,0.1,0.903,-0.4,0.156,0.93,-0.267,0.254,0.908,0.41,0.085,0.899,0.305,0.313,0.797,0.507,0.328,0.717,0.373,0.589,0.153,0.987,0.039,0.121,0.969,0.216,scissors
7.455399,-0.376,0.894,0.243,-0.128,0.894,0.43,-0.035,-0.737,-0.674,0.587,-0.809,0.01,0.694,-0.717,0.068,0.885,-0.431,0.177,0.932,-0.285,0.226,0.923,0.379,0.063,0.904,0.319,0.284,0.825,0.472,0.311,0.727,0.388,0.566,0.197,0.98,0.018,0.108,0.977,0.184,scissors
7.479473,-0.319,0.929,0.186,-0.237,0.871,0.431,0.047,-0.746,-0.664,0.536,-0.842,0.068,0.68,-0.732,0.033,0.844,-0.486,0.228,0.927,-0.323,0.192,0.966,0.254,0.047,0.908,0.338,0.246,0.887,0.359,0.289,0.729,0.411,0.547,0.28,0.96,-0.019,0.088,0.986,0.143,scissors
7.498479,-0.319,0.929,0.186,-0.237,0.871,0.431,0.047,-0.746,-0.664,0.493,-0.863,0.112,0.691,-0.723,0.018,0.817,-0.514,0.262,0.937,-0.305,0.173,0.986,0.165,0.026,0.897,0.36,0.255,0.911,0.31,0.273,0.712,0.436,0.551,0.314,0.949,-0.029,0.067,0.985,0.162,scissors
7.520069,-0.328,0.924,0.196,-0.227,0.859,0.459,0.047,-0.746,-0.664,0.476,-0.873,0.109,0.735,-0.673,0.075,0.817,-0.518,0.252,0.949,-0.211,0.233,0.986,0.169,-0.004,0.873,0.338,0.351,0.903,0.34,0.264,0.666,0.397,0.631,0.294,0.955,-0.029,0.079,0.961,0.266,scissors
7.544448,-0.352,0.888,0.295,0.061,0.894,0.445,0.047,-0.746,-0.664,0.526,-0.85,0.023,0.75,-0.643,0.155,0.856,-0.488,0.171,0.939,-0.151,0.31,0.955,0.298,-0.014,0.865,0.288,0.411,0.867,0.425,0.261,0.657,0.337,0.674,0.211,0.977,-0.028,0.124,0.933,0.337,scissors
7.566715,-0.386,0.857,0.342,0.017,0.921,0.389,0.047,-0.746,-0.664,0.594,-0.803,-0.051,0.732,-0.653,0.197,0.9,-0.425,0.099,0.921,-0.158,0.355,0.903,0.429,0.022,0.878,0.238,0.415,0.79,0.537,0.297,0.678,0.295,0.673,0.113,0.994,0.006,0.166,0.925,0.341,scissors
7.587044,-0.398,0.824,0.403,0.017,0.921,0.389,0.153,-0.714,-0.683,0.649,-0.756,-0.086,0.717,-0.662,0.221,0.931,-0.36,0.059,0.907,-0.176,0.384,0.862,0.502,0.076,0.886,0.206,0.416,0.73,0.595,0.336,0.686,0.267,0.677,0.049,0.998,0.041,0.194,0.922,0.336,scissors
7.611523,-0.375,0.827,0.419,0.01,0.938,0.346,0.182,-0.732,-0.656,0.678,-0.73,-0.091,0.703,-0.678,0.216,0.941,-0.334,0.051,0.906,-0.201,0.372,0.849,0.516,0.115,0.893,0.206,0.401,0.723,0.591,0.358,0.692,0.275,0.667,0.036,0.998,0.057,0.187,0.932,0.309,scissors
7.633283,-0.364,0.838,0.407,0.01,0.938,0.346,0.198,-0.731,-0.653,0.682,-0.727,-0.08,0.698,-0.693,0.179,0.942,-0.331,0.059,0.912,-0.233,0.337,0.858,0.496,0.13,0.901,0.235,0.366,0.731,0.575,0.368,0.699,0.311,0.644,0.043,0.997,0.063,0.163,0.949,0.271,scissors
7.653938,-0.356,0.835,0.419,-0.123,0.912,0.392,0.198,-0.731,-0.653,0.684,-0.727,-0.064,0.701,-0.701,0.133,0.943,-0.324,0.071,0.925,-0.234,0.299,0.865,0.481,0.143,0.896,0.274,0.349,0.73,0.568,0.381,0.692,0.349,0.632,0.047,0.996,0.078,0.127,0.959,0.254,scissors
7.67813,-0.35,0.828,0.438,-0.123,0.912,0.392,0.24,-0.735,-0.634,0.706,-0.706,-0.061,0.716,-0.691,0.101,0.955,-0.289,0.068,0.939,-0.201,0.279,0.842,0.511,0.171,0.882,0.307,0.358,0.689,0.599,0.409,0.667,0.389,0.635,0.026,0.993,0.114,0.089,0.96,0.267,scissors
7.698231,-0.334,0.83,0.447,-0.123,0.912,0.392,0.24,-0.735,-0.634,0.727,-0.684,-0.062,0.729,-0.68,0.077,0.963,-0.263,0.064,0.944,-0.202,0.26,0.819,0.539,0.196,0.877,0.332,0.347,0.665,0.611,0.43,0.66,0.409,0.631,0.015,0.99,0.139,0.064,0.966,0.249,scissors
7.719894,-0.319,0.837,0.444,-0.108,0.872,0.478,0.24,-0.735,-0.634,0.726,-0.686,-0.044,0.726,-0.686,0.048,0.961,-0.262,0.083,0.946,-0.228,0.228,0.829,0.522,0.202,0.877,0.352,0.328,0.657,0.608,0.446,0.659,0.442,0.609,0.032,0.988,0.149,0.049,0.974,0.219,scissors
7.743405,-0.317,0.846,0.428,-0.173,0.864,0.473,0.257,-0.767,-0.588,0.714,-0.7,-0.017,0.743,-0.666,0.068,0.955,-0.275,0.112,0.95,-0.196,0.245,0.846,0.492,0.207,0.867,0.347,0.357,0.662,0.592,0.46,0.635,0.454,0.625,0.055,0.986,0.154,0.039,0.965,0.26,scissors
7.765135,-0.317,0.852,0.416,-0.173,0.864,0.473,0.257,-0.738,-0.624,0.708,-0.707,-0.011,0.769,-0.631,0.103,0.951,-0.282,0.125,0.946,-0.13,0.296,0.85,0.485,0.207,0.854,0.319,0.41,0.67,0.579,0.465,0.605,0.453,0.655,0.067,0.986,0.154,0.035,0.949,0.313,scissors
7.787406,-0.311,0.853,0.419,-0.173,0.864,0.473,0.25,-0.714,-0.654,0.712,-0.702,-0.01,0.787,-0.604,0.126,0.951,-0.279,0.132,0.938,-0.101,0.332,0.855,0.473,0.214,0.845,0.31,0.436,0.707,0.539,0.458,0.587,0.421,0.692,0.069,0.985,0.155,0.028,0.935,0.354,scissors
7.813683,-0.286,0.843,0.456,0.093,0.871,0.482,0.25,-0.714,-0.654,0.725,-0.689,0.004,0.834,-0.519,0.185,0.956,-0.257,0.143,0.919,0.019,0.394,0.849,0.471,0.241,0.781,0.279,0.558,0.681,0.55,0.483,0.458,0.343,0.82,0.06,0.982,0.18,0.0,0.887,0.462,scissors
7.83344,-0.277,0.835,0.475,0.361,0.79,0.496,0.25,-0.714,-0.654,0.737,-0.676,-0.002,0.89,-0.365,0.274,0.961,-0.241,0.137,0.851,0.207,0.483,0.839,0.484,0.25,0.686,0.243,0.686,0.669,0.558,0.491,0.307,0.241,0.921,0.043,0.98,0.192,-0.023,0.772,0.636,scissors
7.852637,-0.283,0.826,0.488,0.669,0.588,0.455,0.25,-0.714,-0.654,0.752,-0.659,-0.031,0.931,-0.096,0.353,0.968,-0.223,0.116,0.674,0.491,0.552,0.811,0.528,0.251,0.49,0.153,0.858,0.632,0.596,0.494,0.085,0.113,0.99,0.011,0.981,0.196,-0.094,0.53,0.843,scissors
7.876926,-0.316,0.81,0.493,0.754,-0.656,-0.033,0.25,-0.714,-0.654,0.765,-0.64,-0.072,0.642,0.696,0.321,0.976,-0.206,0.075,0.0,0.902,0.431,0.78,0.575,0.249,-0.206,-0.0,0.979,0.605,0.631,0.486,-0.588,-0.126,0.799,-0.032,0.981,0.189,-0.373,-0.279,0.885,scissors
7.899381,-0.354,0.8,0.485,0.754,-0.656,-0.033,0.24,-0.739,-0.629,0.768,-0.634,-0.091,-0.237,0.95,-0.204,0.977,-0.207,0.056,-0.681,0.711,-0.178,0.773,0.585,0.246,-0.997,-0.036,0.071,0.605,0.639,0.475,-0.991,-0.096,-0.096,-0.046,0.983,0.175,-0.559,-0.824,0.088,scissors
7.918454,-0.367,0.791,0.49,0.178,-0.971,-0.159,0.24,-0.739,-0.629,0.763,-0.639,-0.099,-0.432,0.827,-0.36,0.976,-0.213,0.046,-0.772,0.491,-0.404,0.778,0.582,0.236,-0.975,0.018,-0.221,0.601,0.65,0.465,-0.916,-0.052,-0.398,-0.055,0.985,0.165,-0.522,-0.842,-0.135,scissors
7.943202,-0.358,0.76,0.542,0.109,-0.984,-0.139,0.24,-0.739,-0.629,0.764,-0.634,-0.122,-0.471,0.809,-0.35,0.978,-0.209,0.022,-0.784,0.456,-0.421,0.766,0.605,0.218,-0.968,0.012,-0.251,0.582,0.676,0.453,-0.89,-0.069,-0.451,-0.086,0.984,0.157,-0.482,-0.861,-0.161,scissors
7.963934,-0.369,0.745,0.556,0.109,-0.984,-0.139,0.234,-0.729,-0.643,0.771,-0.618,-0.154,-0.506,0.805,-0.309,0.981,-0.196,-0.01,-0.807,0.431,-0.404,0.738,0.643,0.205,-0.967,-0.046,-0.251,0.552,0.707,0.441,-0.866,-0.128,-0.483,-0.121,0.981,0.154,-0.425,-0.887,-0.181,scissors
7.987545,-0.376,0.742,0.555,0.109,-0.984,-0.139,0.217,-0.75,-0.625,0.774,-0.604,-0.189,-0.568,0.77,-0.291,0.981,-0.187,-0.044,-0.842,0.366,-0.396,0.713,0.675,0.188,-0.946,-0.096,-0.31,0.544,0.725,0.422,-0.825,-0.168,-0.54,-0.147,0.979,0.139,-0.373,-0.897,-0.237,scissors
8.011675,-0.398,0.761,0.513,0.029,-0.956,-0.294,0.182,-0.761,-0.623,0.762,-0.614,-0.204,-0.634,0.706,-0.317,0.977,-0.205,-0.056,-0.865,0.268,-0.424,0.717,0.678,0.161,-0.912,-0.113,-0.394,0.561,0.726,0.397,-0.77,-0.165,-0.617,-0.14,0.984,0.114,-0.339,-0.884,-0.322,scissors
8.032831,-0.4,0.773,0.492,-0.049,-0.947,-0.319,0.182,-0.761,-0.623,0.737,-0.65,-0.187,-0.67,0.665,-0.33,0.969,-0.246,-0.035,-0.875,0.2,-0.44,0.754,0.644,0.129,-0.886,-0.127,-0.446,0.6,0.706,0.376,-0.729,-0.167,-0.663,-0.099,0.991,0.093,-0.312,-0.872,-0.378,scissors
8.053917,-0.398,0.796,0.456,-0.049,-0.947,-0.319,0.135,-0.784,-0.606,0.701,-0.698,-0.145,-0.69,0.654,-0.311,0.956,-0.295,0.011,-0.89,0.178,-0.42,0.803,0.588,0.102,-0.879,-0.158,-0.451,0.649,0.67,0.359,-0.717,-0.199,-0.668,-0.037,0.997,0.073,-0.283,-0.881,-0.378,scissors
8.077702,-0.386,0.843,0.375,-0.049,-0.947,-0.319,0.095,-0.746,-0.659,0.662,-0.743,-0.101,-0.695,0.662,-0.279,0.934,-0.352,0.057,-0.899,0.191,-0.394,0.857,0.509,0.075,-0.885,-0.181,-0.428,0.721,0.608,0.332,-0.72,-0.23,-0.654,0.034,0.999,0.039,-0.263,-0.896,-0.358,scissors
8.098252,-0.378,0.862,0.337,-0.049,-0.947,-0.319,0.095,-0.746,-0.659,0.632,-0.771,-0.079,-0.694,0.666,-0.274,0.916,-0.393,0.081,-0.901,0.198,-0.387,0.886,0.462,0.052,-0.887,-0.181,-0.424,0.772,0.557,0.306,-0.723,-0.228,-0.652,0.079,0.997,0.009,-0.259,-0.899,-0.353,scissors
8.120165,-0.38,0.874,0.304,0.011,-0.931,-0.364,0.095,-0.746,-0.659,0.611,-0.788,-0.069,-0.699,0.661,-0.275,0.906,-0.413,0.094,-0.9,0.198,-0.388,0.896,0.444,0.031,-0.884,-0.181,-0.431,0.786,0.546,0.291,-0.719,-0.223,-0.658,0.099,0.995,-0.001,-0.258,-0.898,-0.356,scissors
8.144805,-0.383,0.876,0.293,-0.007,-0.928,-0.373,0.01,-0.776,-0.631,0.602,-0.796,-0.061,-0.703,0.659,-0.267,0.902,-0.419,0.1,-0.904,0.2,-0.378,0.896,0.444,0.021,-0.884,-0.191,-0.426,0.784,0.552,0.282,-0.718,-0.232,-0.656,0.105,0.995,-0.002,-0.25,-0.904,-0.347,scissors
8.166533,-0.387,0.877,0.285,-0.007,-0.928,-0.373,0.01,-0.776,-0.631,0.598,-0.799,-0.061,-0.705,0.663,-0.251,0.901,-0.422,0.1,-0.909,0.204,-0.363,0.897,0.442,0.01,-0.884,-0.207,-0.418,0.79,0.549,0.272,-0.715,-0.249,-0.653,0.109,0.994,-0.004,-0.235,-0.911,-0.339,scissors
8.187891,-0.378,0.882,0.281,0.023,-0.919,-0.393,0.01,-0.776,-0.631,0.594,-0.803,-0.057,-0.709,0.662,-0.241,0.898,-0.427,0.103,-0.913,0.202,-0.354,0.902,0.431,0.005,-0.882,-0.216,-0.418,0.801,0.537,0.265,-0.712,-0.26,-0.652,0.119,0.993,-0.012,-0.226,-0.913,-0.339,scissors
8.210921,-0.37,0.893,0.254,0.016,-0.918,-0.396,-0.056,-0.75,-0.66,0.581,-0.813,-0.042,-0.713,0.658,-0.241,0.889,-0.442,0.119,-0.915,0.197,-0.353,0.912,0.411,-0.004,-0.881,-0.217,-0.421,0.816,0.518,0.257,-0.708,-0.258,-0.657,0.143,0.99,-0.02,-0.223,-0.912,-0.343,scissors
8.232567,-0.358,0.904,0.235,0.003,-0.92,-0.393,-0.056,-0.75,-0.66,0.566,-0.825,-0.018,-0.718,0.653,-0.242,0.877,-0.458,0.144,-0.914,0.191,-0.357,0.925,0.379,-0.01,-0.878,-0.215,-0.427,0.839,0.484,0.248,-0.706,-0.258,-0.66,0.175,0.984,-0.023,-0.222,-0.91,-0.351,scissors
8.253747,-0.341,0.916,0.211,-0.003,-0.919,-0.395,-0.056,-0.75,-0.66,0.55,-0.835,0.01,-0.717,0.651,-0.248,0.865,-0.47,0.173,-0.913,0.186,-0.362,0.94,0.34,-0.012,-0.877,-0.213,-0.431,0.86,0.449,0.242,-0.703,-0.254,-0.664,0.208,0.978,-0.022,-0.225,-0.907,-0.355,scissors
8.278444,-0.311,0.934,0.174,-0.003,-0.919,-0.395,-0.177,-0.731,-0.66,0.531,-0.846,0.044,-0.716,0.65,-0.255,0.85,-0.486,0.203,-0.911,0.188,-0.367,0.957,0.289,-0.016,-0.878,-0.206,-0.432,0.884,0.402,0.238,-0.707,-0.247,-0.663,0.246,0.969,-0.028,-0.23,-0.906,-0.354,scissors
8.299086,-0.295,0.942,0.162,-0.015,-0.927,-0.375,-0.177,-0.731,-0.66,0.518,-0.853,0.061,-0.713,0.651,-0.259,0.841,-0.494,0.22,-0.908,0.187,-0.374,0.963,0.27,-0.02,-0.879,-0.198,-0.434,0.893,0.385,0.232,-0.707,-0.239,-0.666,0.267,0.963,-0.029,-0.237,-0.904,-0.357,scissors
8.320948,-0.304,0.942,0.141,-0.015,-0.927,-0.375,-0.199,-0.734,-0.65,0.5,-0.863,0.075,-0.712,0.65,-0.266,0.829,-0.509,0.233,-0.908,0.183,-0.377,0.97,0.242,-0.033,-0.877,-0.195,-0.439,0.905,0.363,0.223,-0.706,-0.235,-0.668,0.289,0.957,-0.039,-0.239,-0.902,-0.361,scissors
8.345067,-0.298,0.947,0.117,-0.015,-0.927,-0.375,-0.306,-0.776,-0.551,0.477,-0.873,0.102,-0.711,0.652,-0.263,0.812,-0.525,0.254,-0.908,0.189,-0.374,0.979,0.202,-0.042,-0.879,-0.198,-0.434,0.918,0.333,0.214,-0.708,-0.238,-0.665,0.318,0.947,-0.04,-0.236,-0.904,-0.356,scissors
8.367283,-0.288,0.952,0.107,-0.015,-0.927,-0.375,-0.316,-0.722,-0.616,0.467,-0.875,0.124,-0.708,0.661,-0.249,0.804,-0.528,0.274,-0.91,0.197,-0.364,0.984,0.172,-0.036,-0.884,-0.206,-0.42,0.931,0.295,0.217,-0.713,-0.25,-0.655,0.342,0.939,-0.034,-0.231,-0.911,-0.343,scissors
8.38855,-0.243,0.964,0.106,-0.015,-0.927,-0.375,-0.316,-0.722,-0.616,0.476,-0.868,0.144,-0.708,0.663,-0.244,0.806,-0.518,0.287,-0.912,0.203,-0.358,0.987,0.161,-0.017,-0.884,-0.211,-0.417,0.932,0.279,0.232,-0.716,-0.254,-0.65,0.353,0.935,-0.016,-0.228,-0.913,-0.339,scissors
8.415766,-0.219,0.969,0.11,0.006,-0.924,-0.384,-0.316,-0.722,-0.616,0.489,-0.856,0.167,-0.709,0.66,-0.248,0.811,-0.503,0.298,-0.911,0.202,-0.359,0.988,0.156,0.017,-0.885,-0.206,-0.418,0.928,0.269,0.259,-0.716,-0.248,-0.653,0.365,0.931,0.012,-0.232,-0.911,-0.341,scissors
8.433013,-0.199,0.975,0.104,0.006,-0.924,-0.384,-0.402,-0.761,-0.509,0.486,-0.854,0.183,-0.71,0.658,-0.249,0.81,-0.5,0.306,-0.912,0.198,-0.359,0.989,0.149,0.02,-0.882,-0.207,-0.424,0.928,0.26,0.266,-0.713,-0.25,-0.655,0.378,0.925,0.027,-0.23,-0.909,-0.347,scissors
8.45438,-0.198,0.977,0.078,-0.003,-0.921,-0.391,-0.402,-0.761,-0.509,0.477,-0.855,0.203,-0.717,0.655,-0.239,0.804,-0.504,0.316,-0.917,0.193,-0.349,0.992,0.126,0.021,-0.88,-0.218,-0.423,0.935,0.233,0.267,-0.707,-0.261,-0.658,0.4,0.916,0.028,-0.217,-0.912,-0.347,scissors
8.479739,-0.173,0.982,0.076,0.0,-0.904,-0.428,-0.402,-0.761,-0.509,0.458,-0.861,0.223,-0.729,0.644,-0.231,0.786,-0.521,0.334,-0.924,0.175,-0.34,0.997,0.076,0.012,-0.871,-0.235,-0.432,0.948,0.18,0.261,-0.693,-0.271,-0.668,0.428,0.903,0.022,-0.2,-0.912,-0.359,scissors
8.500526,-0.158,0.984,0.076,0.0,-0.904,-0.428,-0.484,-0.757,-0.439,0.452,-0.858,0.246,-0.742,0.635,-0.215,0.78,-0.51,0.364,-0.934,0.164,-0.318,0.998,0.055,0.026,-0.861,-0.257,-0.44,0.942,0.177,0.286,-0.682,-0.289,-0.672,0.439,0.897,0.048,-0.172,-0.918,-0.358,scissors
8.521796,-0.148,0.987,0.069,0.0,-0.904,-0.428,-0.484,-0.757,-0.439,0.467,-0.842,0.271,-0.757,0.627,-0.183,0.781,-0.484,0.394,-0.946,0.157,-0.285,0.997,0.048,0.064,-0.853,-0.292,-0.433,0.935,0.16,0.317,-0.674,-0.325,-0.664,0.446,0.892,0.08,-0.143,-0.926,-0.349,scissors
8.540436,-0.114,0.99,0.081,0.044,-0.86,-0.508,-0.484,-0.757,-0.439,0.485,-0.823,0.296,-0.767,0.621,-0.16,0.782,-0.458,0.423,-0.953,0.147,-0.264,0.994,0.042,0.105,-0.847,-0.313,-0.43,0.927,0.145,0.347,-0.665,-0.347,-0.661,0.454,0.884,0.109,-0.118,-0.93,-0.348,scissors
8.560802,-0.093,0.992,0.083,0.044,-0.86,-0.508,-0.484,-0.757,-0.439,0.503,-0.803,0.321,-0.773,0.616,-0.153,0.783,-0.427,0.452,-0.957,0.135,-0.256,0.988,0.028,0.152,-0.84,-0.325,-0.434,0.914,0.133,0.383,-0.658,-0.354,-0.665,0.458,0.878,0.141,-0.111,-0.928,-0.355,scissors
8.584982,-0.045,0.993,0.109,0.018,-0.866,-0.5,-0.522,-0.789,-0.324,0.528,-0.776,0.345,-0.773,0.614,-0.16,0.788,-0.39,0.477,-0.955,0.133,-0.263,0.979,0.032,0.203,-0.843,-0.318,-0.434,0.901,0.12,0.418,-0.661,-0.347,-0.665,0.452,0.873,0.181,-0.119,-0.926,-0.358,scissors
8.606778,-0.028,0.992,0.122,0.018,-0.866,-0.5,-0.522,-0.789,-0.324,0.546,-0.759,0.355,-0.762,0.624,-0.172,0.794,-0.365,0.486,-0.95,0.142,-0.277,0.969,0.061,0.24,-0.848,-0.296,-0.44,0.89,0.123,0.439,-0.672,-0.333,-0.661,0.445,0.872,0.206,-0.139,-0.924,-0.357,scissors
8.628739,-0.028,0.992,0.122,0.019,-0.89,-0.455,-0.509,-0.784,-0.355,0.561,-0.753,0.343,-0.752,0.629,-0.199,0.805,-0.354,0.476,-0.942,0.15,-0.3,0.967,0.067,0.244,-0.854,-0.257,-0.451,0.88,0.15,0.451,-0.677,-0.306,-0.669,0.426,0.88,0.21,-0.162,-0.918,-0.362,scissors
8.652508,-0.1,0.977,0.188,0.019,-0.89,-0.455,-0.505,-0.798,-0.327,0.577,-0.755,0.311,-0.735,0.641,-0.223,0.826,-0.352,0.441,-0.93,0.17,-0.325,0.957,0.138,0.256,-0.865,-0.223,-0.45,0.872,0.194,0.449,-0.688,-0.274,-0.672,0.391,0.899,0.198,-0.194,-0.914,-0.356,scissors
8.67537,-0.142,0.97,0.199,0.004,-0.917,-0.398,-0.505,-0.798,-0.327,0.6,-0.756,0.26,-0.718,0.651,-0.248,0.851,-0.345,0.396,-0.918,0.18,-0.353,0.961,0.175,0.215,-0.865,-0.184,-0.466,0.855,0.262,0.447,-0.697,-0.244,-0.674,0.346,0.919,0.19,-0.219,-0.908,-0.358,scissors
8.695296,-0.184,0.957,0.223,-0.0,-0.925,-0.381,-0.505,-0.798,-0.327,0.601,-0.771,0.211,-0.707,0.66,-0.255,0.865,-0.358,0.352,-0.914,0.182,-0.364,0.94,0.274,0.204,-0.867,-0.185,-0.463,0.836,0.341,0.429,-0.704,-0.24,-0.669,0.308,0.937,0.165,-0.222,-0.908,-0.355,scissors
8.719897,-0.254,0.949,0.189,0.004,-0.924,-0.382,-0.535,-0.82,-0.205,0.575,-0.801,0.165,-0.705,0.667,-0.241,0.858,-0.399,0.322,-0.918,0.185,-0.351,0.962,0.251,0.106,-0.864,-0.205,-0.46,0.849,0.367,0.379,-0.704,-0.256,-0.663,0.303,0.946,0.115,-0.209,-0.916,-0.343,scissors
8.740362,-0.265,0.948,0.176,0.004,-0.924,-0.382,-0.54,-0.821,-0.184,0.534,-0.833,0.145,-0.717,0.663,-0.213,0.839,-0.452,0.301,-0.93,0.184,-0.32,0.971,0.234,0.041,-0.859,-0.248,-0.447,0.865,0.372,0.337,-0.694,-0.275,-0.665,0.317,0.947,0.054,-0.183,-0.924,-0.336,scissors
8.760556,-0.27,0.95,0.156,0.004,-0.924,-0.382,-0.54,-0.821,-0.184,0.501,-0.852,0.149,-0.737,0.65,-0.185,0.819,-0.488,0.301,-0.942,0.169,-0.291,0.988,0.155,0.008,-0.845,-0.29,-0.45,0.928,0.255,0.272,-0.675,-0.314,-0.668,0.341,0.94,0.016,-0.146,-0.931,-0.336,scissors
8.785029,-0.203,0.957,0.206,0.069,-0.863,-0.501,-0.54,-0.821,-0.184,0.508,-0.837,0.203,-0.743,0.654,-0.143,0.815,-0.467,0.342,-0.953,0.182,-0.244,0.992,0.095,0.079,-0.849,-0.336,-0.408,0.919,0.219,0.329,-0.688,-0.35,-0.635,0.357,0.932,0.055,-0.124,-0.946,-0.299,scissors
8.806896,-0.143,0.96,0.239,0.069,-0.863,-0.501,-0.517,-0.844,-0.142,0.561,-0.795,0.229,-0.715,0.69,-0.117,0.843,-0.402,0.358,-0.946,0.24,-0.219,0.976,0.144,0.166,-0.871,-0.343,-0.352,0.878,0.257,0.404,-0.726,-0.351,-0.591,0.331,0.936,0.121,-0.137,-0.96,-0.244,scissors
8.82875,-0.113,0.954,0.277,0.069,-0.863,-0.501,-0.517,-0.85,-0.102,0.638,-0.745,0.198,-0.689,0.716,-0.113,0.887,-0.329,0.323,-0.933,0.288,-0.215,0.929,0.277,0.244,-0.884,-0.333,-0.328,0.832,0.325,0.45,-0.75,-0.304,-0.587,0.266,0.949,0.172,-0.161,-0.964,-0.209,scissors
8.851689,-0.139,0.915,0.378,0.069,-0.863,-0.501,-0.506,-0.854,-0.117,0.687,-0.716,0.124,-0.693,0.707,-0.142,0.924,-0.295,0.245,-0.931,0.275,-0.239,0.923,0.321,0.212,-0.875,-0.309,-0.373,0.801,0.384,0.459,-0.732,-0.305,-0.61,0.194,0.966,0.174,-0.175,-0.953,-0.247,scissors
8.874031,-0.208,0.868,0.45,0.087,-0.898,-0.431,-0.506,-0.854,-0.117,0.687,-0.722,0.076,-0.71,0.687,-0.157,0.931,-0.307,0.196,-0.938,0.247,-0.243,0.919,0.348,0.185,-0.857,-0.344,-0.384,0.753,0.47,0.461,-0.709,-0.27,-0.652,0.144,0.978,0.15,-0.167,-0.948,-0.27,scissors
8.89514,-0.273,0.832,0.483,0.071,-0.891,-0.448,-0.506,-0.854,-0.117,0.7,-0.714,0.029,-0.696,0.705,-0.136,0.944,-0.294,0.148,-0.935,0.273,-0.227,0.887,0.422,0.185,-0.868,-0.356,-0.346,0.768,0.483,0.421,-0.72,-0.309,-0.622,0.088,0.986,0.142,-0.164,-0.958,-0.235,scissors
8.919631,-0.303,0.858,0.416,0.177,-0.887,-0.427,-0.506,-0.854,-0.117,0.708,-0.706,-0.006,-0.686,0.718,-0.116,0.95,-0.291,0.113,-0.935,0.283,-0.211,0.86,0.479,0.177,-0.867,-0.388,-0.312,0.738,0.524,0.424,-0.73,-0.343,-0.592,0.068,0.989,0.134,-0.156,-0.962,-0.224,scissors
8.941202,-0.26,0.887,0.38,0.177,-0.887,-0.427,-0.487,-0.873,-0.039,0.707,-0.708,0.003,-0.705,0.696,-0.14,0.946,-0.3,0.125,-0.942,0.234,-0.239,0.867,0.466,0.176,-0.858,-0.37,-0.357,0.764,0.485,0.425,-0.712,-0.33,-0.62,0.106,0.986,0.126,-0.166,-0.944,-0.283,scissors
8.963718,-0.217,0.911,0.351,0.177,-0.887,-0.427,-0.487,-0.873,-0.039,0.676,-0.733,0.076,-0.729,0.662,-0.176,0.926,-0.328,0.187,-0.945,0.182,-0.271,0.921,0.349,0.173,-0.845,-0.351,-0.403,0.8,0.411,0.437,-0.694,-0.31,-0.65,0.182,0.974,0.136,-0.171,-0.927,-0.333,scissors
8.984765,-0.089,0.953,0.291,0.005,-0.888,-0.46,-0.487,-0.873,-0.039,0.633,-0.755,0.168,-0.736,0.651,-0.184,0.895,-0.353,0.272,-0.948,0.162,-0.273,0.96,0.215,0.18,-0.846,-0.34,-0.409,0.846,0.287,0.449,-0.69,-0.311,-0.654,0.268,0.951,0.153,-0.163,-0.924,-0.345,scissors
9.009111,-0.048,0.957,0.285,0.036,-0.884,-0.465,-0.487,-0.873,-0.039,0.622,-0.748,0.232,-0.746,0.644,-0.169,0.879,-0.341,0.333,-0.952,0.174,-0.253,0.961,0.166,0.22,-0.847,-0.348,-0.403,0.843,0.237,0.483,-0.689,-0.324,-0.649,0.315,0.93,0.19,-0.152,-0.932,-0.329,scissors
9.0317,-0.033,0.956,0.291,0.036,-0.884,-0.465,-0.439,-0.898,-0.017,0.651,-0.715,0.255,-0.747,0.649,-0.147,0.889,-0.291,0.355,-0.953,0.201,-0.228,0.942,0.195,0.273,-0.847,-0.362,-0.389,0.813,0.246,0.528,-0.69,-0.345,-0.636,0.303,0.922,0.243,-0.147,-0.939,-0.311,scissors
9.05385,-0.041,0.944,0.326,0.036,-0.884,-0.465,-0.426,-0.905,0.007,0.679,-0.687,0.257,-0.752,0.643,-0.149,0.897,-0.255,0.361,-0.953,0.2,-0.227,0.927,0.215,0.308,-0.849,-0.353,-0.393,0.787,0.26,0.559,-0.683,-0.347,-0.643,0.288,0.917,0.274,-0.144,-0.939,-0.311,scissors
9.07367,-0.032,0.945,0.326,0.073,-0.872,-0.484,-0.426,-0.905,0.007,0.675,-0.684,0.276,-0.752,0.643,-0.144,0.889,-0.254,0.382,-0.955,0.188,-0.229,0.93,0.191,0.314,-0.851,-0.353,-0.389,0.788,0.24,0.567,-0.68,-0.352,-0.644,0.304,0.911,0.278,-0.138,-0.938,-0.319,scissors
9.095536,-0.024,0.953,0.303,0.069,-0.871,-0.486,-0.426,-0.905,0.007,0.658,-0.692,0.298,-0.746,0.649,-0.148,0.873,-0.268,0.406,-0.957,0.183,-0.227,0.94,0.144,0.308,-0.855,-0.354,-0.379,0.807,0.194,0.557,-0.686,-0.356,-0.635,0.332,0.903,0.272,-0.136,-0.939,-0.317,scissors
9.11922,0.001,0.954,0.301,0.069,-0.871,-0.486,-0.368,-0.926,0.082,0.647,-0.696,0.312,-0.746,0.652,-0.138,0.863,-0.275,0.424,-0.956,0.197,-0.218,0.945,0.114,0.306,-0.858,-0.356,-0.371,0.817,0.155,0.555,-0.694,-0.365,-0.621,0.35,0.897,0.271,-0.132,-0.945,-0.3,scissors
9.140183,0.009,0.95,0.311,0.069,-0.871,-0.486,-0.369,-0.929,0.038,0.66,-0.686,0.306,-0.757,0.643,-0.114,0.871,-0.257,0.419,-0.961,0.207,-0.183,0.937,0.134,0.323,-0.851,-0.38,-0.363,0.8,0.172,0.574,-0.688,-0.389,-0.613,0.332,0.898,0.288,-0.115,-0.951,-0.287,scissors
9.160762,0.001,0.944,0.331,0.069,-0.871,-0.486,-0.369,-0.929,0.038,0.683,-0.672,0.287,-0.766,0.638,-0.073,0.887,-0.232,0.4,-0.969,0.21,-0.131,0.92,0.189,0.344,-0.839,-0.424,-0.341,0.761,0.235,0.605,-0.673,-0.433,-0.599,0.296,0.905,0.306,-0.064,-0.962,-0.266,scissors
9.184529,-0.051,0.934,0.355,0.213,-0.772,-0.599,-0.344,-0.931,0.123,0.702,-0.663,0.261,-0.771,0.636,-0.01,0.898,-0.22,0.38,-0.975,0.204,-0.084,0.903,0.247,0.35,-0.821,-0.473,-0.319,0.743,0.282,0.607,-0.647,-0.483,-0.589,0.271,0.912,0.309,-0.019,-0.968,-0.252,scissors
9.206793,-0.088,0.941,0.326,0.213,-0.772,-0.599,-0.344,-0.931,0.123,0.688,-0.682,0.247,-0.786,0.619,0.01,0.894,-0.248,0.374,-0.982,0.181,-0.057,0.917,0.234,0.321,-0.804,-0.496,-0.328,0.769,0.27,0.58,-0.622,-0.513,-0.592,0.286,0.917,0.276,0.01,-0.963,-0.271,scissors
9.2284,-0.092,0.946,0.312,0.166,-0.738,-0.654,-0.344,-0.931,0.123,0.65,-0.716,0.255,-0.804,0.593,0.042,0.873,-0.302,0.383,-0.988,0.153,-0.02,0.946,0.168,0.276,-0.774,-0.538,-0.333,0.811,0.223,0.541,-0.588,-0.545,-0.598,0.321,0.918,0.232,0.065,-0.96,-0.273,scissors
9.251774,-0.097,0.95,0.297,0.193,-0.675,-0.712,-0.283,-0.957,0.059,0.611,-0.745,0.268,-0.811,0.566,0.148,0.853,-0.34,0.397,-0.982,0.162,0.092,0.963,0.12,0.242,-0.727,-0.638,-0.255,0.841,0.182,0.509,-0.546,-0.646,-0.534,0.353,0.914,0.201,0.165,-0.965,-0.203,scissors
9.273171,-0.094,0.953,0.287,0.353,-0.522,-0.776,-0.283,-0.957,0.059,0.606,-0.748,0.27,-0.818,0.493,0.296,0.848,-0.343,0.404,-0.96,0.13,0.247,0.962,0.128,0.242,-0.633,-0.75,-0.191,0.845,0.172,0.506,-0.451,-0.771,-0.451,0.365,0.909,0.202,0.317,-0.937,-0.144,scissors
9.294496,-0.091,0.954,0.287,0.404,-0.326,-0.855,-0.283,-0.957,0.059,0.615,-0.745,0.26,-0.815,0.362,0.453,0.853,-0.334,0.401,-0.909,0.055,0.413,0.957,0.155,0.245,-0.459,-0.872,-0.168,0.832,0.197,0.519,-0.292,-0.876,-0.384,0.355,0.91,0.215,0.493,-0.863,-0.108,scissors
9.31811,-0.103,0.947,0.303,0.366,-0.132,-0.921,-0.255,-0.96,0.115,0.625,-0.737,0.257,-0.805,0.179,0.566,0.86,-0.32,0.397,-0.838,-0.068,0.541,0.95,0.173,0.261,-0.253,-0.953,-0.164,0.816,0.226,0.532,-0.106,-0.937,-0.333,0.342,0.913,0.223,0.679,-0.726,-0.108,scissors
9.339093,-0.107,0.948,0.301,0.354,0.079,-0.932,-0.255,-0.96,0.115,0.624,-0.737,0.261,-0.746,0.086,0.66,0.86,-0.319,0.399,-0.76,-0.105,0.642,0.949,0.172,0.264,-0.128,-0.985,-0.114,0.813,0.235,0.533,0.0,-0.966,-0.259,0.338,0.913,0.227,0.771,-0.635,-0.06,scissors
9.36013,-0.108,0.95,0.292,0.354,0.079,-0.932,-0.239,-0.965,0.108,0.614,-0.742,0.268,-0.665,0.041,0.746,0.851,-0.33,0.408,-0.69,-0.113,0.715,0.953,0.156,0.26,-0.027,-0.999,-0.027,0.82,0.224,0.527,0.069,-0.984,-0.166,0.352,0.91,0.22,0.83,-0.558,0.014,scissors
9.383967,-0.102,0.966,0.238,0.457,0.252,-0.853,-0.239,-0.965,0.108,0.592,-0.752,0.288,-0.578,-0.039,0.815,0.833,-0.35,0.428,-0.588,-0.147,0.796,0.961,0.118,0.249,0.09,-0.995,0.039,0.844,0.171,0.509,0.158,-0.985,-0.066,0.39,0.898,0.204,0.9,-0.429,0.069,scissors
9.406056,-0.09,0.972,0.217,0.457,0.252,-0.853,-0.205,-0.974,0.098,0.572,-0.759,0.312,-0.513,-0.189,0.837,0.813,-0.367,0.451,-0.479,-0.239,0.845,0.967,0.074,0.245,0.239,-0.97,0.053,0.859,0.13,0.495,0.3,-0.954,0.0,0.418,0.888,0.194,0.96,-0.272,0.072,scissors
9.427088,-0.079,0.977,0.199,0.457,0.252,-0.853,-0.166,-0.981,0.104,0.549,-0.764,0.339,-0.338,-0.352,0.873,0.795,-0.38,0.473,-0.266,-0.293,0.918,0.97,0.026,0.241,0.448,-0.883,0.136,0.87,0.09,0.484,0.459,-0.874,0.158,0.443,0.876,0.188,0.988,-0.015,0.152,scissors
9.450117,-0.042,0.982,0.182,0.295,0.822,-0.488,-0.187,-0.975,0.117,0.546,-0.758,0.356,-0.042,-0.551,0.833,0.788,-0.376,0.487,0.068,-0.328,0.942,0.968,0.004,0.25,0.696,-0.657,0.289,0.871,0.068,0.486,0.651,-0.651,0.391,0.456,0.869,0.194,0.905,0.341,0.252,scissors
9.472511,-0.033,0.982,0.188,0.201,0.959,-0.201,-0.187,-0.975,0.117,0.557,-0.747,0.362,0.231,-0.681,0.694,0.793,-0.358,0.492,0.396,-0.332,0.856,0.963,0.022,0.27,0.855,-0.391,0.342,0.863,0.076,0.5,0.75,-0.336,0.569,0.447,0.869,0.212,0.719,0.627,0.301,scissors
9.495607,-0.043,0.977,0.209,0.201,0.959,-0.201,-0.187,-0.975,0.117,0.574,-0.74,0.349,0.408,-0.749,0.522,0.806,-0.343,0.482,0.629,-0.343,0.698,0.958,0.061,0.281,0.933,-0.152,0.326,0.851,0.11,0.513,0.798,-0.09,0.596,0.43,0.874,0.224,0.539,0.798,0.27,scissors
9.520662,-0.109,0.973,0.205,-0.062,0.98,0.187,-0.187,-0.975,0.117,0.571,-0.754,0.324,0.507,-0.771,0.385,0.812,-0.361,0.459,0.748,-0.364,0.556,0.964,0.081,0.253,0.953,0.01,0.302,0.858,0.14,0.494,0.806,0.08,0.587,0.417,0.887,0.197,0.416,0.881,0.228,scissors
9.54119,-0.109,0.973,0.205,-0.09,0.967,0.238,-0.162,-0.976,0.147,0.551,-0.779,0.298,0.558,-0.769,0.311,0.807,-0.397,0.437,0.803,-0.347,0.484,0.973,0.085,0.213,0.952,0.089,0.294,0.875,0.153,0.459,0.789,0.161,0.592,0.416,0.896,0.155,0.337,0.915,0.222,scissors
9.562985,-0.174,0.968,0.182,-0.097,0.956,0.276,-0.162,-0.976,0.147,0.528,-0.802,0.279,0.587,-0.768,0.256,0.8,-0.428,0.421,0.836,-0.339,0.431,0.981,0.089,0.172,0.944,0.144,0.296,0.891,0.162,0.423,0.775,0.212,0.595,0.417,0.901,0.12,0.289,0.932,0.217,scissors
9.586366,-0.21,0.967,0.146,-0.09,0.95,0.298,-0.17,-0.977,0.129,0.501,-0.827,0.257,0.607,-0.757,0.24,0.79,-0.463,0.402,0.853,-0.317,0.415,0.989,0.088,0.122,0.937,0.167,0.305,0.909,0.164,0.383,0.765,0.228,0.603,0.422,0.903,0.079,0.27,0.936,0.227,scissors
9.609213,-0.225,0.963,0.146,-0.084,0.955,0.284,-0.17,-0.977,0.129,0.49,-0.84,0.234,0.605,-0.763,0.227,0.787,-0.484,0.383,0.857,-0.325,0.401,0.99,0.102,0.098,0.94,0.173,0.293,0.916,0.181,0.358,0.766,0.237,0.597,0.416,0.908,0.052,0.262,0.939,0.221,scissors
9.630318,-0.247,0.958,0.148,-0.084,0.955,0.284,-0.223,-0.968,0.116,0.491,-0.845,0.213,0.611,-0.763,0.21,0.793,-0.489,0.363,0.866,-0.327,0.378,0.988,0.128,0.087,0.937,0.192,0.292,0.912,0.218,0.347,0.764,0.25,0.595,0.395,0.918,0.042,0.25,0.945,0.213,scissors
9.65331,-0.277,0.944,0.177,-0.084,0.955,0.284,-0.205,-0.971,0.123,0.506,-0.843,0.184,0.626,-0.754,0.201,0.811,-0.482,0.332,0.874,-0.312,0.373,0.981,0.175,0.082,0.932,0.208,0.297,0.897,0.271,0.349,0.752,0.268,0.602,0.358,0.933,0.037,0.232,0.946,0.226,scissors
9.674613,-0.289,0.932,0.219,-0.09,0.941,0.327,-0.205,-0.971,0.123,0.535,-0.832,0.145,0.638,-0.745,0.197,0.836,-0.462,0.296,0.883,-0.294,0.366,0.966,0.243,0.087,0.926,0.216,0.309,0.872,0.334,0.358,0.748,0.271,0.606,0.309,0.95,0.048,0.223,0.945,0.241,scissors
9.695839,-0.312,0.917,0.251,-0.074,0.939,0.336,-0.205,-0.971,0.123,0.562,-0.82,0.107,0.643,-0.739,0.198,0.858,-0.443,0.259,0.883,-0.286,0.372,0.95,0.297,0.093,0.925,0.224,0.306,0.845,0.387,0.37,0.74,0.274,0.614,0.268,0.962,0.053,0.214,0.947,0.238,scissors
9.720437,-0.33,0.906,0.267,-0.074,0.939,0.336,-0.265,-0.951,0.159,0.579,-0.812,0.078,0.642,-0.743,0.189,0.872,-0.431,0.231,0.884,-0.297,0.36,0.934,0.344,0.097,0.927,0.222,0.303,0.824,0.424,0.375,0.744,0.281,0.606,0.237,0.97,0.05,0.213,0.951,0.225,scissors
9.743107,-0.353,0.898,0.264,-0.074,0.939,0.336,-0.274,-0.957,0.096,0.583,-0.81,0.061,0.638,-0.751,0.173,0.875,-0.433,0.217,0.883,-0.314,0.348,0.931,0.353,0.095,0.929,0.234,0.286,0.822,0.434,0.37,0.748,0.291,0.596,0.224,0.974,0.045,0.204,0.956,0.211,scissors
9.764425,-0.352,0.898,0.262,-0.128,0.928,0.35,-0.265,-0.96,0.091,0.574,-0.817,0.062,0.648,-0.746,0.155,0.872,-0.44,0.215,0.892,-0.305,0.333,0.936,0.341,0.092,0.925,0.247,0.288,0.827,0.427,0.366,0.739,0.307,0.6,0.224,0.974,0.037,0.181,0.961,0.209,scissors
9.790829,-0.353,0.896,0.271,-0.097,0.914,0.394,-0.265,-0.96,0.091,0.579,-0.813,0.058,0.686,-0.715,0.134,0.875,-0.436,0.21,0.914,-0.272,0.302,0.934,0.344,0.1,0.904,0.292,0.313,0.819,0.436,0.372,0.704,0.341,0.623,0.214,0.976,0.04,0.133,0.962,0.237,scissors
9.812246,-0.352,0.887,0.298,-0.077,0.89,0.449,-0.265,-0.96,0.091,0.6,-0.799,0.044,0.716,-0.692,0.094,0.888,-0.417,0.196,0.936,-0.232,0.264,0.922,0.371,0.115,0.882,0.337,0.33,0.8,0.458,0.387,0.666,0.392,0.635,0.187,0.981,0.053,0.078,0.965,0.251,scissors
9.833851,-0.35,0.876,0.333,-0.107,0.858,0.503,-0.265,-0.96,0.091,0.63,-0.776,0.026,0.751,-0.659,0.042,0.907,-0.382,0.174,0.956,-0.198,0.215,0.898,0.416,0.14,0.85,0.404,0.338,0.768,0.492,0.409,0.624,0.447,0.641,0.15,0.986,0.078,0.008,0.967,0.254,scissors
9.857599,-0.342,0.855,0.389,-0.118,0.814,0.569,-0.325,-0.942,0.087,0.667,-0.745,0.002,0.778,-0.627,-0.038,0.929,-0.341,0.147,0.978,-0.166,0.127,0.868,0.468,0.168,0.808,0.489,0.329,0.728,0.532,0.433,0.566,0.528,0.633,0.105,0.989,0.106,-0.086,0.967,0.239,scissors
9.878116,-0.341,0.846,0.41,-0.251,0.665,0.703,-0.325,-0.942,0.087,0.691,-0.723,-0.017,0.792,-0.594,-0.143,0.942,-0.31,0.124,0.989,-0.149,0.023,0.843,0.506,0.184,0.765,0.576,0.288,0.694,0.565,0.446,0.516,0.617,0.594,0.069,0.99,0.125,-0.19,0.963,0.19,scissors
9.899848,-0.351,0.835,0.423,-0.251,0.665,0.703,-0.32,-0.941,0.107,0.702,-0.711,-0.034,0.797,-0.527,-0.297,0.948,-0.298,0.107,0.984,-0.112,-0.141,0.83,0.525,0.188,0.675,0.702,0.229,0.678,0.581,0.451,0.404,0.74,0.538,0.048,0.991,0.128,-0.35,0.929,0.121,scissors
9.923454,-0.36,0.828,0.43,-0.427,0.233,0.874,-0.348,-0.936,0.046,0.702,-0.711,-0.045,0.759,-0.388,-0.523,0.949,-0.3,0.095,0.921,-0.055,-0.387,0.826,0.533,0.182,0.498,0.859,0.12,0.673,0.589,0.448,0.237,0.882,0.407,0.042,0.992,0.12,-0.57,0.821,0.017,scissors
9.945136,-0.36,0.828,0.43,-0.427,0.233,0.874,-0.38,-0.923,0.065,0.701,-0.712,-0.05,0.629,-0.203,-0.751,0.949,-0.301,0.089,0.74,0.022,-0.673,0.827,0.533,0.177,0.247,0.969,-0.021,0.671,0.592,0.447,-0.0,0.975,0.223,0.039,0.992,0.119,-0.768,0.63,-0.118,scissors
