time,BNO0_UnitAccX,BNO0_UnitAccY,BNO0_UnitAccZ,BNO0_RawAccMag,BNO0_GyrX,BNO0_GyrY,BNO0_GyrZ,BNO0_MagX,BNO0_MagY,BNO0_MagZ,BNO1_UnitAccX,BNO1_UnitAccY,BNO1_UnitAccZ,BNO1_RawAccMag,BNO1_GyrX,BNO1_GyrY,BNO1_GyrZ,BNO1_MagX,BNO1_MagY,BNO1_MagZ,BNO2_UnitAccX,BNO2_UnitAccY,BNO2_UnitAccZ,BNO2_RawAccMag,BNO2_GyrX,BNO2_GyrY,BNO2_GyrZ,BNO2_MagX,BNO2_MagY,BNO2_MagZ,BNO3_UnitAccX,BNO3_UnitAccY,BNO3_UnitAccZ,BNO3_RawAccMag,BNO3_GyrX,BNO3_GyrY,BNO3_GyrZ,BNO3_MagX,BNO3_MagY,BNO3_MagZ,MPU0_UnitAccX,MPU0_UnitAccY,MPU0_UnitAccZ,MPU0_RawAccMag,MPU0_GyrX,MPU0_GyrY,MPU0_GyrZ,MPU1_UnitAccX,MPU1_UnitAccY,MPU1_UnitAccZ,MPU1_RawAccMag,MPU1_GyrX,MPU1_GyrY,MPU1_GyrZ,label
0.002482,0.199,0.948,-0.247,2605.50,4.476,-6.938,10.295,-0.354,-0.607,0.711,0.279,0.943,-0.181,2663.55,5.707,-7.162,9.624,-0.534,-0.823,0.194,0.161,0.006,-0.987,2674.02,10.072,-4.252,8.952,-0.028,0.063,0.998,-0.118,0.951,-0.286,2556.02,10.295,-8.169,-5.036,0.298,-0.880,0.370,0.965,0.056,-0.255,9.359,10.397,-2.382,1.053,0.857,0.243,-0.454,10.205,0.107,-6.412,1.298,none
0.002558,0.211,0.941,-0.266,2417.36,8.057,-1.343,8.393,-0.377,-0.582,0.720,0.288,0.935,-0.209,2404.43,9.400,-2.014,7.274,-0.537,-0.824,0.182,0.137,-0.009,-0.991,2434.98,11.079,-7.498,3.581,0.002,0.040,0.999,-0.138,0.948,-0.288,2326.94,7.386,-5.483,-7.722,0.298,-0.885,0.358,0.964,0.150,-0.220,9.789,14.290,-5.573,-1.038,0.845,0.337,-0.416,10.581,3.969,-8.458,-0.305,none
0.003572,0.208,0.943,-0.261,2538.87,7.274,-0.783,11.862,-0.387,-0.629,0.674,0.288,0.935,-0.209,2404.43,1.455,2.014,1.455,-0.524,-0.837,0.155,0.137,-0.009,-0.991,2434.98,-3.245,0.448,-3.245,0.002,0.040,0.999,-0.131,0.955,-0.268,2362.32,-7.162,3.021,2.574,0.307,-0.882,0.357,0.961,0.188,-0.205,10.128,13.420,-5.863,-1.008,0.839,0.370,-0.398,10.872,2.901,-8.794,0.107,none
0.103529,0.324,0.908,-0.266,2602.55,-2.686,-0.671,-1.007,-0.384,-0.650,0.656,0.370,0.909,-0.193,2646.25,-2.126,-1.567,0.112,-0.532,-0.825,0.191,0.178,-0.064,-0.982,2645.57,-0.112,0.000,1.790,-0.037,0.052,0.998,-0.100,0.941,-0.323,2532.06,5.371,-2.798,0.000,0.320,-0.876,0.361,0.967,0.032,-0.252,9.517,7.832,0.168,2.489,0.863,0.226,-0.451,10.398,-2.824,-4.779,2.794,none
0.512384,0.179,0.950,-0.257,2465.79,1.567,-3.581,2.014,-0.381,-0.646,0.662,0.247,0.950,-0.194,2490.74,1.343,-4.029,1.007,-0.522,-0.836,0.169,0.169,0.007,-0.986,2556.65,0.671,-2.350,3.693,-0.024,0.069,0.997,-0.132,0.954,-0.269,2352.77,-0.448,-2.686,-1.343,0.323,-0.888,0.328,0.967,0.045,-0.253,9.430,11.023,-1.908,2.885,0.858,0.232,-0.457,10.289,0.580,-5.756,3.160,none
0.512513,0.158,0.961,-0.227,2355.91,-0.783,2.574,-7.386,-0.339,-0.605,0.720,0.250,0.951,-0.182,2382.49,-1.231,4.588,-8.057,-0.528,-0.831,0.175,0.174,0.019,-0.984,2471.33,-6.602,1.455,-3.693,-0.030,0.074,0.997,-0.112,0.952,-0.286,2418.70,-10.295,4.812,2.574,0.296,-0.893,0.340,0.962,0.150,-0.229,9.849,15.023,-5.649,0.580,0.840,0.330,-0.430,10.634,4.366,-8.122,1.145,none
0.512600,0.252,0.939,-0.235,2444.83,-3.805,6.267,-7.386,-0.353,-0.592,0.725,0.343,0.920,-0.190,2539.84,-3.581,7.833,-7.498,-0.532,-0.831,0.159,0.191,-0.047,-0.981,2570.98,-5.931,4.029,-7.162,-0.008,0.080,0.997,-0.068,0.940,-0.334,2535.30,-7.722,6.714,3.805,0.296,-0.903,0.310,0.957,0.194,-0.214,10.429,11.359,-4.443,0.427,0.833,0.377,-0.405,11.186,0.931,-7.679,1.328,none
0.512689,0.316,0.913,-0.258,2608.22,-3.245,2.910,-5.707,-0.348,-0.593,0.726,0.379,0.905,-0.193,2656.20,-2.686,2.798,-4.476,-0.526,-0.830,0.185,0.192,-0.067,-0.979,2654.42,-4.476,2.462,-3.469,-0.017,0.086,0.996,-0.063,0.937,-0.344,2604.76,-4.812,3.917,3.021,0.279,-0.904,0.324,0.963,0.202,-0.179,10.670,5.924,-0.718,-0.290,0.843,0.380,-0.381,11.359,-5.878,-5.359,0.672,none
0.512778,0.289,0.920,-0.266,2643.15,-0.336,-2.798,-0.224,-0.365,-0.611,0.703,0.342,0.920,-0.193,2657.36,0.895,-3.469,0.671,-0.523,-0.834,0.174,0.185,-0.031,-0.982,2654.87,-0.895,-1.119,1.231,-0.040,0.064,0.997,-0.090,0.940,-0.328,2585.09,3.245,-2.574,-2.014,0.310,-0.894,0.324,0.967,0.143,-0.212,10.271,0.672,4.397,-1.084,0.851,0.324,-0.412,11.003,-11.282,-2.000,-0.107,none
0.512879,0.219,0.946,-0.241,2508.51,3.581,-5.036,3.693,-0.373,-0.604,0.704,0.297,0.936,-0.191,2569.42,4.252,-6.491,3.581,-0.531,-0.828,0.182,0.174,-0.012,-0.985,2579.75,2.574,-4.700,3.021,-0.016,0.065,0.998,-0.115,0.946,-0.303,2444.69,5.371,-3.245,-4.252,0.288,-0.887,0.360,0.967,0.073,-0.243,9.766,2.809,4.992,-0.672,0.858,0.259,-0.443,10.564,-8.473,-1.053,-0.229,none
0.513005,0.168,0.956,-0.240,2390.04,3.805,-2.910,2.126,-0.374,-0.631,0.679,0.251,0.949,-0.189,2450.08,3.917,-2.798,1.343,-0.517,-0.836,0.185,0.157,-0.001,-0.988,2503.88,0.560,-3.581,0.560,0.006,0.079,0.997,-0.147,0.953,-0.265,2312.52,0.560,-2.462,-3.469,0.310,-0.886,0.344,0.970,0.049,-0.239,9.370,8.397,2.000,0.916,0.865,0.240,-0.440,10.198,-2.473,-2.870,1.099,none
0.513088,0.160,0.954,-0.255,2331.82,2.126,0.671,-2.686,-0.346,-0.625,0.700,0.240,0.951,-0.197,2354.44,1.902,1.455,-3.693,-0.528,-0.834,0.160,0.150,0.015,-0.989,2420.51,-3.245,-0.671,-2.462,0.018,0.031,0.999,-0.142,0.952,-0.272,2326.92,-6.043,1.119,-0.895,0.278,-0.908,0.312,0.967,0.093,-0.238,9.327,12.977,-1.588,0.626,0.854,0.280,-0.438,10.107,2.153,-5.221,0.809,none
0.513153,0.208,0.946,-0.248,2311.46,-1.007,5.819,-6.379,-0.357,-0.586,0.728,0.276,0.941,-0.194,2335.71,0.112,6.379,-5.931,-0.528,-0.833,0.167,0.163,-0.036,-0.986,2466.48,-4.029,2.462,-5.260,0.007,0.054,0.999,-0.123,0.946,-0.301,2362.10,-8.393,4.364,1.231,0.299,-0.904,0.304,0.965,0.164,-0.205,9.761,13.557,-4.198,0.000,0.845,0.350,-0.404,10.538,2.382,-7.099,0.656,none
0.513292,0.290,0.919,-0.265,2463.30,-2.126,4.588,-5.819,-0.352,-0.598,0.720,0.355,0.913,-0.200,2504.89,-2.686,7.050,-5.931,-0.523,-0.834,0.178,0.177,-0.063,-0.982,2536.31,-4.812,3.469,-4.812,0.011,0.048,0.999,-0.089,0.936,-0.340,2492.24,-7.274,5.036,2.798,0.297,-0.899,0.322,0.956,0.217,-0.199,10.163,9.603,-2.702,-1.023,0.830,0.392,-0.396,10.825,-1.710,-6.718,0.046,none
0.513371,0.329,0.910,-0.253,2499.82,-1.343,2.014,-2.350,-0.356,-0.613,0.705,0.383,0.903,-0.197,2554.63,-1.455,1.567,-1.007,-0.516,-0.840,0.170,0.189,-0.066,-0.980,2542.45,-1.902,2.014,-0.895,0.019,0.048,0.999,-0.071,0.935,-0.347,2587.37,-2.686,2.910,2.350,0.285,-0.897,0.337,0.957,0.226,-0.183,10.337,2.763,0.229,-4.748,0.832,0.396,-0.388,10.940,-9.191,-5.298,-3.649,none
0.513436,0.311,0.915,-0.255,2517.24,-0.560,-0.783,5.148,-0.361,-0.601,0.713,0.366,0.910,-0.196,2567.22,-0.224,-2.238,6.379,-0.532,-0.827,0.179,0.191,-0.039,-0.981,2569.14,4.364,1.007,3.917,-0.028,0.063,0.998,-0.082,0.938,-0.337,2570.91,6.267,-1.007,0.448,0.291,-0.882,0.370,0.963,0.168,-0.211,10.357,-2.626,2.672,-7.389,0.845,0.346,-0.408,11.049,-14.427,-3.939,-5.740,none
0.513509,0.255,0.935,-0.245,2578.78,1.007,-3.357,10.072,-0.360,-0.622,0.695,0.322,0.927,-0.192,2614.40,1.231,-5.707,10.295,-0.520,-0.835,0.179,0.182,-0.034,-0.983,2643.50,8.505,-0.783,5.819,0.025,0.074,0.997,-0.097,0.944,-0.316,2493.53,11.638,-4.588,-2.238,0.299,-0.895,0.332,0.967,0.089,-0.238,10.232,-2.412,4.748,-5.099,0.858,0.281,-0.430,11.061,-13.969,-2.351,-3.588,none
0.513572,0.199,0.947,-0.251,2557.07,2.798,-4.141,8.169,-0.346,-0.625,0.699,0.281,0.940,-0.192,2608.93,3.357,-5.148,7.050,-0.526,-0.831,0.181,0.171,-0.008,-0.985,2636.78,6.826,-2.350,6.379,-0.016,0.065,0.998,-0.120,0.952,-0.282,2418.19,5.707,-4.924,-2.910,0.299,-0.894,0.333,0.969,0.052,-0.241,9.944,2.290,3.710,-1.298,0.864,0.247,-0.439,10.770,-9.359,-2.565,-0.168,none
0.513630,0.152,0.959,-0.239,2442.21,2.014,-3.581,2.574,-0.350,-0.614,0.708,0.232,0.956,-0.182,2485.48,2.462,-3.917,1.007,-0.535,-0.830,0.158,0.161,0.018,-0.987,2553.73,2.014,-2.798,4.364,-0.020,0.074,0.997,-0.144,0.957,-0.252,2355.37,0.336,-3.693,-2.238,0.304,-0.895,0.327,0.969,0.037,-0.244,9.549,7.557,2.412,0.794,0.867,0.231,-0.442,10.379,-3.786,-2.687,1.099,none
0.513689,0.145,0.958,-0.246,2372.72,2.126,-0.224,-1.790,-0.366,-0.590,0.720,0.234,0.953,-0.191,2377.74,1.902,0.671,-3.021,-0.517,-0.838,0.172,0.160,0.023,-0.987,2454.18,-2.238,-1.231,-1.679,0.017,0.080,0.997,-0.151,0.955,-0.256,2318.61,-5.260,0.112,-1.343,0.295,-0.897,0.328,0.967,0.077,-0.243,9.289,12.733,-0.931,0.947,0.856,0.265,-0.444,10.114,1.832,-4.550,1.176,none
0.513748,0.200,0.950,-0.241,2302.74,-1.007,5.483,-7.162,-0.372,-0.593,0.714,0.267,0.944,-0.194,2339.98,0.000,5.371,-6.155,-0.525,-0.833,0.172,0.158,-0.017,-0.987,2423.64,-4.476,1.567,-5.595,-0.002,0.046,0.999,-0.132,0.944,-0.301,2356.02,-8.505,4.029,0.895,0.309,-0.898,0.313,0.961,0.170,-0.219,9.588,14.458,-4.580,0.183,0.843,0.349,-0.409,10.360,3.740,-7.649,0.962,none
0.515324,0.265,0.929,-0.260,2364.86,-2.686,5.931,-6.714,-0.367,-0.606,0.706,0.375,0.906,-0.198,2479.84,-2.910,6.714,-6.267,-0.525,-0.832,0.180,0.191,-0.095,-0.977,2409.34,-5.371,3.805,-6.602,0.013,0.072,0.997,-0.046,0.939,-0.342,2453.38,-8.281,6.491,3.245,0.311,-0.890,0.335,0.958,0.208,-0.198,10.055,11.725,-5.435,-0.565,0.837,0.386,-0.388,10.728,0.519,-8.718,-0.076,none
0.515406,0.317,0.905,-0.285,2567.42,-3.917,3.357,-3.805,-0.353,-0.613,0.707,0.371,0.906,-0.204,2556.17,-3.357,3.581,-2.238,-0.524,-0.832,0.183,0.193,-0.024,-0.981,2589.46,-3.805,5.148,-0.671,-0.012,0.067,0.998,-0.081,0.938,-0.336,2496.62,-1.231,1.679,3.021,0.300,-0.891,0.342,0.961,0.203,-0.189,10.330,3.664,-2.275,-1.099,0.839,0.382,-0.387,11.024,-7.893,-7.282,0.733,none
0.532278,0.327,0.901,-0.284,2576.18,-0.336,-4.029,1.567,-0.337,-0.589,0.734,0.375,0.903,-0.208,2552.91,-0.224,-3.805,1.119,-0.526,-0.830,0.185,0.171,-0.081,-0.982,2576.56,-0.336,1.007,-0.224,-0.054,0.054,0.997,-0.083,0.945,-0.317,2550.67,1.567,-3.581,1.455,0.290,-0.900,0.326,0.967,0.155,-0.200,10.150,-1.695,0.702,-1.863,0.852,0.332,-0.405,10.891,-12.794,-6.015,-0.611,none
0.556228,0.227,0.944,-0.241,2504.24,-1.007,-7.050,4.812,-0.360,-0.634,0.684,0.265,0.947,-0.182,2540.21,-1.343,-7.945,4.924,-0.512,-0.841,0.173,0.185,0.029,-0.982,2595.90,1.902,0.336,8.505,-0.042,0.056,0.998,-0.114,0.958,-0.261,2455.14,6.491,-6.155,0.224,0.297,-0.896,0.331,0.963,0.020,-0.269,9.950,-0.565,1.786,-1.176,0.861,0.214,-0.461,10.837,-11.053,-4.809,-0.122,none
0.578425,0.102,0.971,-0.215,2493.36,-0.112,-4.588,3.021,-0.345,-0.614,0.710,0.193,0.968,-0.160,2525.74,-0.448,-4.588,1.455,-0.528,-0.830,0.178,0.175,0.030,-0.984,2570.83,1.119,-0.783,3.917,-0.006,0.023,1.000,-0.138,0.961,-0.240,2387.40,-0.224,-2.574,0.000,0.293,-0.881,0.372,0.961,0.010,-0.275,9.794,9.924,-0.840,0.519,0.856,0.198,-0.477,10.737,-0.702,-4.733,0.916,none
0.600546,0.151,0.961,-0.230,2456.96,-1.231,2.686,-4.812,-0.353,-0.602,0.716,0.227,0.958,-0.173,2498.77,-0.783,5.036,-5.483,-0.527,-0.834,0.166,0.179,0.022,-0.984,2563.26,-3.133,1.007,-2.126,0.006,0.071,0.997,-0.133,0.951,-0.278,2411.45,-8.505,3.581,1.119,0.305,-0.897,0.319,0.966,0.110,-0.235,9.780,16.855,-3.130,0.611,0.854,0.301,-0.425,10.622,5.786,-5.573,1.008,none
1.023080,0.247,0.933,-0.262,2458.77,-1.007,7.945,-8.841,-0.362,-0.617,0.699,0.345,0.916,-0.205,2495.50,-0.112,9.736,-8.729,-0.532,-0.830,0.167,0.175,-0.036,-0.984,2520.51,-5.148,1.790,-9.064,-0.066,0.077,0.995,-0.109,0.941,-0.321,2490.28,-10.407,7.945,1.790,0.296,-0.903,0.310,0.957,0.222,-0.189,10.232,13.954,-3.221,-0.702,0.830,0.401,-0.387,10.800,2.901,-6.382,0.244,none
1.023225,0.354,0.902,-0.247,2520.89,-1.455,6.714,-7.050,-0.353,-0.624,0.697,0.411,0.890,-0.196,2567.67,-1.567,7.498,-5.595,-0.519,-0.839,0.166,0.189,-0.090,-0.978,2546.07,-3.245,2.910,-4.141,-0.021,0.063,0.998,-0.057,0.933,-0.356,2522.29,-3.805,5.483,1.790,0.292,-0.899,0.326,0.961,0.213,-0.176,10.309,7.588,-1.252,-1.359,0.843,0.392,-0.369,10.904,-3.847,-5.466,-0.992,none
1.023327,0.333,0.895,-0.297,2530.79,-0.560,-0.112,0.671,-0.353,-0.613,0.707,0.366,0.905,-0.216,2591.74,-1.790,2.014,-1.343,-0.527,-0.832,0.177,0.176,-0.024,-0.984,2561.57,-0.671,0.224,2.462,-0.002,0.056,0.998,-0.096,0.940,-0.328,2524.93,1.790,-0.224,0.448,0.285,-0.910,0.300,0.963,0.170,-0.207,10.126,0.260,2.000,-2.076,0.840,0.348,-0.416,10.761,-10.611,-4.229,-1.053,none
1.023440,0.240,0.942,-0.235,2403.96,1.455,-4.029,3.805,-0.343,-0.618,0.707,0.333,0.925,-0.182,2492.67,0.895,-3.357,4.812,-0.520,-0.835,0.179,0.164,-0.048,-0.985,2498.95,3.581,-0.895,4.364,-0.018,0.055,0.998,-0.088,0.947,-0.310,2516.91,4.476,-3.917,-0.671,0.266,-0.906,0.330,0.967,0.108,-0.231,9.911,-1.740,3.527,-3.939,0.861,0.294,-0.415,10.728,-10.443,-4.321,-3.664,none
1.023532,0.192,0.951,-0.242,2494.31,0.448,-3.917,6.938,-0.326,-0.601,0.729,0.266,0.948,-0.175,2535.69,0.448,-4.364,7.050,-0.523,-0.832,0.182,0.197,0.037,-0.980,2583.46,4.252,-0.112,8.169,0.011,0.055,0.998,-0.091,0.961,-0.260,2427.26,6.938,-4.476,-1.455,0.296,-0.893,0.340,0.963,0.039,-0.268,10.050,-0.244,3.527,-2.519,0.853,0.230,-0.468,10.892,-11.267,-3.145,-1.206,none
1.024664,0.153,0.964,-0.218,2503.10,2.798,-3.693,4.252,-0.348,-0.619,0.704,0.243,0.954,-0.175,2530.19,2.350,-2.910,3.245,-0.516,-0.836,0.187,0.181,0.014,-0.983,2594.20,3.805,-1.343,3.805,-0.022,0.094,0.995,-0.113,0.962,-0.248,2392.55,0.783,-4.029,-1.790,0.313,-0.881,0.354,0.962,0.032,-0.272,9.844,6.809,1.344,-0.290,0.855,0.224,-0.468,10.723,-4.412,-3.618,0.305,none
1.024794,0.147,0.966,-0.210,2454.32,1.007,-0.448,-1.679,-0.360,-0.607,0.709,0.220,0.964,-0.151,2483.79,1.455,2.350,-2.910,-0.521,-0.837,0.167,0.186,0.026,-0.982,2576.00,-1.455,-0.448,0.671,-0.035,0.076,0.997,-0.140,0.955,-0.260,2430.37,-4.924,0.783,-0.671,0.302,-0.902,0.307,0.966,0.091,-0.243,9.860,14.046,-0.489,-0.855,0.853,0.280,-0.440,10.696,2.779,-3.618,-0.794,none
1.024860,0.214,0.946,-0.244,2476.75,0.336,6.043,-5.371,-0.348,-0.603,0.718,0.286,0.939,-0.191,2528.03,0.560,9.736,-5.931,-0.525,-0.832,0.180,0.168,-0.054,-0.984,2561.35,-2.238,0.336,-6.602,-0.010,0.048,0.999,-0.124,0.932,-0.340,2491.36,-7.050,6.155,0.000,0.295,-0.894,0.338,0.965,0.198,-0.173,10.124,14.824,-1.267,-1.756,0.845,0.381,-0.376,10.807,3.389,-3.893,-1.450,none
1.024926,0.343,0.890,-0.299,2509.54,0.000,7.833,-5.819,-0.368,-0.616,0.697,0.399,0.889,-0.227,2551.47,0.336,9.288,-5.371,-0.527,-0.833,0.166,0.161,-0.097,-0.982,2546.55,-1.343,-0.783,-5.036,0.000,0.081,0.997,-0.096,0.929,-0.357,2510.26,-4.029,5.595,-0.112,0.278,-0.905,0.322,0.962,0.230,-0.150,10.279,6.275,0.916,-1.344,0.840,0.414,-0.351,10.898,-5.573,-3.496,-0.504,none
1.025012,0.349,0.889,-0.297,2525.36,0.783,1.902,-1.343,-0.354,-0.633,0.688,0.403,0.889,-0.218,2573.03,0.895,0.671,-0.783,-0.531,-0.830,0.171,0.167,-0.094,-0.981,2518.86,1.455,-1.902,2.014,0.000,0.073,0.997,-0.082,0.934,-0.348,2464.72,1.567,-0.224,-1.455,0.299,-0.888,0.350,0.961,0.186,-0.204,9.792,-1.664,3.603,-0.427,0.839,0.362,-0.407,10.482,-13.252,-3.466,0.855,none
1.025077,0.256,0.938,-0.234,2371.47,1.790,-7.386,4.364,-0.361,-0.607,0.708,0.324,0.928,-0.184,2411.72,1.119,-8.841,3.917,-0.516,-0.835,0.190,0.173,-0.060,-0.983,2485.20,1.902,-1.790,8.393,-0.021,0.054,0.998,-0.080,0.952,-0.296,2400.54,4.812,-6.155,-2.014,0.325,-0.879,0.348,0.963,0.097,-0.250,9.580,-3.649,2.870,-1.145,0.849,0.274,-0.453,10.346,-14.626,-4.519,-0.046,none
1.025140,0.177,0.959,-0.221,2372.44,0.560,-6.714,5.371,-0.362,-0.601,0.712,0.225,0.962,-0.158,2429.50,-0.448,-7.050,4.812,-0.518,-0.836,0.181,0.188,0.031,-0.982,2447.81,2.462,0.000,10.855,-0.038,0.078,0.996,-0.093,0.964,-0.249,2380.75,5.819,-7.610,-0.783,0.277,-0.896,0.347,0.960,0.017,-0.280,9.559,-0.702,1.878,-1.557,0.855,0.205,-0.477,10.416,-11.603,-4.916,-0.580,none
1.025198,0.106,0.973,-0.203,2395.61,0.112,-3.917,3.469,-0.346,-0.589,0.731,0.185,0.972,-0.146,2423.38,-0.783,-2.462,2.574,-0.522,-0.837,0.165,0.183,0.054,-0.982,2508.24,1.679,1.902,7.274,-0.002,0.031,1.000,-0.115,0.969,-0.219,2347.06,1.119,-3.245,0.560,0.294,-0.884,0.364,0.958,-0.005,-0.288,9.615,7.511,-1.252,-0.595,0.860,0.188,-0.475,10.523,-3.405,-6.107,-0.366,none
1.025533,0.104,0.968,-0.227,2439.59,-2.126,1.790,-1.790,-0.338,-0.632,0.698,0.181,0.969,-0.167,2481.15,-2.462,3.581,-2.126,-0.525,-0.834,0.168,0.185,0.053,-0.981,2547.38,-2.014,3.469,1.790,0.018,0.049,0.999,-0.142,0.961,-0.236,2387.38,-4.141,1.231,2.126,0.289,-0.898,0.333,0.965,0.050,-0.256,9.893,17.023,-4.000,-0.840,0.857,0.238,-0.457,10.726,5.466,-7.282,-0.519,none
1.025614,0.199,0.950,-0.241,2507.74,-3.693,6.491,-6.826,-0.350,-0.630,0.694,0.269,0.946,-0.182,2541.94,-2.798,9.624,-6.379,-0.523,-0.835,0.171,0.185,0.003,-0.983,2595.78,-3.805,3.133,-11.079,0.000,0.032,0.999,-0.137,0.938,-0.317,2486.16,-7.945,7.386,2.798,0.295,-0.891,0.345,0.964,0.187,-0.186,10.245,19.710,-5.099,-1.405,0.844,0.377,-0.382,10.971,7.527,-6.198,-1.038,none
1.025679,0.305,0.912,-0.273,2567.57,-1.679,9.512,-7.722,-0.350,-0.630,0.694,0.411,0.886,-0.214,2615.53,-1.567,13.093,-7.945,-0.516,-0.839,0.172,0.172,-0.106,-0.979,2614.95,-4.141,2.126,-11.079,0.026,0.060,0.998,-0.094,0.921,-0.377,2586.09,-8.057,9.960,2.574,0.289,-0.914,0.284,0.953,0.267,-0.145,10.608,12.137,-2.672,-1.908,0.827,0.448,-0.341,11.205,0.092,-5.466,-1.328,none
1.025749,0.375,0.879,-0.295,2611.87,-1.343,2.686,-2.126,-0.343,-0.618,0.707,0.441,0.869,-0.225,2664.98,-1.119,6.826,-4.141,-0.533,-0.827,0.179,0.169,-0.129,-0.977,2609.57,-0.224,-0.448,-4.812,-0.033,0.062,0.998,-0.074,0.921,-0.383,2598.79,-1.679,4.924,1.007,0.294,-0.905,0.308,0.956,0.239,-0.173,10.423,0.931,2.061,-1.496,0.830,0.413,-0.375,11.058,-10.580,-3.786,-0.519,none
1.027156,0.342,0.901,-0.268,2547.14,1.343,-4.141,3.469,-0.358,-0.596,0.719,0.398,0.895,-0.202,2577.56,0.448,-6.826,3.469,-0.528,-0.831,0.175,0.165,-0.101,-0.981,2548.19,2.238,-2.238,4.588,-0.037,0.045,0.998,-0.077,0.934,-0.350,2509.19,6.155,-6.155,-1.455,0.285,-0.910,0.300,0.965,0.135,-0.224,9.916,-4.366,3.328,-0.534,0.849,0.320,-0.420,10.688,-15.191,-4.153,0.550,none
1.027235,0.208,0.948,-0.242,2450.22,0.112,-7.945,5.148,-0.352,-0.597,0.721,0.275,0.944,-0.182,2486.26,-1.007,-10.407,4.700,-0.519,-0.837,0.174,0.175,-0.005,-0.985,2519.92,1.679,-1.119,11.862,-0.054,0.046,0.997,-0.091,0.961,-0.260,2427.26,5.707,-9.176,-1.231,0.309,-0.891,0.332,0.965,0.033,-0.259,9.816,-3.603,3.725,-0.275,0.862,0.220,-0.457,10.632,-14.565,-3.985,0.840,none
1.039282,0.101,0.971,-0.216,2432.01,0.560,-7.274,4.812,-0.357,-0.640,0.681,0.177,0.972,-0.155,2473.74,-0.336,-8.505,3.805,-0.529,-0.835,0.152,0.187,0.073,-0.980,2514.18,1.679,-0.671,11.862,-0.062,0.080,0.995,-0.110,0.973,-0.205,2367.94,3.245,-7.722,-1.343,0.300,-0.898,0.322,0.954,-0.027,-0.299,9.636,4.473,2.031,-0.366,0.855,0.167,-0.491,10.513,-6.458,-4.260,0.504,none
1.053115,0.081,0.974,-0.213,2426.61,1.231,-5.483,3.133,-0.378,-0.603,0.702,0.158,0.977,-0.140,2459.59,0.224,-6.155,2.014,-0.528,-0.833,0.164,0.188,0.086,-0.978,2496.99,0.336,0.448,6.938,-0.042,0.044,0.998,-0.119,0.972,-0.201,2359.45,1.007,-5.707,-1.231,0.302,-0.902,0.307,0.959,0.002,-0.284,9.567,12.580,-1.038,-0.427,0.855,0.197,-0.480,10.508,0.992,-5.634,0.015,none
1.081868,0.161,0.964,-0.211,2440.60,-1.679,5.819,-5.931,-0.357,-0.607,0.710,0.241,0.957,-0.163,2470.98,-0.783,9.288,-6.267,-0.532,-0.826,0.187,0.195,0.018,-0.981,2570.53,-3.245,2.910,-6.043,-0.012,0.081,0.997,-0.136,0.947,-0.292,2431.50,-8.952,6.938,2.350,0.305,-0.897,0.319,0.963,0.169,-0.209,10.100,19.496,-5.221,-0.824,0.842,0.356,-0.405,10.897,8.427,-6.626,-0.672,none
1.105826,0.320,0.910,-0.265,2574.38,-2.910,10.407,-9.288,-0.370,-0.641,0.673,0.381,0.904,-0.196,2616.23,-2.910,13.317,-8.729,-0.517,-0.840,0.161,0.177,-0.119,-0.977,2650.22,-5.036,2.686,-10.743,-0.033,0.071,0.997,-0.095,0.925,-0.367,2552.20,-8.729,9.736,3.357,0.306,-0.893,0.330,0.954,0.261,-0.149,10.729,13.252,-3.527,-0.672,0.827,0.446,-0.342,11.363,1.679,-6.000,-0.031,none
1.533193,0.385,0.873,-0.299,2672.40,-1.007,3.469,-4.364,-0.349,-0.597,0.723,0.449,0.864,-0.228,2724.23,-1.567,2.462,-3.357,-0.518,-0.837,0.177,0.173,-0.130,-0.976,2652.08,-2.574,0.112,-4.141,-0.042,0.038,0.998,-0.070,0.918,-0.390,2625.83,-3.581,4.812,1.902,0.288,-0.902,0.323,0.957,0.249,-0.151,10.700,1.527,1.740,0.656,0.835,0.430,-0.344,11.338,-10.290,-4.031,1.847,none
1.533336,0.338,0.896,-0.288,2637.91,1.343,-6.267,1.679,-0.342,-0.620,0.706,0.393,0.896,-0.207,2661.44,1.231,-8.393,1.567,-0.529,-0.831,0.171,0.170,-0.103,-0.980,2601.59,-0.112,-3.357,5.371,0.000,0.053,0.999,-0.088,0.932,-0.351,2523.48,4.252,-7.722,-2.126,0.310,-0.894,0.324,0.965,0.162,-0.207,10.102,-5.160,5.435,1.115,0.847,0.341,-0.408,10.741,-17.053,-2.336,2.580,none
1.533446,0.246,0.938,-0.245,2468.54,2.350,-11.302,4.924,-0.364,-0.579,0.730,0.257,0.952,-0.168,2466.38,1.790,-13.429,4.141,-0.517,-0.838,0.172,0.180,0.015,-0.984,2504.04,1.902,-4.476,12.757,-0.062,0.056,0.997,-0.107,0.959,-0.264,2433.76,6.379,-11.526,-3.693,0.302,-0.896,0.325,0.966,0.050,-0.253,9.643,-6.122,6.824,-0.244,0.858,0.235,-0.456,10.472,-17.740,-1.435,1.084,none
1.533531,0.130,0.964,-0.231,2401.09,3.805,-8.393,6.491,-0.362,-0.631,0.686,0.203,0.964,-0.173,2443.76,2.462,-9.848,5.260,-0.518,-0.837,0.177,0.182,0.047,-0.982,2476.98,3.357,-3.469,12.869,-0.039,0.029,0.999,-0.125,0.969,-0.213,2325.99,4.812,-8.952,-3.581,0.307,-0.899,0.312,0.956,-0.028,-0.292,9.522,0.855,4.076,0.031,0.855,0.167,-0.491,10.430,-10.550,-2.916,1.069,none
1.533631,0.074,0.978,-0.196,2385.78,1.455,-4.700,2.350,-0.361,-0.617,0.699,0.154,0.979,-0.135,2405.94,0.671,-4.700,1.007,-0.511,-0.841,0.179,0.182,0.054,-0.982,2477.95,-1.567,0.000,4.364,-0.059,0.071,0.996,-0.135,0.970,-0.203,2294.11,-1.343,-5.483,-1.455,0.309,-0.907,0.286,0.955,-0.015,-0.295,9.381,11.359,-0.031,1.313,0.856,0.184,-0.484,10.298,0.504,-4.702,1.573,none
1.533735,0.123,0.968,-0.220,2382.24,-2.686,5.483,-8.057,-0.361,-0.617,0.699,0.188,0.975,-0.120,2377.18,-1.231,3.357,-5.371,-0.515,-0.840,0.171,0.190,0.039,-0.981,2470.03,-4.924,2.350,-3.917,-0.008,0.038,0.999,-0.135,0.957,-0.255,2365.64,-7.833,2.014,1.007,0.299,-0.902,0.313,0.967,0.108,-0.231,9.683,17.634,-4.947,1.008,0.853,0.304,-0.424,10.511,6.901,-7.023,0.870,none
1.533829,0.283,0.917,-0.282,2491.56,-2.910,8.617,-9.736,-0.353,-0.609,0.710,0.309,0.928,-0.208,2464.38,-3.245,11.526,-9.064,-0.527,-0.830,0.183,0.173,-0.062,-0.983,2554.39,-6.938,3.357,-8.841,0.004,0.041,0.999,-0.102,0.937,-0.335,2468.69,-9.736,7.386,3.805,0.303,-0.891,0.337,0.962,0.213,-0.170,10.307,14.229,-5.176,1.817,0.839,0.400,-0.368,10.969,2.901,-7.557,2.351,none
1.533909,0.341,0.898,-0.279,2555.34,-2.462,3.805,-7.722,-0.334,-0.611,0.717,0.405,0.891,-0.204,2609.09,-3.133,4.364,-7.833,-0.517,-0.838,0.175,0.173,-0.106,-0.979,2605.15,-6.602,2.462,-5.483,-0.011,0.046,0.999,-0.079,0.931,-0.357,2569.42,-5.819,2.574,2.910,0.298,-0.902,0.312,0.958,0.231,-0.170,10.422,5.008,-1.130,1.405,0.834,0.412,-0.367,11.042,-5.939,-6.000,2.275,none
1.534013,0.340,0.899,-0.274,2561.56,-1.455,-2.574,-2.350,-0.356,-0.618,0.701,0.389,0.899,-0.201,2588.52,-2.014,-2.798,-1.790,-0.520,-0.837,0.171,0.180,-0.085,-0.980,2562.08,-3.357,0.336,3.021,-0.014,0.049,0.999,-0.079,0.942,-0.327,2560.54,0.895,-4.029,0.783,0.305,-0.910,0.282,0.963,0.174,-0.204,10.173,-1.954,2.229,-0.626,0.845,0.350,-0.405,10.827,-13.450,-4.687,0.763,none
1.534082,0.245,0.937,-0.248,2478.51,-0.112,-6.714,3.469,-0.330,-0.607,0.723,0.296,0.937,-0.188,2513.20,-0.560,-8.505,3.469,-0.522,-0.832,0.186,0.189,-0.001,-0.982,2545.66,3.021,-0.895,10.183,-0.033,0.071,0.997,-0.089,0.955,-0.283,2505.96,6.267,-7.610,-1.007,0.314,-0.904,0.291,0.967,0.074,-0.245,9.906,-4.473,3.771,-3.038,0.859,0.255,-0.444,10.713,-16.168,-3.756,-1.542,none
1.534148,0.142,0.964,-0.227,2493.64,0.895,-7.274,7.162,-0.346,-0.628,0.697,0.209,0.964,-0.164,2524.58,0.224,-8.505,7.050,-0.519,-0.834,0.186,0.185,0.046,-0.982,2537.60,5.260,-0.448,8.729,-0.021,0.054,0.998,-0.112,0.968,-0.225,2420.54,7.162,-7.498,-1.679,0.295,-0.907,0.299,0.961,-0.005,-0.276,9.857,-0.321,3.435,-2.351,0.863,0.190,-0.468,10.744,-11.695,-3.099,-1.191,none
1.534206,0.106,0.970,-0.219,2487.83,2.238,-2.798,3.245,-0.333,-0.579,0.744,0.182,0.971,-0.153,2516.99,1.343,-5.371,4.812,-0.507,-0.842,0.184,0.185,0.048,-0.981,2587.98,3.581,2.686,5.260,-0.049,0.056,0.997,-0.126,0.967,-0.220,2380.00,3.021,-4.476,-2.014,0.319,-0.894,0.315,0.961,-0.005,-0.278,9.723,7.145,1.191,-0.427,0.860,0.191,-0.474,10.585,-4.031,-4.031,0.198,none
1.534266,0.112,0.969,-0.219,2438.25,0.560,1.567,-2.798,-0.358,-0.616,0.702,0.190,0.968,-0.164,2462.86,0.560,3.245,-3.581,-0.512,-0.843,0.168,0.188,0.030,-0.982,2557.60,-1.343,1.679,-1.343,-0.037,0.045,0.998,-0.138,0.962,-0.236,2385.98,-3.133,-0.112,-1.007,0.295,-0.900,0.320,0.964,0.068,-0.256,9.804,14.443,-2.489,-0.458,0.851,0.262,-0.455,10.660,3.313,-5.405,-0.260,none
1.534324,0.211,0.950,-0.229,2465.41,-1.119,6.938,-6.602,-0.316,-0.589,0.744,0.287,0.942,-0.176,2521.83,-0.895,9.064,-6.379,-0.520,-0.837,0.168,0.191,-0.020,-0.981,2567.70,-3.469,1.902,-8.393,-0.025,0.047,0.999,-0.121,0.942,-0.312,2495.87,-6.267,7.498,1.231,0.330,-0.893,0.305,0.964,0.190,-0.187,10.190,15.802,-2.611,-1.710,0.843,0.375,-0.385,10.897,4.031,-4.931,-1.542,none
1.534382,0.340,0.898,-0.281,2567.73,-0.336,7.945,-5.595,-0.340,-0.611,0.715,0.398,0.893,-0.208,2604.42,0.448,8.952,-4.588,-0.521,-0.836,0.175,0.181,-0.092,-0.979,2595.04,-2.238,0.560,-8.169,-0.029,0.023,0.999,-0.082,0.934,-0.349,2571.84,-2.686,6.267,0.336,0.299,-0.902,0.313,0.958,0.240,-0.156,10.497,7.389,0.580,-2.977,0.835,0.424,-0.350,11.111,-4.931,-3.664,-2.183,none
1.534443,0.359,0.886,-0.294,2590.04,1.119,1.007,0.895,-0.341,-0.624,0.703,0.409,0.887,-0.213,2632.37,1.119,-0.112,2.014,-0.510,-0.844,0.166,0.178,-0.084,-0.980,2580.70,1.679,-2.014,-1.007,-0.008,0.074,0.997,-0.071,0.935,-0.348,2578.02,4.588,-0.895,-2.126,0.310,-0.900,0.306,0.964,0.198,-0.179,10.286,-2.763,5.405,-3.954,0.843,0.380,-0.381,10.922,-15.450,-1.557,-2.366,none
1.534504,0.276,0.926,-0.258,2489.39,4.029,-6.714,8.281,-0.342,-0.620,0.706,0.330,0.924,-0.195,2519.44,4.029,-9.400,7.945,-0.526,-0.833,0.174,0.178,-0.039,-0.983,2532.31,6.379,-3.805,6.602,0.000,0.038,0.999,-0.086,0.949,-0.303,2478.72,10.072,-7.386,-4.476,0.294,-0.898,0.327,0.967,0.089,-0.237,9.707,-6.015,7.160,-4.656,0.855,0.275,-0.440,10.465,-18.534,-0.870,-2.916,none
1.535508,0.141,0.965,-0.223,2358.42,4.252,-8.393,10.519,-0.345,-0.610,0.714,0.204,0.965,-0.165,2389.77,4.029,-10.183,9.512,-0.521,-0.834,0.180,0.180,0.039,-0.983,2454.85,7.610,-4.364,10.295,0.010,0.056,0.998,-0.123,0.965,-0.230,2365.86,9.848,-7.833,-4.252,0.318,-0.895,0.312,0.964,0.003,-0.265,9.390,-2.412,5.725,-6.198,0.862,0.193,-0.468,10.261,-14.718,-1.496,-4.763,none
1.535605,0.084,0.974,-0.212,2335.70,3.469,-4.252,9.400,-0.382,-0.581,0.719,0.161,0.976,-0.150,2364.88,3.133,-4.924,8.841,-0.525,-0.834,0.168,0.174,0.072,-0.982,2426.15,7.610,-2.574,7.162,-0.032,0.056,0.998,-0.144,0.969,-0.199,2285.20,7.833,-3.133,-3.133,0.308,-0.911,0.276,0.957,-0.038,-0.286,9.275,5.115,1.985,-5.832,0.860,0.162,-0.484,10.221,-6.412,-3.481,-4.824,none
1.547348,0.104,0.971,-0.215,2352.17,-0.112,4.924,1.007,-0.356,-0.603,0.714,0.195,0.968,-0.160,2394.78,-0.560,5.707,0.560,-0.518,-0.833,0.194,0.177,0.019,-0.984,2491.79,2.126,2.350,-3.917,-0.023,0.072,0.997,-0.147,0.951,-0.274,2310.29,-2.686,5.483,1.679,0.306,-0.893,0.330,0.968,0.115,-0.222,9.798,18.885,-7.710,-0.504,0.853,0.310,-0.421,10.658,8.702,-9.267,-0.168,none
1.572677,0.292,0.917,-0.271,2513.64,-4.700,10.407,-10.407,-0.341,-0.599,0.725,0.373,0.906,-0.199,2568.04,-4.476,12.981,-9.736,-0.525,-0.834,0.172,0.177,-0.095,-0.980,2602.90,-7.386,5.707,-11.414,-0.034,0.038,0.999,-0.105,0.930,-0.351,2496.71,-10.407,10.407,5.931,0.336,-0.885,0.321,0.956,0.246,-0.159,10.556,15.221,-7.542,0.611,0.830,0.431,-0.355,11.210,4.336,-9.802,1.359,none
1.595884,0.368,0.882,-0.293,2632.81,-4.812,6.714,-8.952,-0.361,-0.617,0.699,0.436,0.874,-0.215,2693.69,-4.812,8.169,-7.945,-0.525,-0.834,0.168,0.178,-0.120,-0.977,2639.48,-5.819,3.357,-4.700,-0.024,0.069,0.997,-0.080,0.922,-0.378,2657.51,-5.931,5.483,4.924,0.306,-0.905,0.294,0.955,0.257,-0.149,10.904,3.405,-0.885,-0.794,0.829,0.438,-0.349,11.465,-7.878,-6.031,0.321,none
1.618198,0.349,0.894,-0.280,2642.18,-0.336,-3.917,2.238,-0.360,-0.622,0.695,0.395,0.896,-0.202,2672.80,-0.560,-5.707,2.798,-0.521,-0.833,0.186,0.182,-0.083,-0.980,2632.33,0.224,-0.560,4.476,-0.032,0.064,0.997,-0.080,0.932,-0.354,2640.58,5.595,-5.260,-0.895,0.292,-0.899,0.326,0.965,0.176,-0.197,10.368,-5.252,4.718,-3.176,0.845,0.351,-0.402,11.031,-17.176,-2.931,-1.710,none
2.043231,0.230,0.942,-0.244,2517.43,2.126,-7.945,8.729,-0.352,-0.624,0.698,0.277,0.944,-0.179,2535.87,1.902,-11.302,8.617,-0.518,-0.837,0.177,0.186,0.010,-0.982,2575.27,5.707,-2.798,10.519,-0.073,0.053,0.996,-0.104,0.953,-0.283,2509.72,9.960,-8.952,-3.469,0.288,-0.887,0.360,0.967,0.057,-0.249,9.973,-5.740,6.580,-5.160,0.859,0.242,-0.452,10.772,-17.649,-1.206,-3.527,none
2.043411,0.127,0.967,-0.221,2463.52,3.245,-6.826,10.183,-0.361,-0.601,0.713,0.194,0.968,-0.161,2515.10,3.133,-8.617,9.848,-0.521,-0.836,0.169,0.188,0.030,-0.982,2547.78,7.610,-3.469,8.841,0.004,0.054,0.999,-0.114,0.966,-0.232,2383.92,9.736,-7.610,-4.364,0.322,-0.892,0.316,0.960,-0.011,-0.279,9.594,0.122,6.031,-4.351,0.860,0.186,-0.474,10.485,-11.649,-1.008,-2.947,none
2.043512,0.098,0.971,-0.218,2402.86,3.805,-3.245,6.379,-0.341,-0.624,0.703,0.176,0.972,-0.158,2434.08,3.581,-3.805,5.595,-0.523,-0.835,0.171,0.188,0.054,-0.981,2501.27,5.036,-2.462,2.574,-0.026,0.052,0.998,-0.133,0.966,-0.221,2323.86,4.252,-2.686,-3.469,0.284,-0.902,0.326,0.960,0.011,-0.281,9.325,7.710,2.107,-3.695,0.855,0.206,-0.476,10.216,-3.527,-2.931,-2.901,none
2.043640,0.126,0.971,-0.204,2333.07,0.783,4.700,-1.119,-0.338,-0.605,0.721,0.214,0.965,-0.154,2369.82,1.231,6.267,-1.343,-0.519,-0.833,0.190,0.187,0.019,-0.982,2456.90,1.567,0.112,-4.812,-0.049,0.051,0.998,-0.130,0.958,-0.257,2311.72,-2.238,6.043,0.448,0.308,-0.888,0.342,0.964,0.107,-0.242,9.573,14.305,-3.740,-3.267,0.847,0.301,-0.437,10.441,3.328,-6.580,-2.779,none
2.043769,0.247,0.939,-0.241,2423.69,-2.910,8.393,-4.812,-0.355,-0.608,0.710,0.327,0.926,-0.190,2480.35,-2.238,9.512,-4.141,-0.527,-0.830,0.183,0.175,-0.063,-0.982,2516.06,-1.790,2.574,-8.393,-0.057,0.065,0.996,-0.102,0.937,-0.335,2468.69,-4.029,7.610,3.133,0.313,-0.892,0.326,0.965,0.196,-0.175,10.178,11.618,-4.534,-2.489,0.844,0.385,-0.374,10.877,0.565,-7.435,-1.725,none
2.043874,0.326,0.902,-0.282,2553.85,-3.693,5.819,-4.141,-0.353,-0.634,0.688,0.385,0.899,-0.209,2588.75,-3.133,6.379,-3.021,-0.528,-0.832,0.171,0.172,-0.084,-0.981,2609.36,-1.679,2.350,-2.574,-0.025,0.054,0.998,-0.091,0.935,-0.342,2537.05,-0.783,4.252,2.910,0.312,-0.899,0.306,0.967,0.189,-0.173,10.396,4.397,-1.176,-1.527,0.849,0.375,-0.372,11.081,-6.885,-5.954,-0.427,none
2.043970,0.296,0.912,-0.283,2579.66,-2.238,0.560,-0.448,-0.369,-0.610,0.701,0.351,0.915,-0.199,2616.72,-2.238,-0.560,0.112,-0.525,-0.834,0.168,0.173,-0.072,-0.982,2606.04,-0.224,0.000,2.910,0.000,0.060,0.998,-0.092,0.941,-0.327,2532.46,1.902,-0.783,1.007,0.304,-0.907,0.292,0.967,0.136,-0.213,10.152,0.198,1.832,-1.481,0.850,0.319,-0.418,10.870,-11.191,-4.443,-0.092,none
2.044040,0.243,0.939,-0.245,2506.65,0.895,-4.812,3.693,-0.360,-0.622,0.695,0.296,0.938,-0.182,2542.31,0.000,-5.931,2.798,-0.523,-0.834,0.178,0.188,0.007,-0.982,2546.70,1.902,-1.343,4.924,-0.095,0.059,0.994,-0.110,0.953,-0.284,2469.16,3.581,-4.141,-1.567,0.301,-0.900,0.315,0.966,0.067,-0.250,9.797,1.542,2.153,-2.015,0.855,0.253,-0.453,10.633,-9.634,-3.908,-0.901,none
2.044103,0.152,0.964,-0.219,2440.60,0.783,-1.902,2.350,-0.342,-0.620,0.706,0.236,0.957,-0.167,2481.01,0.783,-2.126,2.014,-0.520,-0.836,0.176,0.189,0.022,-0.982,2536.48,1.567,-0.671,2.910,0.013,0.072,0.997,-0.122,0.959,-0.257,2383.37,1.455,-1.567,-0.783,0.295,-0.907,0.299,0.964,0.035,-0.264,9.755,6.779,-0.275,-0.885,0.858,0.229,-0.460,10.629,-3.969,-4.931,-0.092,none
2.044163,0.152,0.962,-0.226,2454.68,-0.671,1.343,-2.238,-0.341,-0.624,0.703,0.231,0.958,-0.169,2498.39,-0.895,2.126,-2.462,-0.520,-0.835,0.179,0.183,0.007,-0.983,2563.51,-1.567,0.671,-1.790,-0.055,0.081,0.995,-0.130,0.956,-0.261,2378.78,-4.252,1.902,1.007,0.296,-0.893,0.340,0.966,0.073,-0.249,9.858,12.504,-2.656,1.008,0.856,0.267,-0.442,10.692,2.000,-5.832,1.252,none
2.044223,0.214,0.947,-0.240,2473.39,-1.455,5.148,-7.162,-0.350,-0.622,0.700,0.295,0.938,-0.184,2521.83,-1.343,6.155,-7.162,-0.526,-0.832,0.177,0.183,-0.012,-0.983,2564.64,-5.595,1.231,-5.371,-0.002,0.048,0.999,-0.118,0.945,-0.304,2467.81,-7.945,5.148,1.790,0.283,-0.899,0.335,0.965,0.165,-0.203,10.062,13.969,-2.916,0.565,0.847,0.350,-0.400,10.757,2.885,-5.679,0.855,none
2.044281,0.283,0.923,-0.261,2497.57,-1.455,5.483,-6.826,-0.348,-0.608,0.713,0.349,0.916,-0.197,2549.71,-0.895,6.491,-6.043,-0.509,-0.842,0.178,0.184,-0.058,-0.981,2548.16,-4.476,0.671,-5.931,-0.006,0.047,0.999,-0.096,0.939,-0.331,2528.23,-4.812,4.812,1.119,0.291,-0.903,0.315,0.960,0.215,-0.177,10.217,8.580,-0.809,-1.496,0.837,0.398,-0.375,10.852,-3.069,-4.748,-0.794,none
2.044340,0.331,0.903,-0.275,2519.60,0.000,1.902,-0.895,-0.338,-0.630,0.699,0.381,0.903,-0.199,2566.54,0.224,1.119,-0.112,-0.521,-0.836,0.175,0.184,-0.070,-0.980,2551.07,-0.112,-0.448,-2.126,-0.061,0.010,0.998,-0.083,0.936,-0.343,2557.44,1.343,1.007,-0.560,0.314,-0.904,0.291,0.962,0.203,-0.182,10.240,1.634,2.473,-4.168,0.840,0.384,-0.383,10.885,-10.473,-3.298,-2.855,none
2.044399,0.280,0.923,-0.263,2485.53,1.567,-2.798,5.707,-0.361,-0.606,0.709,0.355,0.914,-0.198,2535.49,1.790,-4.476,5.931,-0.517,-0.836,0.183,0.178,-0.055,-0.983,2535.13,4.588,-2.126,3.357,0.010,0.056,0.998,-0.093,0.944,-0.315,2501.08,7.610,-3.581,-2.350,0.274,-0.897,0.347,0.968,0.135,-0.210,9.944,-2.855,4.916,-5.664,0.853,0.319,-0.413,10.648,-15.053,-2.183,-4.031,none
2.044460,0.216,0.945,-0.247,2449.34,2.462,-5.036,8.952,-0.342,-0.620,0.706,0.276,0.943,-0.187,2478.67,2.574,-6.938,8.729,-0.523,-0.833,0.178,0.179,0.007,-0.984,2512.68,7.162,-2.462,7.386,-0.016,0.065,0.998,-0.108,0.953,-0.282,2415.72,9.848,-5.260,-3.133,0.295,-0.900,0.320,0.967,0.060,-0.249,9.647,-2.061,4.565,-6.076,0.858,0.247,-0.449,10.468,-14.183,-2.473,-4.458,none
2.044520,0.139,0.966,-0.219,2397.03,2.126,-3.581,8.281,-0.370,-0.625,0.687,0.212,0.964,-0.162,2434.39,1.790,-5.036,7.945,-0.526,-0.831,0.181,0.181,0.027,-0.983,2484.02,7.050,-1.679,6.043,-0.047,0.063,0.997,-0.124,0.961,-0.248,2346.29,7.498,-4.141,-2.238,0.305,-0.890,0.339,0.963,0.015,-0.269,9.557,2.656,1.969,-4.947,0.860,0.212,-0.464,10.406,-8.397,-4.015,-3.679,none
2.044579,0.127,0.966,-0.223,2395.38,0.112,0.448,3.805,-0.366,-0.589,0.720,0.208,0.964,-0.165,2442.60,0.112,0.224,3.357,-0.534,-0.829,0.168,0.179,0.027,-0.983,2513.52,4.141,0.560,1.902,-0.011,0.046,0.999,-0.129,0.961,-0.245,2336.44,2.238,-0.112,0.000,0.317,-0.889,0.331,0.966,0.037,-0.255,9.707,8.977,-1.618,-2.626,0.863,0.233,-0.448,10.558,-1.725,-5.634,-1.786,none
2.046171,0.164,0.958,-0.235,2445.55,-1.455,3.917,-1.567,-0.357,-0.613,0.705,0.251,0.951,-0.178,2485.98,-1.231,4.924,-1.679,-0.528,-0.833,0.164,0.180,-0.005,-0.984,2551.83,-2.462,2.238,-4.812,0.011,0.053,0.999,-0.130,0.948,-0.289,2388.26,-3.581,3.357,1.567,0.313,-0.892,0.326,0.968,0.101,-0.231,9.867,13.740,-3.863,0.168,0.855,0.295,-0.427,10.690,3.176,-6.733,0.336,none
2.046258,0.241,0.937,-0.251,2478.32,-2.462,5.819,-6.267,-0.370,-0.610,0.700,0.319,0.928,-0.194,2538.86,-2.014,7.274,-6.155,-0.530,-0.832,0.165,0.179,-0.050,-0.983,2574.76,-5.707,3.357,-6.938,-0.008,0.039,0.999,-0.124,0.938,-0.324,2436.05,-7.386,5.483,2.798,0.310,-0.886,0.344,0.964,0.172,-0.201,10.162,14.366,-5.084,1.939,0.844,0.358,-0.399,10.908,4.076,-7.573,2.137,none
2.048765,0.308,0.915,-0.260,2548.94,-4.029,4.924,-8.952,-0.383,-0.624,0.681,0.363,0.911,-0.194,2583.61,-3.357,6.043,-8.281,-0.533,-0.828,0.172,0.184,-0.087,-0.979,2614.57,-7.833,2.798,-5.707,-0.042,0.069,0.997,-0.099,0.928,-0.358,2533.39,-8.393,5.371,3.469,0.292,-0.898,0.328,0.960,0.211,-0.184,10.402,10.779,-3.405,1.802,0.836,0.396,-0.380,11.048,-0.153,-6.580,2.061,none
2.073657,0.324,0.908,-0.266,2568.51,-2.462,2.238,-5.371,-0.365,-0.611,0.703,0.379,0.904,-0.197,2604.67,-2.462,2.238,-5.036,-0.524,-0.836,0.167,0.184,-0.080,-0.980,2604.09,-5.371,1.455,-1.902,-0.022,0.030,0.999,-0.090,0.935,-0.344,2579.44,-3.021,1.231,1.455,0.297,-0.896,0.331,0.962,0.199,-0.188,10.321,3.405,1.130,-1.466,0.843,0.377,-0.384,10.970,-8.427,-3.908,-0.397,none
2.096740,0.290,0.920,-0.265,2535.75,0.112,-1.007,0.224,-0.345,-0.625,0.700,0.340,0.920,-0.196,2560.26,1.455,-4.141,3.357,-0.527,-0.833,0.170,0.185,-0.028,-0.982,2535.95,2.686,-2.126,4.029,-0.027,0.029,0.999,-0.091,0.941,-0.326,2542.80,5.036,-3.469,-2.238,0.304,-0.907,0.292,0.968,0.140,-0.209,9.960,-1.832,4.458,-3.832,0.852,0.323,-0.413,10.643,-14.061,-2.412,-2.351,none
2.119357,0.226,0.943,-0.244,2432.42,3.245,-5.260,7.274,-0.350,-0.604,0.716,0.281,0.942,-0.183,2468.95,2.910,-6.938,6.938,-0.532,-0.827,0.179,0.184,0.011,-0.983,2505.73,5.707,-2.910,6.043,-0.044,0.065,0.997,-0.105,0.957,-0.271,2405.79,7.833,-4.812,-3.021,0.298,-0.901,0.314,0.966,0.066,-0.249,9.671,-1.527,4.137,-4.580,0.856,0.254,-0.451,10.480,-13.511,-2.595,-2.977,none
2.142209,0.160,0.963,-0.219,2394.70,2.462,-4.588,6.938,-0.365,-0.622,0.693,0.228,0.960,-0.162,2434.33,2.350,-5.371,6.602,-0.527,-0.835,0.162,0.180,0.023,-0.983,2493.60,6.043,-2.350,5.148,-0.038,0.085,0.996,-0.120,0.962,-0.246,2332.99,6.379,-3.581,-2.350,0.294,-0.904,0.310,0.965,0.031,-0.262,9.472,3.038,2.031,-3.771,0.859,0.227,-0.459,10.301,-8.626,-3.740,-2.519,none
2.560617,0.142,0.963,-0.228,2350.07,1.231,-1.231,3.693,-0.344,-0.630,0.696,0.218,0.960,-0.175,2371.37,1.455,-1.679,3.357,-0.522,-0.837,0.166,0.176,0.027,-0.984,2452.10,2.238,0.000,1.119,0.000,0.055,0.998,-0.121,0.963,-0.241,2331.51,3.021,-1.231,-0.671,0.322,-0.892,0.316,0.968,0.053,-0.247,9.430,7.160,-1.145,-3.893,0.860,0.245,-0.448,10.217,-3.969,-5.893,-3.084,none
2.560785,0.162,0.959,-0.231,2359.80,-2.014,3.245,0.560,-0.357,-0.597,0.718,0.226,0.958,-0.174,2374.86,-1.790,3.581,0.671,-0.526,-0.831,0.181,0.176,0.023,-0.984,2451.85,1.007,2.126,-1.790,-0.046,0.035,0.998,-0.123,0.960,-0.251,2358.39,0.895,3.245,1.567,0.306,-0.893,0.330,0.968,0.066,-0.243,9.631,9.588,-2.977,-3.191,0.858,0.262,-0.441,10.480,-1.023,-6.794,-2.504,none
2.560893,0.205,0.947,-0.247,2444.19,-2.462,5.148,-2.350,-0.370,-0.610,0.701,0.277,0.941,-0.195,2472.87,-2.910,6.155,-2.238,-0.522,-0.837,0.166,0.181,-0.032,-0.983,2543.26,-0.783,3.917,-5.036,-0.092,0.061,0.994,-0.114,0.950,-0.291,2373.07,-3.581,4.588,3.021,0.303,-0.884,0.355,0.968,0.112,-0.226,9.914,12.504,-5.191,-0.382,0.853,0.306,-0.424,10.744,2.382,-8.275,0.122,none
2.561004,0.235,0.941,-0.242,2498.49,-3.917,5.595,-6.155,-0.348,-0.619,0.704,0.314,0.931,-0.185,2550.49,-3.917,6.714,-5.819,-0.526,-0.830,0.185,0.181,-0.057,-0.982,2598.21,-5.148,4.700,-5.483,-0.047,0.063,0.997,-0.106,0.939,-0.327,2473.32,-7.274,4.476,4.029,0.282,-0.905,0.317,0.966,0.153,-0.210,10.196,12.519,-5.557,1.679,0.847,0.342,-0.408,10.998,2.473,-8.565,2.107,none
2.561091,0.276,0.927,-0.255,2559.54,-3.693,4.364,-7.386,-0.366,-0.622,0.693,0.347,0.918,-0.192,2618.68,-4.029,5.371,-7.162,-0.520,-0.837,0.171,0.187,-0.068,-0.980,2622.41,-7.274,4.364,-4.476,-0.078,0.044,0.996,-0.099,0.935,-0.341,2538.96,-7.610,3.917,4.029,0.319,-0.904,0.285,0.962,0.176,-0.207,10.361,10.931,-4.641,2.672,0.842,0.363,-0.400,11.090,0.748,-7.954,3.023,none
2.561170,0.289,0.923,-0.253,2579.80,-3.693,2.126,-7.274,-0.368,-0.632,0.682,0.349,0.917,-0.191,2632.26,-3.805,3.021,-6.826,-0.528,-0.832,0.171,0.192,-0.071,-0.979,2645.25,-7.498,3.245,-3.245,-0.026,0.052,0.998,-0.101,0.932,-0.348,2576.34,-6.602,2.350,3.357,0.268,-0.904,0.332,0.961,0.189,-0.203,10.477,8.672,-2.702,1.573,0.839,0.371,-0.399,11.192,-1.985,-6.718,2.275,none
2.561248,0.294,0.923,-0.247,2602.22,-2.014,1.119,-4.924,-0.353,-0.602,0.716,0.355,0.916,-0.190,2647.55,-2.462,1.567,-4.812,-0.516,-0.843,0.155,0.199,-0.064,-0.978,2657.67,-4.029,0.671,-0.783,-0.008,0.038,0.999,-0.097,0.934,-0.345,2603.44,-3.917,1.343,1.902,0.311,-0.890,0.335,0.960,0.199,-0.198,10.466,5.374,0.550,-0.534,0.837,0.378,-0.394,11.141,-6.153,-4.382,0.321,none
2.561320,0.300,0.920,-0.253,2580.04,0.560,-1.790,0.783,-0.345,-0.625,0.700,0.357,0.914,-0.191,2630.16,1.343,-2.014,1.119,-0.517,-0.836,0.183,0.196,-0.050,-0.979,2593.76,0.448,-2.014,1.567,-0.030,0.036,0.999,-0.086,0.938,-0.335,2590.51,2.574,-1.679,-1.679,0.295,-0.900,0.320,0.962,0.191,-0.195,10.284,0.137,4.397,-3.588,0.842,0.370,-0.393,10.922,-12.427,-2.015,-2.275,none
2.561396,0.288,0.921,-0.263,2521.28,4.029,-4.364,6.379,-0.361,-0.617,0.699,0.345,0.919,-0.193,2554.38,3.917,-5.819,6.602,-0.519,-0.836,0.179,0.191,-0.039,-0.981,2560.32,5.819,-4.476,4.588,-0.082,0.025,0.996,-0.084,0.943,-0.322,2536.87,7.945,-4.141,-3.805,0.280,-0.911,0.304,0.965,0.145,-0.220,9.928,-4.366,6.351,-5.466,0.847,0.328,-0.418,10.633,-17.084,-1.374,-3.603,none
2.561472,0.230,0.944,-0.236,2429.67,4.029,-7.274,10.295,-0.346,-0.609,0.713,0.281,0.944,-0.176,2466.31,4.141,-9.288,9.960,-0.519,-0.837,0.174,0.184,-0.005,-0.983,2505.62,8.729,-5.036,7.498,0.000,0.048,0.999,-0.095,0.954,-0.284,2434.67,11.191,-6.938,-4.364,0.298,-0.891,0.343,0.966,0.082,-0.243,9.708,-5.298,6.748,-6.366,0.856,0.268,-0.442,10.478,-17.908,-1.176,-4.351,none
2.561543,0.159,0.961,-0.227,2398.20,4.364,-6.379,10.967,-0.387,-0.597,0.703,0.235,0.958,-0.165,2449.23,3.917,-8.169,10.631,-0.517,-0.841,0.160,0.185,0.027,-0.982,2486.83,9.736,-4.141,8.617,-0.020,0.056,0.998,-0.111,0.964,-0.243,2359.56,10.631,-6.714,-4.141,0.313,-0.892,0.326,0.964,0.017,-0.265,9.526,-2.275,5.664,-6.000,0.860,0.211,-0.464,10.388,-14.290,-1.573,-4.214,none
2.561614,0.119,0.969,-0.217,2379.06,3.357,-3.581,8.281,-0.360,-0.622,0.695,0.191,0.968,-0.164,2403.18,3.469,-5.148,7.722,-0.537,-0.829,0.156,0.174,0.039,-0.984,2472.74,8.169,-3.133,6.155,-0.066,0.046,0.997,-0.126,0.968,-0.218,2309.53,7.386,-4.364,-3.021,0.307,-0.896,0.321,0.961,-0.007,-0.277,9.393,3.832,2.229,-4.763,0.862,0.189,-0.470,10.274,-7.496,-3.634,-3.573,none
2.561690,0.100,0.971,-0.215,2351.15,0.783,0.112,3.581,-0.349,-0.609,0.712,0.176,0.972,-0.157,2383.13,1.007,-0.224,3.469,-0.532,-0.830,0.166,0.180,0.051,-0.982,2456.15,2.462,1.119,-1.343,-0.060,0.064,0.996,-0.130,0.966,-0.225,2323.94,3.581,-0.112,-0.671,0.310,-0.907,0.286,0.968,0.033,-0.250,9.600,10.382,-1.435,-4.916,0.863,0.227,-0.452,10.393,-1.084,-5.160,-4.305,none
2.561772,0.145,0.964,-0.224,2430.35,-0.895,6.714,-0.895,-0.353,-0.598,0.719,0.236,0.959,-0.158,2486.38,-0.560,7.945,-0.448,-0.529,-0.834,0.156,0.189,0.027,-0.982,2487.72,0.671,2.574,-6.491,-0.017,0.062,0.998,-0.125,0.958,-0.260,2322.60,-0.560,4.924,0.560,0.295,-0.890,0.347,0.967,0.080,-0.243,9.784,15.252,-4.061,-2.015,0.853,0.281,-0.439,10.676,4.779,-6.672,-1.649,none
2.561843,0.238,0.940,-0.245,2470.27,-2.462,8.169,-6.826,-0.354,-0.637,0.685,0.319,0.930,-0.186,2544.35,-2.014,9.960,-6.267,-0.534,-0.829,0.168,0.174,-0.077,-0.982,2588.12,-3.693,3.469,-9.624,-0.014,0.064,0.998,-0.120,0.932,-0.341,2428.16,-8.617,8.169,3.021,0.318,-0.888,0.332,0.964,0.178,-0.199,10.121,16.595,-6.046,1.954,0.842,0.364,-0.398,10.856,6.458,-8.092,2.015,none
2.561903,0.322,0.909,-0.266,2524.87,-3.357,7.610,-10.183,-0.373,-0.604,0.704,0.394,0.897,-0.198,2581.65,-3.469,9.512,-9.736,-0.525,-0.834,0.169,0.180,-0.106,-0.978,2608.68,-8.841,4.141,-9.064,-0.035,0.072,0.997,-0.098,0.922,-0.375,2573.15,-10.407,7.722,4.476,0.310,-0.894,0.324,0.955,0.235,-0.179,10.540,13.527,-6.061,1.908,0.828,0.416,-0.376,11.240,2.763,-8.595,2.443,none
2.561969,0.356,0.898,-0.258,2642.30,-4.364,4.252,-8.505,-0.357,-0.640,0.681,0.404,0.895,-0.188,2664.21,-4.476,5.148,-7.722,-0.521,-0.837,0.167,0.195,-0.115,-0.974,2666.95,-6.826,2.350,-4.364,-0.024,0.044,0.999,-0.084,0.919,-0.385,2633.23,-6.379,5.260,3.917,0.319,-0.900,0.296,0.952,0.253,-0.173,10.772,6.321,-1.420,-0.046,0.823,0.432,-0.369,11.385,-4.794,-5.939,0.885,none
2.562318,0.359,0.895,-0.265,2650.21,-1.679,0.671,-3.469,-0.362,-0.584,0.727,0.405,0.894,-0.191,2679.10,-0.224,-3.133,1.119,-0.533,-0.830,0.161,0.195,-0.072,-0.978,2607.09,-0.336,-1.567,2.574,-0.026,0.052,0.998,-0.072,0.929,-0.362,2668.12,4.141,-2.798,-1.007,0.290,-0.900,0.326,0.959,0.222,-0.176,10.554,-2.794,4.855,-4.275,0.837,0.398,-0.375,11.147,-15.420,-1.985,-2.718,none
2.562411,0.313,0.912,-0.265,2569.28,4.029,-7.162,9.960,-0.348,-0.608,0.713,0.347,0.917,-0.194,2588.60,4.029,-9.288,9.960,-0.516,-0.837,0.183,0.193,-0.035,-0.981,2590.31,8.281,-4.141,8.617,-0.024,0.061,0.998,-0.074,0.944,-0.323,2596.53,12.086,-7.610,-4.812,0.300,-0.898,0.322,0.966,0.119,-0.230,10.045,-8.748,8.565,-6.656,0.851,0.301,-0.429,10.803,-21.634,-0.183,-4.534,none
2.580819,0.195,0.954,-0.229,2466.08,6.043,-9.512,13.988,-0.342,-0.610,0.715,0.243,0.956,-0.166,2494.17,5.595,-12.086,13.093,-0.530,-0.830,0.173,0.188,0.022,-0.982,2547.28,11.526,-5.707,11.079,-0.042,0.069,0.997,-0.113,0.962,-0.248,2392.55,13.093,-9.400,-5.931,0.314,-0.884,0.347,0.962,0.013,-0.271,9.645,-5.145,8.550,-6.779,0.859,0.205,-0.468,10.512,-17.878,0.397,-4.992,none
2.603207,0.098,0.973,-0.207,2395.72,5.483,-6.602,11.750,-0.345,-0.629,0.697,0.166,0.975,-0.147,2407.00,5.707,-8.505,10.743,-0.534,-0.829,0.168,0.181,0.058,-0.982,2487.35,10.295,-5.371,9.064,-0.018,0.047,0.999,-0.138,0.967,-0.213,2321.09,9.960,-6.714,-5.483,0.307,-0.896,0.321,0.960,-0.017,-0.279,9.285,2.244,5.344,-6.855,0.861,0.178,-0.476,10.193,-10.092,-1.023,-5.573,none
2.624807,0.089,0.973,-0.211,2305.16,4.252,-0.671,7.274,-0.366,-0.622,0.693,0.166,0.974,-0.156,2338.65,4.141,-1.343,6.826,-0.528,-0.832,0.172,0.173,0.051,-0.984,2432.96,6.379,-1.343,-1.119,-0.044,0.054,0.998,-0.139,0.967,-0.215,2300.78,6.043,-0.560,-3.693,0.338,-0.891,0.304,0.963,0.010,-0.268,9.386,10.015,-0.015,-5.771,0.860,0.208,-0.465,10.351,-1.481,-3.863,-4.977,none
2.648094,0.162,0.961,-0.225,2417.10,-0.224,7.833,-1.679,-0.385,-0.617,0.686,0.228,0.960,-0.162,2434.33,-0.336,8.952,-1.119,-0.527,-0.833,0.170,0.178,-0.024,-0.984,2522.22,0.895,1.790,-7.945,0.000,0.038,0.999,-0.140,0.950,-0.280,2291.19,-3.917,7.162,0.671,0.316,-0.893,0.320,0.967,0.111,-0.228,9.703,17.435,-3.908,-1.389,0.853,0.307,-0.423,10.562,6.656,-6.122,-1.145,none
3.063219,0.280,0.923,-0.266,2454.12,-2.686,9.624,-8.505,-0.356,-0.586,0.728,0.337,0.921,-0.193,2492.23,-1.679,11.526,-8.169,-0.528,-0.833,0.167,0.169,-0.105,-0.980,2550.89,-4.700,2.686,-10.519,-0.077,0.073,0.994,-0.125,0.928,-0.352,2408.41,-9.848,8.505,2.798,0.316,-0.879,0.357,0.960,0.218,-0.173,10.100,16.366,-5.893,1.206,0.836,0.404,-0.370,10.838,5.679,-7.863,1.603,none
3.063404,0.367,0.888,-0.278,2561.93,-3.021,6.602,-9.512,-0.407,-0.614,0.676,0.420,0.883,-0.209,2588.02,-3.245,8.505,-8.393,-0.529,-0.833,0.163,0.177,-0.122,-0.977,2591.80,-7.945,3.581,-8.393,-0.047,0.070,0.996,-0.095,0.916,-0.389,2534.78,-8.617,6.491,3.805,0.332,-0.882,0.335,0.954,0.248,-0.167,10.517,9.496,-4.137,2.443,0.828,0.428,-0.361,11.161,-1.145,-7.695,3.084,none
3.063491,0.362,0.892,-0.270,2601.92,-2.798,1.119,-6.267,-0.362,-0.617,0.699,0.414,0.889,-0.197,2649.28,-3.357,2.126,-6.043,-0.530,-0.829,0.180,0.178,-0.131,-0.975,2636.28,-5.931,1.231,0.224,-0.021,0.071,0.997,-0.090,0.920,-0.380,2588.96,-4.700,1.455,2.686,0.305,-0.890,0.339,0.958,0.226,-0.178,10.463,3.023,-0.305,1.084,0.833,0.404,-0.378,11.086,-8.015,-5.786,2.061,none
3.063574,0.323,0.910,-0.260,2551.19,-1.455,-3.357,-1.902,-0.381,-0.614,0.692,0.355,0.914,-0.194,2586.46,-0.448,-5.483,1.119,-0.535,-0.827,0.174,0.188,-0.054,-0.981,2559.26,-0.448,-1.231,5.148,-0.006,0.062,0.998,-0.094,0.940,-0.329,2575.67,3.021,-4.700,-0.560,0.304,-0.887,0.347,0.965,0.163,-0.204,10.079,-2.427,3.511,-2.519,0.847,0.344,-0.405,10.791,-14.015,-3.435,-1.176,none
3.063672,0.245,0.937,-0.248,2478.51,2.350,-5.819,6.938,-0.373,-0.588,0.718,0.314,0.931,-0.187,2520.67,1.902,-7.498,6.602,-0.531,-0.826,0.189,0.192,0.003,-0.981,2557.39,4.812,-1.902,7.610,-0.018,0.082,0.996,-0.101,0.947,-0.304,2493.72,7.162,-5.371,-2.462,0.319,-0.884,0.343,0.967,0.081,-0.243,9.894,-3.053,4.397,-3.985,0.855,0.268,-0.443,10.679,-14.687,-2.672,-2.382,none
3.063763,0.186,0.956,-0.228,2472.77,2.462,-5.036,7.162,-0.359,-0.626,0.692,0.246,0.956,-0.162,2494.97,2.350,-6.602,6.714,-0.529,-0.833,0.163,0.188,0.022,-0.982,2547.28,5.707,-2.910,6.267,-0.021,0.089,0.996,-0.109,0.959,-0.263,2402.36,6.602,-4.700,-2.798,0.301,-0.886,0.353,0.964,0.039,-0.264,9.666,0.794,3.832,-3.435,0.857,0.230,-0.461,10.516,-10.809,-2.550,-2.061,none
3.063846,0.143,0.966,-0.215,2403.25,1.790,-2.574,3.693,-0.358,-0.612,0.705,0.213,0.964,-0.158,2423.15,2.574,-3.133,3.357,-0.530,-0.833,0.162,0.184,0.027,-0.983,2496.66,3.917,-2.350,3.357,-0.020,0.074,0.997,-0.119,0.962,-0.246,2365.26,3.133,-2.014,-1.902,0.301,-0.886,0.353,0.965,0.050,-0.256,9.472,5.405,1.099,-3.176,0.859,0.241,-0.452,10.305,-6.031,-4.107,-2.137,none
3.063937,0.158,0.960,-0.231,2358.20,0.336,0.671,1.119,-0.353,-0.609,0.710,0.232,0.957,-0.176,2400.89,0.895,1.231,1.231,-0.528,-0.831,0.175,0.178,0.023,-0.984,2473.30,2.126,-0.336,-1.119,-0.030,0.090,0.995,-0.124,0.959,-0.256,2352.30,0.783,1.231,-0.112,0.305,-0.893,0.330,0.967,0.077,-0.244,9.616,8.260,-1.206,-3.099,0.858,0.266,-0.440,10.410,-2.809,-5.618,-2.275,none
3.064012,0.188,0.954,-0.232,2393.34,-1.119,3.245,-0.895,-0.362,-0.601,0.712,0.271,0.945,-0.181,2449.69,-0.783,4.029,-0.560,-0.525,-0.833,0.172,0.180,-0.009,-0.984,2503.87,0.112,1.455,-3.693,-0.004,0.086,0.996,-0.118,0.950,-0.290,2383.72,-1.231,3.245,1.231,0.325,-0.879,0.349,0.968,0.111,-0.226,9.765,10.305,-2.183,-2.382,0.855,0.300,-0.424,10.568,-0.565,-6.168,-1.679,none
3.064077,0.250,0.936,-0.249,2463.88,-2.238,4.476,-3.245,-0.368,-0.599,0.711,0.312,0.929,-0.197,2502.77,-1.679,4.924,-2.910,-0.535,-0.828,0.169,0.181,-0.051,-0.982,2546.27,-1.902,2.126,-4.252,-0.015,0.045,0.999,-0.110,0.939,-0.326,2452.68,-3.245,3.357,1.902,0.308,-0.888,0.342,0.967,0.157,-0.203,9.968,10.092,-2.443,-1.359,0.848,0.347,-0.401,10.731,-0.779,-6.321,-0.687,none
3.064135,0.280,0.923,-0.263,2485.53,-1.679,3.245,-3.021,-0.363,-0.586,0.725,0.347,0.917,-0.198,2537.06,-1.679,3.805,-2.574,-0.525,-0.832,0.180,0.176,-0.070,-0.982,2557.28,-2.350,1.902,-2.238,-0.006,0.047,0.999,-0.110,0.934,-0.339,2474.07,-2.686,2.686,1.679,0.318,-0.885,0.341,0.964,0.174,-0.201,10.018,7.725,-2.092,-0.809,0.844,0.358,-0.400,10.766,-3.023,-6.489,-0.137,none
3.064198,0.284,0.924,-0.255,2482.25,-2.014,1.567,-2.238,-0.369,-0.626,0.687,0.350,0.916,-0.198,2540.55,-1.679,1.790,-2.014,-0.528,-0.831,0.175,0.180,-0.073,-0.981,2558.72,-2.238,1.902,-1.679,-0.035,0.062,0.997,-0.109,0.933,-0.342,2478.41,-1.790,1.119,1.902,0.311,-0.890,0.335,0.965,0.168,-0.202,10.045,5.756,-1.603,-0.992,0.845,0.351,-0.404,10.772,-5.115,-6.519,-0.122,none
3.064262,0.272,0.930,-0.247,2487.68,-2.014,-0.224,-1.119,-0.346,-0.628,0.697,0.336,0.923,-0.190,2532.14,-1.902,0.112,-1.007,-0.527,-0.835,0.162,0.184,-0.051,-0.982,2556.93,-1.007,1.119,1.119,-0.047,0.063,0.997,-0.101,0.938,-0.333,2487.43,-0.336,0.000,1.679,0.292,-0.892,0.345,0.966,0.148,-0.212,9.997,4.183,-0.229,-1.725,0.848,0.332,-0.413,10.753,-6.870,-5.588,-0.687,none
3.064350,0.253,0.936,-0.244,2479.84,-1.119,-0.783,0.560,-0.366,-0.605,0.707,0.310,0.932,-0.187,2525.93,-1.119,-1.567,1.231,-0.526,-0.832,0.177,0.189,-0.024,-0.982,2546.39,-0.224,0.560,2.238,0.004,0.080,0.997,-0.103,0.947,-0.306,2454.04,1.902,-1.343,0.560,0.284,-0.886,0.365,0.966,0.116,-0.232,9.852,3.802,0.076,-1.908,0.850,0.301,-0.432,10.643,-7.053,-5.405,-0.809,none
3.064411,0.217,0.948,-0.235,2442.11,-1.343,-1.455,0.895,-0.359,-0.626,0.692,0.279,0.945,-0.170,2482.52,-1.007,-1.119,0.895,-0.529,-0.830,0.177,0.190,-0.009,-0.982,2527.10,0.224,0.671,1.343,-0.040,0.064,0.997,-0.112,0.948,-0.297,2428.10,1.007,-1.119,0.895,0.324,-0.876,0.357,0.965,0.101,-0.241,9.826,5.603,-0.855,-1.878,0.850,0.288,-0.442,10.645,-5.176,-5.832,-0.824,none
3.064469,0.212,0.951,-0.226,2453.62,-1.231,0.783,-0.336,-0.354,-0.612,0.707,0.278,0.945,-0.174,2492.74,-1.567,0.895,-0.448,-0.535,-0.829,0.162,0.191,-0.020,-0.981,2558.87,-0.336,1.455,-0.112,-0.034,0.048,0.998,-0.104,0.947,-0.305,2424.49,-1.007,0.448,1.455,0.306,-0.897,0.320,0.965,0.113,-0.237,9.965,7.756,-2.031,-0.611,0.848,0.302,-0.435,10.765,-2.824,-6.382,0.229,none
3.064527,0.235,0.944,-0.233,2503.17,-2.126,1.455,-2.910,-0.354,-0.607,0.711,0.303,0.936,-0.178,2547.43,-2.350,2.126,-2.686,-0.540,-0.825,0.166,0.194,-0.039,-0.980,2580.87,-2.462,1.902,-1.455,-0.030,0.055,0.998,-0.103,0.943,-0.315,2441.04,-3.133,1.231,1.902,0.300,-0.897,0.325,0.966,0.134,-0.221,10.041,9.176,-2.305,0.947,0.848,0.321,-0.422,10.824,-1.252,-6.275,1.557,none
3.066106,0.251,0.937,-0.242,2499.52,-2.126,2.126,-4.700,-0.370,-0.578,0.728,0.322,0.928,-0.189,2549.43,-2.238,2.238,-4.588,-0.528,-0.834,0.160,0.186,-0.047,-0.981,2578.91,-4.252,1.679,-1.790,-0.057,0.086,0.995,-0.113,0.939,-0.325,2484.90,-4.476,1.231,1.902,0.315,-0.890,0.329,0.966,0.155,-0.208,10.096,8.977,-2.305,1.481,0.847,0.343,-0.407,10.816,-1.618,-6.260,1.939,none
3.066193,0.269,0.929,-0.252,2509.16,-1.790,1.455,-4.812,-0.365,-0.622,0.693,0.340,0.920,-0.192,2557.40,-2.014,1.679,-4.700,-0.525,-0.834,0.169,0.186,-0.058,-0.981,2580.42,-4.700,0.671,-2.126,-0.008,0.066,0.998,-0.112,0.934,-0.338,2506.60,-4.252,1.455,1.679,0.289,-0.905,0.314,0.963,0.180,-0.201,10.137,7.695,-1.511,0.702,0.841,0.363,-0.400,10.835,-3.053,-5.908,1.344,none
3.089440,0.289,0.924,-0.249,2504.59,-1.343,0.336,-2.574,-0.358,-0.612,0.705,0.352,0.916,-0.193,2551.83,-0.783,0.000,-2.462,-0.526,-0.833,0.173,0.189,-0.063,-0.980,2541.80,-2.462,-0.448,-0.671,-0.008,0.038,0.999,-0.096,0.934,-0.343,2528.64,-1.455,0.671,0.671,0.294,-0.884,0.364,0.961,0.199,-0.190,10.090,3.481,1.023,-2.229,0.840,0.379,-0.389,10.732,-8.244,-4.534,-1.145,none
3.112589,0.300,0.917,-0.263,2481.34,0.671,-1.902,2.350,-0.348,-0.593,0.726,0.359,0.912,-0.196,2505.21,0.783,-2.574,2.350,-0.527,-0.833,0.170,0.187,-0.052,-0.981,2510.81,1.902,-1.567,2.014,-0.066,0.036,0.997,-0.082,0.941,-0.329,2489.04,3.469,-1.455,-0.895,0.290,-0.901,0.323,0.964,0.158,-0.212,9.884,-2.290,2.855,-4.015,0.844,0.341,-0.414,10.583,-14.214,-4.168,-2.290,none
3.134736,0.258,0.935,-0.244,2433.43,1.790,-5.260,6.938,-0.391,-0.634,0.667,0.301,0.936,-0.184,2464.73,1.567,-6.714,6.714,-0.522,-0.835,0.172,0.184,-0.024,-0.983,2505.35,5.260,-1.790,6.938,-0.033,0.059,0.998,-0.088,0.954,-0.287,2406.13,7.162,-4.700,-1.343,0.307,-0.886,0.349,0.965,0.076,-0.250,9.677,-3.328,2.672,-3.725,0.853,0.265,-0.449,10.462,-14.702,-4.534,-1.985,none
3.156762,0.167,0.962,-0.215,2404.67,0.224,-5.707,6.491,-0.372,-0.621,0.690,0.244,0.956,-0.161,2443.53,0.224,-6.826,6.155,-0.526,-0.833,0.174,0.185,0.031,-0.982,2487.09,4.029,-0.671,7.945,-0.030,0.048,0.998,-0.102,0.961,-0.259,2367.32,6.267,-5.371,-0.560,0.312,-0.892,0.326,0.962,0.023,-0.272,9.572,0.153,1.069,-3.282,0.858,0.213,-0.467,10.403,-10.718,-5.344,-1.847,none
3.573009,0.110,0.971,-0.212,2391.11,-1.007,-2.798,3.693,-0.362,-0.617,0.699,0.189,0.969,-0.158,2428.69,-0.895,-3.245,3.357,-0.530,-0.830,0.173,0.189,0.058,-0.980,2491.04,2.462,0.895,4.364,-0.008,0.055,0.998,-0.120,0.968,-0.219,2349.21,3.133,-2.350,0.783,0.283,-0.905,0.318,0.960,0.003,-0.279,9.568,5.786,-1.176,-3.130,0.859,0.197,-0.473,10.433,-5.099,-6.260,-2.107,none
3.573144,0.114,0.972,-0.207,2399.86,-1.679,2.126,0.224,-0.380,-0.603,0.702,0.184,0.971,-0.150,2434.57,-1.455,2.238,0.224,-0.529,-0.832,0.171,0.192,0.050,-0.980,2502.65,0.448,2.574,-1.007,-0.019,0.053,0.998,-0.119,0.966,-0.230,2364.65,-0.560,1.679,1.902,0.303,-0.899,0.316,0.964,0.038,-0.264,9.731,11.695,-3.618,-2.626,0.855,0.236,-0.462,10.613,1.298,-7.221,-2.153,none
3.573243,0.156,0.964,-0.214,2450.57,-3.021,6.155,-3.693,-0.377,-0.636,0.673,0.255,0.953,-0.160,2521.34,-2.574,7.722,-3.245,-0.532,-0.833,0.151,0.194,-0.001,-0.981,2579.92,-1.790,4.252,-6.267,-0.060,0.082,0.995,-0.108,0.953,-0.282,2415.72,-4.588,5.819,2.798,0.312,-0.892,0.326,0.965,0.115,-0.236,10.089,15.420,-5.130,-1.053,0.849,0.312,-0.428,10.914,5.008,-7.710,-0.687,none
3.573344,0.251,0.937,-0.242,2541.00,-2.798,7.945,-6.826,-0.374,-0.629,0.681,0.341,0.921,-0.188,2610.25,-2.462,9.848,-6.043,-0.524,-0.837,0.155,0.191,-0.046,-0.981,2621.92,-4.700,4.252,-8.841,-0.038,0.085,0.996,-0.100,0.935,-0.341,2515.92,-7.833,7.274,3.245,0.310,-0.894,0.324,0.963,0.178,-0.202,10.358,14.916,-4.901,0.962,0.841,0.365,-0.400,11.114,4.565,-7.511,1.099,none
3.573430,0.309,0.917,-0.251,2598.37,-2.910,6.714,-8.057,-0.394,-0.627,0.672,0.371,0.909,-0.191,2634.34,-2.910,7.945,-7.610,-0.538,-0.826,0.168,0.188,-0.093,-0.978,2657.18,-7.274,2.686,-6.602,-0.011,0.046,0.999,-0.099,0.930,-0.355,2552.90,-7.945,6.155,3.021,0.292,-0.892,0.345,0.958,0.210,-0.197,10.489,11.725,-3.374,1.527,0.833,0.390,-0.391,11.205,1.084,-6.595,1.893,none
3.573515,0.323,0.912,-0.254,2613.22,-2.014,3.469,-6.938,-0.365,-0.635,0.680,0.376,0.907,-0.189,2650.51,-2.350,4.476,-6.602,-0.530,-0.831,0.169,0.199,-0.090,-0.976,2652.21,-5.595,1.119,-3.693,0.020,0.054,0.998,-0.085,0.927,-0.365,2620.71,-5.595,4.141,2.014,0.288,-0.892,0.348,0.956,0.222,-0.193,10.612,7.618,-0.687,-0.489,0.831,0.400,-0.387,11.257,-3.985,-4.870,0.290,none
3.573592,0.325,0.911,-0.253,2624.66,-0.448,0.895,-2.798,-0.377,-0.636,0.673,0.378,0.907,-0.185,2662.39,0.895,-0.448,0.112,-0.526,-0.835,0.161,0.201,-0.083,-0.976,2632.92,-0.336,-1.567,0.224,-0.023,0.080,0.997,-0.077,0.931,-0.356,2630.55,1.343,-0.560,-1.567,0.310,-0.894,0.324,10.092,2.315,-1.920,10.530,0.870,4.290,-3.115,0.835,0.402,-0.375,11.184,-11.664,-2.061,-1.435,none
3.573683,0.330,0.905,-0.268,2586.78,5.036,-5.707,6.602,-0.382,-0.639,0.668,0.381,0.903,-0.197,2640.78,5.371,-6.826,5.819,-0.524,-0.836,0.163,0.197,-0.065,-0.978,2587.20,6.155,-4.364,4.700,-0.025,0.064,0.998,-0.075,0.935,-0.347,2588.10,6.491,-4.700,-4.476,0.302,-0.896,0.325,9.740,1.695,-2.073,10.101,-6.519,7.908,-4.214,0.846,0.354,-0.398,10.805,-20.504,-0.260,-1.771,none
3.573762,0.260,0.931,-0.255,2484.73,6.938,-10.855,11.414,-0.366,-0.596,0.715,0.329,0.924,-0.195,2528.67,6.602,-12.645,10.183,-0.519,-0.838,0.170,0.188,-0.020,-0.982,2547.16,8.393,-6.491,8.841,-0.002,0.056,0.998,-0.092,0.952,-0.293,2419.21,10.072,-8.617,-6.267,0.311,-0.903,0.297,9.345,0.764,-2.442,9.689,-7.191,8.489,-3.771,0.852,0.265,-0.452,10.518,-21.084,-0.198,-1.466,none
3.573839,0.156,0.966,-0.208,2385.96,6.714,-11.974,11.638,-0.370,-0.594,0.714,0.241,0.958,-0.154,2427.66,6.267,-14.660,9.960,-0.535,-0.828,0.166,0.185,0.023,-0.982,2486.58,8.617,-6.267,9.288,-0.028,0.081,0.996,-0.116,0.958,-0.261,2341.69,8.841,-8.841,-6.043,0.298,-0.902,0.312,9.024,0.144,-2.631,9.401,-2.000,6.061,-3.344,0.855,0.207,-0.476,10.276,-14.702,-1.466,-1.450,none
3.573926,0.126,0.967,-0.220,2341.56,4.700,-7.722,7.050,-0.389,-0.596,0.703,0.219,0.957,-0.192,2410.34,4.029,-9.736,5.483,-0.531,-0.830,0.171,0.184,0.039,-0.982,2446.66,4.029,-3.357,2.910,-0.024,0.037,0.999,-0.133,0.963,-0.233,2330.68,2.910,-7.050,-4.252,0.305,-0.890,0.339,9.134,0.263,-2.449,9.460,5.023,3.023,-2.611,0.864,0.228,-0.450,10.328,-7.985,-4.076,-0.504,none
3.573999,0.172,0.945,-0.277,2395.56,0.783,-4.812,2.238,-0.365,-0.635,0.680,0.269,0.941,-0.207,2472.51,0.560,-10.519,-1.902,-0.528,-0.829,0.186,0.174,0.023,-0.984,2470.55,0.560,-0.224,-3.133,-0.066,0.068,0.996,-0.121,0.958,-0.259,2330.95,-5.148,-0.560,-0.783,0.317,-0.882,0.349,9.412,0.821,-2.231,9.707,8.443,0.061,-0.183,0.861,0.286,-0.421,10.573,-5.435,-5.511,2.137,none
3.574066,0.209,0.951,-0.227,2441.06,-0.224,-7.610,-1.567,-0.362,-0.601,0.713,0.297,0.933,-0.203,2565.80,-1.007,-16.674,-8.393,-0.519,-0.839,0.166,0.173,-0.043,-0.984,2550.82,-3.581,0.112,-4.924,-0.058,0.035,0.998,-0.125,0.941,-0.315,2406.74,-8.169,-0.336,-0.112,0.327,-0.885,0.330,9.555,1.360,-2.212,9.902,11.115,-1.313,2.305,0.845,0.324,-0.425,10.692,-1.786,-5.832,3.511,none
3.574126,0.270,0.931,-0.245,2464.83,0.224,-4.700,-4.364,-0.374,-0.629,0.681,0.323,0.930,-0.178,2481.95,1.119,-10.072,-8.617,-0.524,-0.835,0.170,0.181,-0.078,-0.980,2540.84,-6.267,0.336,-4.141,-0.019,0.088,0.996,-0.117,0.930,-0.349,2486.31,-9.064,0.783,0.448,0.289,-0.905,0.314,9.644,1.990,-1.915,10.031,11.527,-2.580,2.473,0.836,0.376,-0.400,10.750,-1.053,-6.244,3.084,none
3.574186,0.294,0.926,-0.237,2466.44,-3.021,-1.343,-5.707,-0.354,-0.607,0.711,0.331,0.929,-0.165,2450.65,-1.455,-5.260,-7.050,-0.526,-0.831,0.181,0.183,-0.092,-0.979,2574.48,-5.707,0.783,-3.021,-0.064,0.037,0.997,-0.103,0.930,-0.353,2540.03,-6.714,1.119,1.455,0.300,-0.898,0.322,9.833,2.090,-2.028,10.255,7.038,-1.817,0.382,0.834,0.384,-0.395,10.943,-4.031,-6.046,1.099,none
3.574244,0.308,0.916,-0.257,2545.44,-0.560,-0.112,-2.238,-0.353,-0.638,0.684,0.363,0.910,-0.198,2585.57,-0.783,0.448,-2.462,-0.512,-0.842,0.171,0.189,-0.061,-0.980,2591.71,-1.231,0.000,0.895,-0.073,0.043,0.996,-0.094,0.933,-0.346,2563.55,-2.126,0.671,0.783,0.293,-0.909,0.297,9.912,1.980,-1.987,10.301,3.038,1.115,-1.603,0.843,0.372,-0.388,10.960,-8.580,-4.382,-0.595,none
3.574304,0.290,0.923,-0.253,2538.37,1.343,-2.462,1.790,-0.372,-0.621,0.690,0.325,0.926,-0.193,2553.65,2.910,-2.238,4.029,-0.524,-0.835,0.170,0.182,-0.054,-0.982,2578.02,2.574,-2.350,4.252,-0.054,0.054,0.997,-0.099,0.943,-0.318,2538.27,4.364,-3.581,-2.014,0.315,-0.887,0.338,9.704,1.360,-2.191,10.040,-0.779,3.908,-3.344,0.852,0.318,-0.416,10.757,-12.321,-2.458,-2.305,none
3.575349,0.222,0.944,-0.244,2470.72,4.029,-3.021,6.602,-0.353,-0.609,0.710,0.265,0.945,-0.189,2501.38,3.805,-2.238,6.714,-0.524,-0.831,0.187,0.188,-0.001,-0.982,2555.49,5.707,-2.462,5.819,-0.056,0.062,0.997,-0.111,0.955,-0.274,2452.21,6.938,-4.029,-3.021,0.301,-0.893,0.334,9.467,0.668,-2.430,9.796,0.076,4.107,-4.198,0.856,0.259,-0.447,10.584,-11.542,-2.214,-2.977,none
3.575435,0.169,0.958,-0.232,2434.41,3.581,-1.567,5.819,-0.358,-0.612,0.705,0.237,0.956,-0.175,2473.74,3.581,-0.448,6.043,-0.519,-0.839,0.165,0.187,0.023,-0.982,2516.93,5.371,-2.350,3.917,0.013,0.080,0.997,-0.121,0.960,-0.251,2398.35,5.595,-3.133,-2.798,0.329,-0.884,0.332,9.335,0.433,-2.478,9.668,4.473,2.427,-3.802,0.857,0.240,-0.456,10.504,-7.267,-2.840,-2.748,none
3.593705,0.158,0.961,-0.226,2415.50,2.686,1.119,2.798,-0.385,-0.617,0.686,0.230,0.958,-0.172,2457.76,3.021,3.133,3.357,-0.523,-0.833,0.178,0.187,0.023,-0.982,2516.93,3.133,-1.455,0.448,-0.051,0.061,0.997,-0.123,0.957,-0.263,2365.85,2.574,0.112,-1.679,0.305,-0.897,0.319,9.325,0.752,-2.344,9.645,9.008,0.672,-3.206,0.856,0.274,-0.439,10.474,-2.519,-3.740,-2.351,none
3.615571,0.211,0.944,-0.255,2410.75,1.567,3.357,-0.112,-0.356,-0.581,0.732,0.281,0.939,-0.199,2467.02,0.895,4.700,-1.007,-0.522,-0.834,0.176,0.179,-0.016,-0.984,2513.94,0.895,0.000,-4.252,0.004,0.080,0.997,-0.122,0.949,-0.290,2384.92,-2.014,3.245,-0.336,0.314,-0.884,0.346,9.486,1.367,-2.073,9.806,10.305,-0.855,-2.519,0.850,0.329,-0.411,10.580,-1.405,-4.687,-1.695,none
3.638758,0.268,0.928,-0.258,2451.11,-0.112,4.029,-2.126,-0.357,-0.617,0.702,0.326,0.924,-0.198,2485.15,0.000,5.371,-1.455,-0.534,-0.826,0.181,0.178,-0.067,-0.982,2527.14,-0.336,0.671,-4.141,0.025,0.064,0.998,-0.115,0.936,-0.334,2452.57,-1.790,3.357,0.336,0.299,-0.888,0.350,9.620,1.702,-1.946,9.961,8.626,-0.977,-2.092,0.845,0.360,-0.396,10.718,-2.947,-5.053,-1.237,none
3.662126,0.295,0.917,-0.270,2491.68,-0.336,2.798,-1.343,-0.367,-0.606,0.706,0.356,0.912,-0.203,2527.45,-0.448,3.693,-1.119,-0.524,-0.835,0.170,0.175,-0.085,-0.981,2570.11,-0.448,1.007,-2.350,-0.042,0.082,0.996,-0.110,0.931,-0.348,2463.80,-1.007,2.350,0.560,0.299,-0.902,0.313,9.713,1.743,-1.958,10.061,5.985,-0.962,-1.053,0.845,0.360,-0.395,10.799,-5.344,-5.527,0.015,none
4.083193,0.285,0.922,-0.264,2511.05,-0.671,0.112,-0.895,-0.349,-0.634,0.691,0.346,0.917,-0.197,2546.23,-0.783,0.783,-0.671,-0.521,-0.838,0.164,0.179,-0.077,-0.981,2570.26,-1.231,0.560,-0.560,-0.016,0.073,0.997,-0.114,0.932,-0.343,2469.26,-0.336,-0.112,0.671,0.296,-0.903,0.310,9.711,1.611,-2.057,10.056,4.565,-0.458,-0.397,0.847,0.344,-0.405,10.802,-6.748,-5.542,0.702,none
4.083368,0.271,0.928,-0.258,2495.93,-0.112,-1.231,-0.336,-0.377,-0.624,0.685,0.331,0.923,-0.197,2542.24,-0.448,-1.007,-0.448,-0.525,-0.834,0.168,0.183,-0.047,-0.982,2567.24,-1.231,-0.112,1.679,-0.057,0.086,0.995,-0.109,0.939,-0.325,2482.85,0.224,-1.455,0.448,0.288,-0.902,0.323,9.680,1.374,-2.169,10.015,3.710,0.244,-0.321,0.850,0.326,-0.414,10.774,-7.481,-5.115,0.824,none
4.083455,0.248,0.933,-0.262,2490.67,0.336,-1.679,0.112,-0.353,-0.619,0.702,0.304,0.933,-0.194,2536.00,0.224,-1.007,0.112,-0.526,-0.830,0.185,0.184,-0.028,-0.983,2554.61,-0.671,-0.336,1.790,-0.010,0.063,0.998,-0.114,0.943,-0.312,2463.06,0.112,-1.902,-0.224,0.302,-0.896,0.325,9.591,1.243,-2.198,9.918,3.969,0.626,-0.290,0.853,0.314,-0.417,10.651,-7.863,-4.763,0.931,none
4.083540,0.231,0.940,-0.249,2461.47,1.119,-2.126,0.224,-0.362,-0.601,0.712,0.289,0.939,-0.189,2500.78,0.783,-1.790,-0.112,-0.523,-0.830,0.197,0.185,-0.020,-0.982,2534.48,-0.560,-0.448,1.343,-0.011,0.046,0.999,-0.115,0.946,-0.303,2444.69,-0.336,-1.567,-0.336,0.328,-0.888,0.322,9.474,1.130,-2.227,9.797,4.244,0.580,-0.382,0.852,0.304,-0.426,10.575,-7.542,-4.855,0.962,none
4.083631,0.228,0.942,-0.247,2446.34,1.231,-2.126,0.112,-0.373,-0.605,0.704,0.291,0.937,-0.194,2483.94,1.007,-0.783,-0.112,-0.514,-0.838,0.182,0.183,-0.016,-0.983,2514.77,-0.783,-0.448,0.560,-0.061,0.045,0.997,-0.116,0.947,-0.301,2424.64,-0.783,-0.783,-0.112,0.289,-0.891,0.351,9.471,1.159,-2.234,9.800,5.771,-0.168,-0.534,0.850,0.308,-0.427,10.573,-6.183,-5.206,0.840,none
4.083714,0.229,0.942,-0.244,2435.41,0.448,-1.902,-0.224,-0.357,-0.570,0.740,0.295,0.936,-0.194,2485.94,0.112,-0.336,-0.895,-0.518,-0.841,0.157,0.182,-0.032,-0.983,2534.41,-0.895,0.000,-0.336,-0.030,0.082,0.996,-0.115,0.945,-0.308,2438.29,-1.679,-0.224,0.336,0.303,-0.899,0.317,9.512,1.353,-2.133,9.842,6.198,-0.595,-0.977,0.850,0.325,-0.414,10.591,-5.420,-5.328,0.214,none
4.083798,0.249,0.935,-0.251,2441.99,-0.112,-0.448,-1.007,-0.346,-0.584,0.735,0.307,0.931,-0.198,2478.90,-0.671,0.112,-0.671,-0.518,-0.841,0.157,0.176,-0.036,-0.984,2502.80,-0.671,0.224,-0.448,-0.046,0.037,0.998,-0.114,0.941,-0.317,2455.84,-0.895,0.336,0.560,0.299,-0.894,0.333,0.967,0.153,-0.203,9.883,5.328,-0.290,-1.542,0.850,0.339,-0.404,10.608,-6.198,-5.359,-0.458,none
4.083880,0.265,0.927,-0.267,2444.43,-0.560,-0.336,-0.112,-0.382,-0.613,0.692,0.326,0.923,-0.202,2486.23,-0.336,-1.007,0.783,-0.528,-0.831,0.175,0.175,-0.048,-0.983,2521.76,0.336,0.000,0.783,-0.025,0.064,0.998,-0.111,0.941,-0.320,2437.77,0.000,0.000,0.560,0.326,-0.893,0.311,0.968,0.147,-0.202,9.897,2.534,-0.183,-1.450,0.854,0.340,-0.393,10.628,-9.435,-5.817,0.092,none
4.083948,0.271,0.923,-0.274,2454.66,0.560,-2.686,1.902,-0.356,-0.628,0.692,0.318,0.926,-0.206,2491.39,-0.224,-4.252,2.014,-0.521,-0.837,0.170,0.178,-0.036,-0.983,2523.09,0.224,0.448,2.910,-0.016,0.065,0.998,-0.104,0.946,-0.308,2434.18,2.014,-2.798,0.783,0.302,-0.896,0.325,0.969,0.116,-0.220,9.836,0.870,-0.046,-1.008,0.853,0.299,-0.427,10.613,-10.504,-6.015,0.443,none
4.084026,0.209,0.948,-0.239,2441.18,-0.112,-4.588,2.574,-0.362,-0.601,0.712,0.271,0.946,-0.178,2489.29,-1.007,-4.252,1.902,-0.514,-0.840,0.173,0.182,-0.016,-0.983,2532.47,-0.112,0.560,3.917,-0.021,0.054,0.998,-0.116,0.954,-0.278,2414.21,2.126,-3.133,1.007,0.322,-0.875,0.361,0.965,0.074,-0.250,9.765,2.916,-0.427,-1.069,0.852,0.264,-0.453,10.605,-7.908,-6.000,0.061,none
4.084100,0.177,0.956,-0.235,2439.97,-0.448,-2.686,1.455,-0.345,-0.614,0.710,0.244,0.954,-0.175,2478.31,-1.455,-1.119,0.000,-0.524,-0.829,0.194,0.186,0.015,-0.982,2525.40,-0.448,1.679,2.014,-0.016,0.065,0.998,-0.121,0.955,-0.270,2411.14,-0.224,-1.231,1.343,0.291,-0.903,0.315,0.967,0.071,-0.245,9.802,6.565,-1.695,-1.069,0.857,0.263,-0.444,10.639,-4.092,-6.443,-0.107,none
4.084165,0.184,0.954,-0.238,2456.44,-1.567,0.671,-1.007,-0.374,-0.631,0.679,0.251,0.951,-0.182,2486.83,-1.679,0.560,-1.119,-0.532,-0.830,0.170,0.188,0.011,-0.982,2556.61,-1.902,2.238,-0.895,0.000,0.060,0.998,-0.120,0.953,-0.277,2424.93,-2.574,0.783,1.902,0.312,-0.886,0.344,0.965,0.085,-0.247,9.928,9.176,-2.473,-0.397,0.855,0.277,-0.438,10.720,-1.328,-6.473,0.214,none
4.084224,0.212,0.948,-0.238,2493.28,-2.014,2.686,-3.581,-0.361,-0.601,0.713,0.278,0.943,-0.183,2528.25,-2.350,3.469,-3.133,-0.516,-0.836,0.187,0.186,-0.012,-0.982,2576.31,-2.574,2.462,-2.238,0.000,0.073,0.997,-0.119,0.949,-0.290,2445.50,-3.917,1.790,2.126,0.320,-0.887,0.334,0.966,0.120,-0.231,10.080,11.359,-3.084,0.550,0.851,0.310,-0.424,10.875,0.916,-6.611,0.947,none
4.093692,0.240,0.938,-0.250,2530.11,-2.462,3.469,-5.595,-0.344,-0.630,0.696,0.305,0.933,-0.192,2566.09,-2.462,5.371,-4.812,-0.515,-0.837,0.185,0.189,-0.042,-0.981,2598.98,-4.924,2.014,-3.693,0.006,0.064,0.998,-0.108,0.941,-0.320,2498.75,-5.707,3.021,2.126,0.295,-0.894,0.338,0.965,0.155,-0.214,10.224,11.298,-2.779,1.405,0.845,0.345,-0.409,10.961,0.656,-6.336,1.832,none
4.093843,0.282,0.923,-0.261,2537.80,-1.790,3.245,-6.043,-0.377,-0.608,0.698,0.336,0.922,-0.194,2587.88,-1.679,4.029,-5.371,-0.522,-0.834,0.180,0.188,-0.050,-0.981,2600.88,-5.148,1.790,-3.245,-0.015,0.045,0.999,-0.100,0.938,-0.333,2519.82,-5.483,2.574,2.014,0.281,-0.906,0.316,0.962,0.183,-0.202,10.263,9.115,-1.374,0.916,0.841,0.366,-0.398,10.954,-1.939,-5.527,1.481,none
4.093932,0.290,0.921,-0.262,2534.30,-0.895,1.231,-4.252,-0.374,-0.631,0.679,0.349,0.917,-0.195,2579.42,-1.119,2.910,-4.364,-0.523,-0.833,0.181,0.194,-0.054,-0.980,2583.66,-2.798,0.000,-0.783,0.018,0.067,0.998,-0.099,0.935,-0.340,2548.31,-2.238,0.448,0.112,0.321,-0.896,0.306,0.962,0.183,-0.201,10.207,6.076,1.023,-1.038,0.841,0.364,-0.399,10.884,-5.252,-3.893,-0.336,none
4.094050,0.284,0.923,-0.259,2516.74,0.671,0.560,-1.007,-0.364,-0.611,0.703,0.340,0.920,-0.196,2560.26,1.567,0.224,0.671,-0.519,-0.837,0.173,0.189,-0.051,-0.981,2540.15,0.448,-1.790,1.231,0.000,0.069,0.998,-0.104,0.938,-0.330,2508.05,1.231,-0.895,-1.343,0.324,-0.887,0.327,0.965,0.163,-0.206,10.011,2.947,2.916,-2.687,0.847,0.349,-0.400,10.709,-8.794,-2.794,-1.527,none
4.095030,0.267,0.928,-0.261,2462.06,2.462,-1.679,3.357,-0.357,-0.597,0.718,0.325,0.924,-0.201,2495.47,2.574,-1.902,3.357,-0.521,-0.835,0.178,0.182,-0.036,-0.983,2523.91,3.469,-1.902,2.798,-0.020,0.066,0.998,-0.106,0.943,-0.316,2463.06,3.917,-2.238,-2.126,0.302,-0.881,0.363,0.967,0.127,-0.222,9.821,0.809,3.206,-2.870,0.852,0.312,-0.421,10.573,-10.672,-2.962,-1.679,none
4.132812,0.173,0.958,-0.229,2375.20,-0.448,0.112,1.007,-0.346,-0.592,0.728,0.245,0.954,-0.174,2428.33,-0.224,0.112,1.231,-0.530,-0.827,0.185,0.181,0.019,-0.983,2484.54,1.119,0.560,0.895,0.022,0.062,0.998,-0.122,0.956,-0.266,2379.02,1.007,-0.224,0.336,0.311,-0.890,0.335,0.967,0.145,-0.212,10.102,9.435,-1.969,-0.015,0.848,0.334,-0.411,10.903,-1.496,-5.985,0.611,none
4.145276,0.173,0.958,-0.229,2375.20,-0.783,3.133,-2.462,-0.356,-0.596,0.720,0.288,0.939,-0.188,2508.29,-0.224,0.112,1.231,-0.523,-0.832,0.185,0.186,-0.035,-0.982,2577.69,-2.238,1.679,-2.686,-0.030,0.045,0.999,-0.110,0.944,-0.311,2471.37,-3.469,2.126,1.679,0.289,-0.907,0.305,0.965,0.156,-0.210,10.186,8.916,-1.725,0.397,0.846,0.344,-0.407,10.970,-2.031,-5.817,1.023,none
4.172266,0.277,0.926,-0.256,2551.20,-0.336,1.231,-3.357,-0.371,-0.595,0.713,0.340,0.920,-0.194,2590.34,-1.007,2.126,-3.357,-0.524,-0.832,0.184,0.188,-0.065,-0.980,2612.93,-3.805,0.671,-1.790,-0.066,0.036,0.997,-0.107,0.936,-0.335,2534.50,-3.917,1.007,0.783,0.299,-0.894,0.333,0.965,0.165,-0.204,10.287,7.145,-0.305,0.824,0.844,0.353,-0.403,11.037,-4.046,-4.855,1.542,none
4.593093,0.279,0.925,-0.258,2565.53,-0.112,-0.336,-2.686,-0.341,-0.605,0.719,0.341,0.920,-0.192,2613.07,-0.224,0.448,-2.798,-0.527,-0.831,0.179,0.191,-0.057,-0.980,2613.60,-3.133,-0.560,-0.336,-0.046,0.030,0.998,-0.103,0.937,-0.333,2542.82,-1.679,-0.783,-0.671,0.305,-0.897,0.319,0.965,0.166,-0.204,10.188,4.840,1.863,0.153,0.844,0.353,-0.404,10.915,-6.656,-3.389,1.069,none
4.593267,0.274,0.927,-0.257,2506.07,1.455,-1.567,-1.007,-0.369,-0.583,0.724,0.333,0.922,-0.197,2552.61,1.902,-2.238,-0.112,-0.523,-0.834,0.178,0.188,-0.032,-0.982,2547.93,-0.112,-2.574,2.350,-0.037,0.060,0.998,-0.104,0.942,-0.319,2507.10,0.336,-2.238,-1.679,0.309,-0.898,0.313,0.966,0.154,-0.208,9.951,2.031,3.649,-1.985,0.849,0.337,-0.406,10.655,-9.863,-2.412,-0.763,none
4.593353,0.252,0.933,-0.258,2450.02,2.798,-3.021,3.581,-0.345,-0.598,0.724,0.305,0.932,-0.193,2494.64,2.910,-3.805,3.245,-0.521,-0.833,0.188,0.184,-0.016,-0.983,2504.94,3.133,-3.133,3.581,0.013,0.032,0.999,-0.107,0.949,-0.298,2448.00,4.141,-2.910,-2.910,0.304,-0.907,0.292,0.968,0.117,-0.223,9.704,0.198,4.351,-3.527,0.853,0.303,-0.425,10.472,-11.969,-2.046,-2.092,none
4.593435,0.214,0.946,-0.245,2383.41,3.469,-3.693,5.483,-0.382,-0.597,0.706,0.278,0.942,-0.191,2428.79,3.581,-4.476,5.148,-0.533,-0.829,0.172,0.182,-0.001,-0.983,2474.27,4.812,-3.133,4.252,-0.004,0.052,0.999,-0.114,0.955,-0.275,2372.50,5.595,-3.245,-3.133,0.294,-0.905,0.308,0.968,0.081,-0.239,9.511,0.779,3.771,-4.137,0.858,0.270,-0.437,10.290,-11.053,-2.672,-2.794,none
4.593526,0.183,0.951,-0.249,2349.90,2.350,-2.462,5.148,-0.358,-0.612,0.705,0.247,0.950,-0.188,2405.21,2.574,-3.469,4.924,-0.525,-0.833,0.172,0.181,0.019,-0.983,2442.60,5.148,-2.462,3.469,-0.025,0.054,0.998,-0.120,0.958,-0.261,2343.83,5.483,-2.462,-2.350,0.323,-0.888,0.328,0.967,0.063,-0.245,9.434,3.084,1.573,-4.183,0.858,0.253,-0.447,10.237,-8.412,-4.275,-2.855,none
4.593617,0.172,0.957,-0.233,2343.96,1.119,-0.895,3.805,-0.369,-0.627,0.686,0.241,0.954,-0.177,2386.51,1.343,-1.679,3.805,-0.530,-0.832,0.161,0.176,0.023,-0.984,2451.85,3.805,-0.336,1.119,-0.010,0.055,0.998,-0.124,0.957,-0.261,2345.05,2.462,0.336,0.000,0.311,-0.902,0.299,0.968,0.062,-0.244,9.572,6.595,-1.053,-3.802,0.859,0.256,-0.444,10.386,-4.534,-5.878,-2.748,none
4.593704,0.183,0.954,-0.239,2405.49,-0.671,2.014,1.231,-0.374,-0.599,0.708,0.258,0.948,-0.188,2465.60,-1.902,3.469,0.112,-0.515,-0.839,0.178,0.180,0.003,-0.984,2503.78,0.000,2.574,-2.462,-0.068,0.060,0.996,-0.127,0.953,-0.276,2365.63,-0.895,2.462,1.679,0.341,-0.885,0.316,0.969,0.093,-0.230,9.755,10.183,-2.947,-2.061,0.857,0.286,-0.428,10.581,-0.687,-6.870,-1.389,none
4.593787,0.228,0.940,-0.254,2451.10,-2.238,3.581,-2.238,-0.360,-0.601,0.713,0.277,0.942,-0.191,2470.95,-2.462,5.148,-3.021,-0.522,-0.834,0.180,0.182,-0.032,-0.983,2534.41,-2.686,3.021,-4.141,-0.017,0.062,0.998,-0.120,0.944,-0.309,2430.97,-4.029,3.581,2.686,0.330,-0.887,0.324,0.967,0.138,-0.214,9.948,11.130,-4.092,-0.794,0.850,0.331,-0.410,10.725,0.489,-7.695,-0.015,none
4.593868,0.265,0.928,-0.263,2483.24,-3.245,3.581,-4.700,-0.369,-0.630,0.683,0.344,0.918,-0.196,2555.41,-3.245,5.371,-4.252,-0.515,-0.840,0.171,0.181,-0.069,-0.981,2590.29,-4.252,3.469,-4.141,-0.030,0.048,0.998,-0.109,0.934,-0.340,2497.09,-4.924,3.805,3.245,0.313,-0.892,0.326,0.964,0.174,-0.199,10.186,9.893,-4.076,0.198,0.844,0.361,-0.397,10.939,-0.794,-7.893,0.916,none
4.593930,0.292,0.919,-0.264,2547.86,-2.574,1.790,-4.141,-0.343,-0.595,0.727,0.354,0.914,-0.197,2597.56,-3.469,3.357,-4.029,-0.524,-0.832,0.184,0.187,-0.076,-0.979,2613.98,-4.588,2.910,-2.910,-0.049,0.053,0.997,-0.107,0.933,-0.343,2530.65,-3.805,2.238,3.133,0.317,-0.889,0.331,0.963,0.185,-0.197,10.346,7.435,-2.656,0.229,0.842,0.370,-0.392,11.059,-3.466,-6.992,1.115,none
4.594023,0.300,0.916,-0.265,2577.45,-1.902,-0.112,-2.350,-0.348,-0.593,0.726,0.359,0.912,-0.196,2612.91,-2.014,0.448,-2.238,-0.518,-0.838,0.172,0.183,-0.068,-0.981,2620.56,-3.357,1.567,-0.112,-0.035,0.072,0.997,-0.099,0.936,-0.339,2556.73,-1.790,0.112,1.902,0.294,-0.911,0.289,0.963,0.182,-0.198,10.296,3.771,0.183,-1.008,0.844,0.365,-0.393,10.952,-7.603,-5.191,0.076,none
4.594101,0.276,0.925,-0.259,2519.73,-0.224,-2.238,0.895,-0.377,-0.608,0.698,0.329,0.925,-0.192,2556.92,-0.336,-2.910,0.448,-0.517,-0.838,0.175,0.187,-0.039,-0.982,2567.26,0.000,-0.224,2.462,-0.033,0.088,0.996,-0.095,0.941,-0.326,2542.80,1.679,-1.679,0.000,0.310,-0.900,0.306,0.966,0.144,-0.215,10.029,0.504,2.687,-2.763,0.849,0.326,-0.415,10.747,-11.145,-3.557,-1.557,none
4.594177,0.227,0.941,-0.250,2458.24,1.343,-3.357,4.364,-0.374,-0.615,0.694,0.303,0.933,-0.192,2513.30,1.343,-4.252,4.141,-0.522,-0.838,0.157,0.189,-0.016,-0.982,2545.99,3.021,-1.343,4.141,-0.018,0.055,0.998,-0.103,0.950,-0.295,2444.09,4.700,-3.469,-1.567,0.311,-0.890,0.335,0.966,0.091,-0.241,9.739,0.916,2.504,-3.069,0.853,0.281,-0.439,10.533,-10.595,-3.695,-1.649,none
4.594469,0.198,0.951,-0.237,2423.41,1.455,-2.910,4.364,-0.373,-0.589,0.717,0.261,0.948,-0.180,2463.31,1.007,-2.798,3.245,-0.520,-0.836,0.175,0.187,-0.001,-0.982,2507.44,2.798,-0.895,2.910,-0.004,0.086,0.996,-0.118,0.954,-0.277,2385.69,2.910,-2.238,-0.895,0.313,-0.892,0.326,0.966,0.072,-0.248,9.655,3.939,0.733,-2.519,0.855,0.266,-0.445,10.486,-7.313,-4.809,-1.359,none
4.594557,0.187,0.954,-0.234,2415.71,0.336,-0.783,2.126,-0.372,-0.621,0.690,0.259,0.948,-0.185,2454.25,0.000,-0.224,1.007,-0.532,-0.826,0.187,0.183,0.003,-0.983,2514.45,0.783,0.224,0.560,-0.056,0.062,0.997,-0.118,0.954,-0.275,2372.71,0.560,-0.224,0.448,0.327,-0.878,0.350,0.966,0.085,-0.245,9.707,6.458,-1.160,-1.237,0.854,0.276,-0.442,10.528,-4.427,-6.046,-0.290,none
4.594631,0.202,0.948,-0.245,2429.27,-1.007,0.448,-0.448,-0.373,-0.604,0.704,0.272,0.944,-0.187,2474.98,-1.231,1.119,-1.790,-0.520,-0.835,0.178,0.187,-0.001,-0.982,2517.27,-2.126,1.231,-1.119,-0.051,0.051,0.997,-0.117,0.953,-0.280,2397.05,-1.790,1.007,1.455,0.305,-0.893,0.330,0.966,0.110,-0.234,9.831,8.290,-2.198,-0.855,0.854,0.301,-0.425,10.594,-2.397,-6.672,-0.015,none
4.594701,0.242,0.938,-0.248,2476.07,-1.679,1.567,-2.462,-0.370,-0.594,0.715,0.309,0.931,-0.195,2528.81,-1.902,2.238,-2.126,-0.523,-0.834,0.174,0.188,-0.020,-0.982,2547.16,-2.686,1.455,-2.014,-0.065,0.034,0.997,-0.109,0.944,-0.313,2492.43,-2.238,1.902,1.679,0.327,-0.878,0.350,0.966,0.148,-0.212,10.099,7.466,-1.420,-1.206,0.849,0.337,-0.407,10.821,-3.374,-5.969,-0.473,none
4.596047,0.262,0.929,-0.260,2510.17,-1.231,1.231,-1.679,-0.361,-0.617,0.699,0.329,0.924,-0.196,2559.79,-1.119,1.007,-0.671,-0.522,-0.836,0.168,0.182,-0.050,-0.982,2577.55,-1.343,0.783,-0.895,-0.039,0.037,0.999,-0.109,0.941,-0.321,2490.28,-0.671,0.783,0.783,0.306,-0.893,0.330,0.966,0.149,-0.213,10.114,5.893,-0.489,-0.947,0.849,0.336,-0.408,10.857,-5.099,-5.389,-0.092,none
4.596128,0.262,0.929,-0.260,2510.17,-0.671,0.224,-0.783,-0.362,-0.612,0.703,0.326,0.925,-0.193,2545.32,-0.783,-0.448,-0.448,-0.527,-0.831,0.181,0.183,-0.043,-0.982,2565.81,-1.007,0.448,0.560,-0.069,0.063,0.996,-0.105,0.944,-0.314,2482.86,-0.336,-0.336,0.448,0.326,-0.896,0.303,0.966,0.138,-0.220,10.022,4.763,-0.031,-0.824,0.848,0.325,-0.418,10.771,-6.321,-5.176,0.183,none
4.608053,0.244,0.938,-0.247,2486.94,-0.224,-1.007,-0.336,-0.346,-0.614,0.710,0.306,0.933,-0.191,2524.74,-0.336,-1.455,-0.224,-0.520,-0.834,0.182,0.191,-0.020,-0.981,2558.87,-1.007,-0.112,1.119,-0.017,0.020,1.000,-0.102,0.945,-0.310,2478.81,0.448,-0.895,0.336,0.313,-0.881,0.354,0.965,0.113,-0.237,9.999,4.656,0.076,-1.099,0.850,0.301,-0.433,10.788,-6.443,-5.084,-0.122,none
4.631741,0.216,0.948,-0.234,2492.11,-0.224,-1.007,0.112,-0.361,-0.601,0.713,0.278,0.945,-0.171,2533.32,-0.448,-1.455,0.224,-0.528,-0.832,0.168,0.195,-0.005,-0.981,2569.15,-0.448,-0.224,0.895,-0.011,0.038,0.999,-0.102,0.953,-0.286,2480.20,0.448,-0.671,-0.224,0.323,-0.888,0.328,0.966,0.106,-0.234,10.016,5.496,0.916,-1.832,0.852,0.296,-0.431,10.794,-5.985,-4.092,-0.840,none
4.654792,0.217,0.946,-0.243,2487.42,0.783,0.000,0.448,-0.361,-0.575,0.734,0.282,0.941,-0.186,2532.71,0.895,0.000,0.224,-0.518,-0.838,0.174,0.195,0.003,-0.981,2570.12,0.448,-0.560,0.336,-0.021,0.063,0.998,-0.102,0.953,-0.286,2480.20,0.895,0.112,-1.007,0.289,-0.891,0.351,0.966,0.111,-0.232,9.977,5.817,1.847,-2.611,0.853,0.300,-0.428,10.723,-5.863,-3.206,-1.603,none
4.678228,0.219,0.946,-0.241,2466.09,1.567,0.224,0.783,-0.383,-0.624,0.681,0.284,0.940,-0.188,2514.83,1.902,0.783,0.895,-0.519,-0.835,0.183,0.192,-0.005,-0.981,2548.58,2.126,-1.343,-0.671,-0.028,0.060,0.998,-0.106,0.952,-0.288,2461.14,1.119,0.336,-1.567,0.326,-0.879,0.348,0.967,0.112,-0.228,9.894,6.489,1.832,-2.962,0.853,0.303,-0.425,10.648,-5.282,-3.053,-2.000,none
5.102223,0.227,0.941,-0.250,2458.24,1.790,1.343,0.895,-0.349,-0.588,0.730,0.290,0.938,-0.189,2491.40,2.126,1.231,0.783,-0.521,-0.834,0.180,0.182,-0.016,-0.983,2532.47,2.126,-1.567,-1.119,-0.014,0.064,0.998,-0.115,0.947,-0.299,2440.74,0.783,1.007,-1.679,0.287,-0.909,0.303,9.493,1.233,-2.188,9.820,6.992,1.527,-2.931,0.852,0.313,-0.420,10.593,-4.748,-3.237,-2.076,none
5.102353,0.245,0.935,-0.255,2441.80,1.343,1.902,0.336,-0.377,-0.609,0.698,0.307,0.931,-0.198,2478.90,1.902,1.902,0.783,-0.520,-0.838,0.164,0.178,-0.036,-0.983,2523.09,1.790,-1.007,-1.679,-0.044,0.065,0.997,-0.117,0.943,-0.311,2410.92,0.560,1.343,-1.455,0.301,-0.893,0.334,9.452,1.305,-2.133,9.777,6.840,0.840,-2.153,0.851,0.323,-0.415,10.564,-4.779,-3.893,-1.313,none
5.102444,0.251,0.934,-0.253,2424.23,0.783,1.007,-0.224,-0.379,-0.603,0.702,0.319,0.927,-0.198,2479.02,1.119,1.231,-0.112,-0.521,-0.838,0.164,0.179,-0.040,-0.983,2514.61,0.448,-0.671,-1.343,-0.004,0.046,0.999,-0.116,0.942,-0.314,2414.68,0.224,1.119,-0.783,0.303,-0.891,0.337,9.412,1.319,-2.114,9.736,6.672,0.076,-1.557,0.850,0.324,-0.415,10.523,-4.595,-4.641,-0.718,none
5.102526,0.246,0.936,-0.253,2431.10,0.000,0.783,-0.783,-0.356,-0.628,0.692,0.312,0.929,-0.199,2471.77,-0.112,0.895,-0.671,-0.523,-0.834,0.174,0.180,-0.044,-0.983,2495.38,-0.783,0.336,-0.448,-0.042,0.046,0.998,-0.116,0.942,-0.314,2414.68,-0.783,0.783,0.336,0.297,-0.899,0.322,9.467,1.355,-2.148,9.801,6.763,-0.840,-1.298,0.848,0.326,-0.417,10.560,-4.229,-5.511,-0.427,none
5.102608,0.257,0.931,-0.259,2443.24,-0.448,0.783,-1.119,-0.341,-0.605,0.719,0.314,0.929,-0.197,2494.41,-0.783,1.119,-0.783,-0.542,-0.822,0.175,0.182,-0.044,-0.982,2525.68,-1.231,0.895,-0.336,-0.018,0.047,0.999,-0.111,0.942,-0.316,2434.59,-1.119,0.671,0.895,0.287,-0.906,0.311,9.584,1.408,-2.157,9.924,6.305,-1.069,-1.160,0.848,0.331,-0.414,10.673,-4.656,-5.756,-0.290,none
5.102681,0.257,0.933,-0.251,2480.55,-0.783,0.560,-1.007,-0.380,-0.619,0.688,0.314,0.929,-0.195,2525.42,-1.119,0.671,-0.895,-0.513,-0.839,0.180,0.188,-0.035,-0.982,2557.07,-1.343,1.007,0.000,-0.063,0.059,0.996,-0.110,0.944,-0.311,2471.37,-0.783,0.224,1.231,0.301,-0.900,0.315,9.685,1.391,-2.193,10.027,5.374,-0.809,-1.160,0.850,0.327,-0.413,10.810,-5.725,-5.679,-0.183,none
5.102746,0.247,0.937,-0.249,2500.76,-0.560,-0.448,-0.224,-0.341,-0.584,0.737,0.308,0.931,-0.194,2539.06,-0.783,-0.560,-0.224,-0.529,-0.833,0.163,0.186,-0.024,-0.982,2576.84,-0.895,0.783,0.671,-0.019,0.070,0.997,-0.105,0.947,-0.304,2494.64,-0.224,-0.336,0.671,0.298,-0.891,0.343,9.730,1.293,-2.224,10.064,4.901,0.137,-1.863,0.850,0.318,-0.420,10.842,-6.427,-4.916,-0.870,none
5.102820,0.235,0.940,-0.249,2503.15,0.224,-0.224,0.895,-0.364,-0.594,0.717,0.295,0.936,-0.189,2545.84,-0.448,-0.671,0.671,-0.528,-0.832,0.171,0.190,-0.020,-0.982,2577.52,0.448,0.112,0.671,-0.010,0.048,0.999,-0.109,0.947,-0.302,2484.46,1.119,-0.336,-0.560,0.308,-0.888,0.342,9.653,1.190,-2.274,9.989,4.870,1.282,-2.382,0.851,0.309,-0.425,10.748,-6.565,-4.031,-1.344,none
5.102884,0.229,0.941,-0.248,2477.47,0.671,-0.224,1.231,-0.338,-0.601,0.724,0.294,0.937,-0.187,2523.50,0.783,-0.448,1.231,-0.519,-0.838,0.169,0.184,-0.024,-0.983,2554.35,1.455,-0.783,0.448,-0.085,0.043,0.995,-0.107,0.948,-0.299,2439.47,1.119,-0.224,-0.783,0.304,-0.891,0.339,9.529,1.183,-2.260,9.864,5.298,1.115,-2.046,0.851,0.306,-0.426,10.646,-6.168,-4.015,-1.038,none
5.103351,0.235,0.939,-0.250,2454.41,0.671,0.112,0.560,-0.387,-0.597,0.703,0.299,0.935,-0.194,2488.91,0.783,-0.112,0.448,-0.530,-0.829,0.180,0.183,-0.020,-0.983,2515.94,0.783,-0.895,0.224,-0.024,0.076,0.997,-0.107,0.947,-0.304,2432.06,0.112,-0.336,-0.560,0.307,-0.896,0.321,9.467,1.245,-2.179,9.794,5.695,0.534,-1.908,0.850,0.314,-0.422,10.569,-5.756,-4.489,-0.916,none
5.103444,0.241,0.936,-0.255,2440.31,0.895,0.000,0.336,-0.350,-0.633,0.691,0.300,0.934,-0.194,2480.50,0.560,0.224,0.224,-0.517,-0.836,0.185,0.179,-0.032,-0.983,2513.93,0.336,0.000,0.224,-0.006,0.062,0.998,-0.112,0.944,-0.310,2419.21,0.112,0.112,-0.112,0.315,-0.900,0.301,9.481,1.228,-2.191,9.808,5.740,-0.076,-1.695,0.850,0.316,-0.421,10.572,-5.450,-5.084,-0.580,none
5.103515,0.245,0.936,-0.252,2439.52,-0.224,0.224,-0.112,-0.369,-0.627,0.686,0.310,0.930,-0.197,2491.29,-0.336,0.112,-0.448,-0.525,-0.835,0.164,0.186,-0.032,-0.982,2525.44,0.224,0.336,0.000,-0.024,0.076,0.997,-0.107,0.945,-0.309,2428.51,-0.224,-0.112,0.560,0.314,-0.904,0.291,9.517,1.255,-2.172,9.842,5.802,-0.489,-1.298,0.851,0.317,-0.419,10.624,-5.313,-5.389,-0.382,none
5.103582,0.240,0.938,-0.251,2446.46,-0.336,-0.112,-0.448,-0.370,-0.610,0.701,0.302,0.934,-0.193,2491.61,-0.895,0.000,-0.336,-0.515,-0.839,0.178,0.183,-0.032,-0.983,2516.72,-0.448,0.560,0.112,0.020,0.084,0.996,-0.111,0.946,-0.304,2433.16,-0.336,-0.112,0.671,0.289,-0.905,0.314,9.522,1.250,-2.172,9.846,5.695,-0.748,-1.221,0.851,0.317,-0.419,10.599,-5.313,-5.725,-0.260,none
5.103648,0.240,0.937,-0.254,2448.74,-1.007,0.000,-0.783,-0.373,-0.620,0.691,0.305,0.932,-0.197,2497.53,-1.007,-0.224,-0.448,-0.523,-0.834,0.174,0.182,-0.028,-0.983,2523.30,-0.895,1.007,0.336,-0.054,0.069,0.996,-0.111,0.946,-0.304,2433.16,-0.448,-0.112,1.119,0.284,-0.894,0.345,9.534,1.271,-2.186,9.863,5.420,-0.992,-1.267,0.850,0.318,-0.421,10.644,-5.511,-6.092,-0.137,none
5.103713,0.240,0.937,-0.254,2448.74,-1.119,-0.671,-0.336,-0.358,-0.612,0.705,0.304,0.933,-0.192,2503.97,-1.119,-0.224,-0.224,-0.519,-0.834,0.186,0.186,-0.024,-0.982,2525.86,-1.007,1.119,0.224,-0.045,0.084,0.995,-0.106,0.946,-0.306,2454.98,-0.560,-0.224,1.231,0.275,-0.892,0.358,9.536,1.211,-2.227,9.867,5.176,-0.901,-1.191,0.850,0.313,-0.425,10.663,-5.664,-5.985,-0.214,none
5.103777,0.234,0.941,-0.245,2468.85,-1.119,-0.336,-0.336,-0.353,-0.624,0.697,0.300,0.935,-0.188,2508.39,-1.343,-0.224,-0.224,-0.522,-0.833,0.182,0.189,-0.024,-0.982,2537.56,-1.119,1.231,0.448,0.006,0.079,0.997,-0.103,0.948,-0.302,2451.01,-0.448,-0.112,1.231,0.329,-0.884,0.332,9.615,1.197,-2.258,9.949,5.542,-1.084,-1.145,0.851,0.308,-0.425,10.724,-5.496,-6.137,-0.076,none
5.103840,0.233,0.940,-0.248,2479.78,-1.119,-0.671,-0.224,-0.356,-0.603,0.714,0.294,0.936,-0.191,2525.39,-1.119,-0.336,-0.448,-0.527,-0.830,0.182,0.188,-0.013,-0.982,2555.68,-1.007,1.007,0.448,-0.011,0.038,0.999,-0.106,0.949,-0.296,2467.93,-0.448,-0.336,1.119,0.319,-0.898,0.304,9.646,1.164,-2.277,9.979,5.344,-0.702,-1.237,0.853,0.306,-0.423,10.751,-5.725,-5.725,-0.244,none
5.105473,0.224,0.943,-0.247,2485.56,-1.119,-0.671,0.000,-0.354,-0.637,0.685,0.291,0.938,-0.187,2520.57,-1.119,-0.560,-0.224,-0.520,-0.837,0.171,0.191,-0.009,-0.982,2568.27,-0.448,0.671,0.336,-0.006,0.047,0.999,-0.105,0.950,-0.294,2485.97,-0.112,-0.112,0.671,0.305,-0.910,0.282,9.656,1.159,-2.327,10.000,5.695,-0.107,-1.832,0.851,0.305,-0.426,10.762,-5.450,-5.053,-0.855,none
5.105559,0.225,0.944,-0.240,2479.75,-0.112,0.448,-0.112,-0.329,-0.584,0.742,0.287,0.941,-0.180,2522.66,-0.112,0.112,0.000,-0.518,-0.838,0.174,0.187,-0.020,-0.982,2565.81,0.448,0.224,-0.224,-0.023,0.080,0.997,-0.110,0.947,-0.301,2461.56,0.000,0.112,0.112,0.305,-0.901,0.309,9.615,1.202,-2.270,9.952,6.351,0.122,-2.137,0.850,0.312,-0.424,10.718,-4.962,-4.626,-1.160,none
5.107706,0.237,0.940,-0.247,2483.07,0.336,0.895,-0.224,-0.387,-0.597,0.703,0.299,0.935,-0.191,2517.77,0.112,1.007,0.112,-0.525,-0.832,0.180,0.188,-0.020,-0.982,2556.98,0.000,0.112,-0.336,-0.014,0.041,0.999,-0.102,0.947,-0.305,2462.57,-0.112,0.671,0.112,0.293,-0.892,0.345,9.658,1.300,-2.207,9.992,6.412,0.290,-1.969,0.850,0.319,-0.418,10.760,-4.916,-4.611,-1.053,none
5.132115,0.245,0.936,-0.251,2480.75,0.000,0.783,-0.224,-0.377,-0.609,0.698,0.306,0.933,-0.191,2524.74,-0.112,0.671,0.000,-0.508,-0.842,0.179,0.185,-0.028,-0.982,2544.79,0.224,0.112,0.000,-0.009,0.030,1.000,-0.106,0.946,-0.306,2454.98,0.000,0.112,-0.112,0.315,-0.898,0.308,9.553,1.262,-2.224,9.889,5.634,0.718,-1.725,0.850,0.318,-0.420,10.673,-5.725,-4.382,-0.824,none
5.154879,0.243,0.936,-0.253,2461.45,0.560,-0.112,0.224,-0.345,-0.614,0.710,0.304,0.933,-0.192,2503.97,0.448,0.224,0.112,-0.525,-0.836,0.160,0.186,-0.028,-0.982,2526.12,0.671,-0.336,0.112,-0.055,0.081,0.995,-0.107,0.947,-0.303,2441.53,0.224,-0.336,-0.336,0.299,-0.894,0.333,9.517,1.293,-2.212,9.856,5.359,0.489,-1.893,0.849,0.317,-0.422,10.596,-5.924,-4.687,-0.901,none
5.177538,0.237,0.940,-0.244,2439.13,0.448,-0.224,0.671,-0.348,-0.619,0.704,0.300,0.935,-0.190,2478.57,0.000,-0.112,0.671,-0.524,-0.835,0.170,0.186,-0.028,-0.982,2526.12,0.560,0.224,-0.112,0.008,0.082,0.997,-0.111,0.945,-0.307,2445.67,0.336,0.000,0.112,0.321,-0.890,0.325,9.541,1.250,-2.231,9.878,5.405,-0.015,-2.122,0.850,0.316,-0.422,10.668,-5.832,-5.115,-1.008,none
5.201116,0.238,0.940,-0.245,2470.27,-0.112,0.112,0.448,-0.335,-0.612,0.717,0.303,0.935,-0.187,2518.88,-0.336,0.000,0.560,-0.520,-0.833,0.188,0.188,-0.024,-0.982,2556.21,0.224,0.448,0.000,-0.042,0.036,0.998,-0.103,0.946,-0.307,2443.63,0.336,0.112,0.336,0.329,-0.894,0.305,9.618,1.161,-2.231,9.941,5.649,-0.366,-1.252,0.854,0.309,-0.418,10.710,-5.450,-5.099,-0.260,none
5.613182,0.236,0.937,-0.258,2489.46,-0.224,-0.224,-0.560,-0.362,-0.584,0.727,0.297,0.934,-0.198,2531.94,-0.560,-0.112,-0.112,-0.520,-0.839,0.160,0.188,-0.024,-0.982,2556.21,-0.895,0.112,-0.112,-0.052,0.075,0.996,-0.110,0.948,-0.299,2471.03,-0.448,-0.112,0.112,0.327,-0.885,0.330,9.644,1.281,-2.229,9.981,5.420,0.031,-1.634,0.849,0.313,-0.426,10.748,-5.954,-4.916,-0.687,none
5.613354,0.234,0.941,-0.245,2468.85,-0.112,-0.895,0.112,-0.360,-0.622,0.695,0.295,0.938,-0.184,2521.83,-0.112,-0.560,0.448,-0.532,-0.827,0.183,0.192,-0.016,-0.981,2557.71,0.224,0.000,-0.671,-0.060,0.043,0.997,-0.105,0.949,-0.298,2480.39,0.671,0.112,-0.112,0.297,-0.896,0.331,9.699,1.262,-2.234,10.032,5.252,0.672,-2.397,0.851,0.311,-0.423,10.810,-6.244,-4.382,-1.359,none
5.613440,0.238,0.938,-0.252,2508.03,0.671,-0.224,1.007,-0.353,-0.602,0.716,0.300,0.935,-0.190,2540.39,0.560,-0.336,0.895,-0.512,-0.842,0.172,0.190,-0.016,-0.982,2578.32,1.007,-0.671,-0.112,0.020,0.074,0.997,-0.106,0.947,-0.303,2472.97,0.448,0.000,-0.671,0.289,-0.905,0.314,9.685,1.219,-2.260,10.019,5.099,1.191,-2.076,0.851,0.310,-0.424,10.791,-6.290,-3.939,-1.069,none
5.613523,0.231,0.942,-0.242,2497.10,1.231,-0.448,0.671,-0.367,-0.606,0.706,0.289,0.940,-0.183,2536.75,0.783,-0.783,0.895,-0.519,-0.838,0.169,0.191,-0.020,-0.981,2567.70,0.671,-0.895,-0.224,-0.037,0.057,0.998,-0.106,0.948,-0.300,2469.96,0.783,0.000,-0.895,0.348,-0.877,0.331,0.966,0.120,-0.229,9.998,5.817,1.298,-2.015,0.850,0.307,-0.428,10.779,-5.725,-3.695,-1.023,none
5.613616,0.232,0.942,-0.243,2486.74,1.007,0.112,0.448,-0.377,-0.609,0.698,0.297,0.937,-0.186,2535.53,1.455,0.112,0.448,-0.528,-0.833,0.163,0.191,-0.020,-0.981,2567.70,0.560,-0.895,-0.336,-0.051,0.037,0.998,-0.106,0.947,-0.304,2463.50,0.448,0.448,-1.231,0.299,-0.888,0.350,0.966,0.126,-0.226,9.952,6.290,1.832,-2.198,0.850,0.314,-0.423,10.722,-5.359,-3.160,-1.267,none
5.613700,0.242,0.937,-0.252,2470.82,1.567,0.560,0.224,-0.361,-0.629,0.688,0.300,0.935,-0.192,2510.29,1.567,0.895,0.112,-0.519,-0.837,0.173,0.185,-0.020,-0.982,2534.48,1.231,-1.567,-0.336,-0.022,0.060,0.998,-0.107,0.946,-0.307,2444.58,0.560,0.336,-1.567,0.320,-0.883,0.343,0.967,0.133,-0.217,9.900,6.092,1.771,-2.443,0.851,0.318,-0.417,10.631,-5.695,-3.099,-1.450,none
5.613787,0.248,0.935,-0.254,2454.55,1.119,0.224,0.560,-0.340,-0.611,0.715,0.305,0.932,-0.197,2497.53,1.790,0.448,0.783,-0.529,-0.829,0.181,0.186,-0.028,-0.982,2526.12,1.455,-1.679,-0.560,-0.018,0.055,0.998,-0.111,0.945,-0.307,2445.67,1.119,0.224,-1.567,0.307,-0.896,0.321,0.967,0.130,-0.221,9.843,5.450,1.634,-2.534,0.850,0.318,-0.421,10.579,-6.244,-3.389,-1.450,none
5.613867,0.245,0.935,-0.255,2441.80,1.455,0.224,0.895,-0.364,-0.579,0.730,0.305,0.932,-0.197,2497.53,1.231,-0.336,0.895,-0.509,-0.842,0.178,0.182,-0.032,-0.983,2524.58,1.455,-1.007,-0.448,-0.033,0.076,0.997,-0.108,0.945,-0.310,2418.11,1.007,0.112,-1.231,0.336,-0.882,0.330,0.967,0.129,-0.220,9.850,5.557,1.023,-1.969,0.851,0.316,-0.420,10.619,-6.076,-3.924,-0.947,none
5.613940,0.244,0.936,-0.254,2452.09,1.007,-0.112,0.560,-0.369,-0.616,0.696,0.297,0.935,-0.193,2498.25,0.671,-0.671,0.336,-0.525,-0.832,0.180,0.185,-0.028,-0.982,2535.95,0.448,-0.895,-0.224,0.017,0.064,0.998,-0.111,0.945,-0.308,2436.22,0.336,0.000,-0.783,0.304,-0.895,0.327,0.967,0.126,-0.223,9.835,5.756,0.947,-2.015,0.852,0.314,-0.419,10.589,-5.695,-4.092,-1.084,none
5.614009,0.237,0.937,-0.256,2436.98,0.783,0.000,0.336,-0.353,-0.634,0.688,0.300,0.934,-0.194,2480.50,1.007,0.112,0.224,-0.525,-0.834,0.169,0.183,-0.024,-0.983,2515.18,0.671,-0.783,-0.448,-0.022,0.030,0.999,-0.111,0.945,-0.308,2436.22,0.560,0.448,-0.671,0.310,-0.894,0.324,0.968,0.131,-0.214,9.848,5.771,0.733,-2.489,0.852,0.318,-0.416,10.595,-5.832,-4.244,-1.496,none
5.614067,0.248,0.933,-0.262,2450.38,0.560,0.336,0.895,-0.360,-0.591,0.722,0.306,0.931,-0.198,2487.28,0.895,0.224,0.783,-0.516,-0.839,0.172,0.183,-0.028,-0.983,2515.44,1.007,-0.336,-0.448,-0.047,0.063,0.997,-0.115,0.945,-0.308,2438.29,0.895,0.448,-0.783,0.307,-0.899,0.313,0.967,0.131,-0.220,9.832,5.359,0.748,-2.305,0.850,0.319,-0.419,10.585,-6.244,-4.519,-1.130,none
5.614127,0.244,0.937,-0.251,2449.82,0.671,-0.671,1.007,-0.361,-0.646,0.673,0.300,0.935,-0.190,2478.57,0.336,-0.671,0.895,-0.528,-0.830,0.178,0.182,-0.036,-0.983,2523.91,1.007,-0.224,-0.336,-0.012,0.072,0.997,-0.111,0.943,-0.312,2431.45,0.783,0.000,-0.224,0.320,-0.897,0.306,0.966,0.130,-0.222,9.806,5.527,0.061,-1.924,0.851,0.319,-0.417,10.587,-5.939,-5.084,-0.840,none
5.614187,0.252,0.934,-0.255,2446.52,0.783,-0.224,0.671,-0.370,-0.610,0.701,0.310,0.930,-0.197,2491.29,0.224,-0.112,0.112,-0.521,-0.836,0.175,0.186,-0.036,-0.982,2526.73,0.112,0.560,-0.336,0.006,0.064,0.998,-0.111,0.943,-0.312,2431.45,-0.112,0.000,0.224,0.332,-0.889,0.316,0.966,0.135,-0.219,9.873,5.725,-0.489,-1.328,0.849,0.324,-0.417,10.622,-5.557,-5.603,-0.214,none
5.614859,0.247,0.936,-0.253,2463.90,-0.671,-0.671,-0.112,-0.361,-0.601,0.713,0.309,0.931,-0.197,2499.66,-0.895,-0.783,-0.224,-0.526,-0.832,0.177,0.181,-0.043,-0.983,2544.35,-0.448,0.448,-0.336,0.002,0.076,0.997,-0.115,0.943,-0.314,2452.69,-0.448,-0.112,0.560,0.299,-0.902,0.313,0.966,0.134,-0.221,9.910,5.389,-0.519,-1.282,0.849,0.323,-0.418,10.692,-5.710,-5.634,-0.260,none
5.614938,0.247,0.936,-0.253,2463.90,-0.336,-0.448,-0.336,-0.353,-0.602,0.716,0.310,0.930,-0.195,2521.37,-0.671,-0.448,-0.224,-0.525,-0.834,0.172,0.185,-0.028,-0.982,2544.79,-0.560,0.560,0.112,-0.014,0.064,0.998,-0.114,0.943,-0.312,2463.06,-0.224,-0.224,0.671,0.319,-0.894,0.313,0.966,0.134,-0.219,10.008,5.496,-0.519,-1.496,0.851,0.321,-0.415,10.772,-5.710,-5.466,-0.397,none
5.615022,0.243,0.936,-0.253,2502.00,-0.783,-0.336,-0.112,-0.334,-0.625,0.705,0.304,0.932,-0.198,2537.02,-0.448,-0.560,0.000,-0.535,-0.828,0.169,0.183,-0.032,-0.983,2564.73,-0.112,0.448,0.448,-0.015,0.054,0.998,-0.110,0.944,-0.311,2471.37,-0.224,-0.336,0.448,0.312,-0.899,0.306,0.967,0.132,-0.220,10.034,5.176,0.092,-1.405,0.851,0.320,-0.417,10.760,-6.000,-5.023,-0.382,none
5.615086,0.248,0.934,-0.259,2487.13,0.336,-0.448,0.112,-0.362,-0.584,0.727,0.311,0.930,-0.197,2544.11,0.000,-0.671,0.112,-0.517,-0.836,0.185,0.183,-0.028,-0.983,2565.42,-0.112,0.000,0.671,-0.032,0.064,0.997,-0.110,0.945,-0.308,2468.28,-0.224,-0.671,0.112,0.317,-0.896,0.311,0.967,0.131,-0.217,9.969,5.053,0.290,-1.374,0.852,0.318,-0.415,10.748,-6.244,-4.809,-0.382,none
5.616728,0.245,0.935,-0.255,2482.34,0.336,-0.783,0.448,-0.373,-0.605,0.704,0.306,0.932,-0.195,2525.74,0.224,-0.671,0.112,-0.523,-0.834,0.178,0.184,-0.028,-0.983,2554.61,0.112,-0.224,0.895,0.020,0.070,0.997,-0.110,0.946,-0.304,2464.58,0.224,-0.783,-0.224,0.317,-0.889,0.331,0.967,0.123,-0.225,9.910,4.748,0.626,-1.389,0.851,0.311,-0.422,10.671,-6.550,-4.580,-0.382,none
5.616827,0.239,0.938,-0.250,2455.84,0.112,-0.560,0.224,-0.338,-0.605,0.721,0.290,0.938,-0.189,2491.40,0.224,-1.119,0.224,-0.518,-0.837,0.177,0.185,-0.020,-0.983,2545.29,0.224,-0.224,0.671,-0.014,0.064,0.998,-0.111,0.949,-0.295,2437.58,0.671,-0.895,-0.224,0.303,-0.905,0.299,0.966,0.118,-0.229,9.875,5.099,0.229,-1.557,0.849,0.307,-0.430,10.635,-6.137,-4.824,-0.519,none
5.636922,0.227,0.943,-0.242,2454.27,-0.112,-0.671,0.112,-0.349,-0.603,0.717,0.293,0.937,-0.189,2502.76,-0.112,-0.336,0.224,-0.522,-0.836,0.168,0.185,-0.016,-0.983,2535.28,0.000,0.000,0.336,-0.028,0.073,0.997,-0.111,0.947,-0.303,2442.62,0.224,-0.112,0.224,0.332,-0.886,0.324,0.968,0.125,-0.219,9.843,5.664,0.092,-1.588,0.854,0.316,-0.414,10.637,-5.771,-4.885,-0.611,none
5.661360,0.243,0.934,-0.262,2456.32,0.224,0.336,0.112,-0.373,-0.604,0.704,0.306,0.930,-0.202,2490.21,0.448,0.112,0.000,-0.525,-0.831,0.183,0.182,-0.020,-0.983,2523.80,0.112,-0.112,-0.224,-0.013,0.031,0.999,-0.111,0.946,-0.304,2433.16,-0.224,0.000,0.000,0.307,-0.896,0.321,0.967,0.128,-0.219,9.825,5.389,-0.229,-1.389,0.850,0.317,-0.420,10.589,-6.168,-5.282,-0.290,none
5.683761,0.240,0.938,-0.251,2446.46,-0.448,-0.895,0.336,-0.350,-0.587,0.730,0.300,0.935,-0.190,2478.57,-0.224,-0.671,0.000,-0.527,-0.829,0.187,0.182,-0.028,-0.983,2523.30,-0.448,0.336,0.112,-0.052,0.067,0.996,-0.116,0.945,-0.305,2426.73,-0.112,-0.336,0.448,0.297,-0.896,0.331,0.966,0.124,-0.225,9.779,5.634,-0.611,-1.450,0.850,0.311,-0.425,10.553,-5.557,-5.710,-0.489,none
5.708357,0.238,0.939,-0.249,2423.74,-0.895,-0.112,-0.112,-0.377,-0.592,0.712,0.300,0.934,-0.194,2480.50,-0.560,-0.112,-0.336,-0.516,-0.838,0.176,0.183,-0.028,-0.983,2515.44,-0.783,0.671,-0.224,-0.004,0.083,0.997,-0.112,0.945,-0.306,2416.13,-0.336,0.336,1.119,0.301,-0.893,0.334,0.967,0.128,-0.222,9.757,6.244,-1.496,-1.573,0.851,0.316,-0.420,10.514,-4.718,-6.382,-0.641,none
6.123165,0.246,0.936,-0.253,2431.10,-1.679,0.560,-0.560,-0.378,-0.603,0.702,0.305,0.932,-0.196,2463.62,-1.790,0.895,-0.783,-0.519,-0.833,0.190,0.183,-0.028,-0.983,2515.44,-1.007,1.343,-0.448,-0.006,0.065,0.998,-0.108,0.945,-0.310,2418.11,-0.895,0.783,1.679,0.310,-0.897,0.314,0.966,0.126,-0.224,9.774,6.336,-2.275,-1.557,0.851,0.313,-0.421,10.587,-4.244,-7.191,-0.580,none
6.123339,0.242,0.938,-0.249,2425.21,-2.014,0.560,-0.783,-0.390,-0.607,0.693,0.308,0.931,-0.195,2476.01,-2.798,0.671,-0.895,-0.517,-0.838,0.175,0.182,-0.032,-0.983,2524.58,-2.126,2.126,-0.895,0.000,0.038,0.999,-0.115,0.946,-0.304,2435.24,-0.112,0.783,2.462,0.316,-0.899,0.303,0.965,0.122,-0.233,9.754,6.321,-2.870,-1.069,0.849,0.311,-0.428,10.539,-4.244,-8.046,-0.229,none
6.123426,0.234,0.943,-0.237,2422.55,-3.469,0.112,-1.231,-0.356,-0.618,0.701,0.296,0.937,-0.187,2473.89,-3.469,0.336,-1.119,-0.524,-0.835,0.170,0.187,-0.013,-0.982,2517.47,-2.686,2.798,-0.895,-0.042,0.086,0.995,-0.111,0.947,-0.303,2442.62,-0.895,0.895,3.133,0.309,-0.904,0.296,0.965,0.125,-0.229,9.829,6.733,-4.092,-1.435,0.849,0.313,-0.425,10.598,-3.481,-8.855,-0.443,none
6.123515,0.235,0.941,-0.245,2461.33,-4.252,0.671,-1.231,-0.365,-0.595,0.716,0.302,0.933,-0.195,2523.63,-4.141,1.567,-0.895,-0.520,-0.838,0.164,0.189,-0.016,-0.982,2545.99,-3.133,3.693,-1.343,-0.018,0.055,0.998,-0.102,0.947,-0.305,2462.57,-0.560,1.343,3.805,0.296,-0.903,0.310,0.965,0.132,-0.225,10.055,6.076,-4.504,-1.710,0.848,0.321,-0.422,10.820,-4.534,-9.420,-0.412,none
6.123607,0.247,0.937,-0.249,2543.18,-4.029,-0.448,-0.448,-0.356,-0.596,0.719,0.309,0.931,-0.192,2560.77,-3.917,0.336,-0.560,-0.508,-0.845,0.168,0.195,-0.023,-0.981,2611.80,-2.574,3.805,-2.126,-0.073,0.053,0.996,-0.096,0.947,-0.308,2528.21,-1.231,1.007,4.029,0.303,-0.891,0.337,0.965,0.137,-0.223,10.312,5.115,-3.008,-2.214,0.848,0.321,-0.421,11.077,-5.832,-8.107,-0.718,none
6.123696,0.248,0.938,-0.242,2571.31,-2.014,-0.671,0.783,-0.370,-0.594,0.715,0.308,0.933,-0.187,2629.09,-2.462,-0.112,0.224,-0.523,-0.837,0.161,0.197,-0.023,-0.980,2640.23,-1.343,2.462,-1.119,-0.047,0.070,0.996,-0.095,0.946,-0.311,2537.93,0.000,0.000,1.790,0.315,-0.890,0.329,0.966,0.129,-0.223,10.502,4.977,-0.443,-2.244,0.852,0.318,-0.417,11.265,-6.534,-5.420,-0.901,none
6.123794,0.239,0.940,-0.245,2628.21,-0.448,-1.231,0.895,-0.354,-0.633,0.688,0.299,0.937,-0.183,2683.06,-1.343,-1.119,0.895,-0.515,-0.840,0.171,0.197,-0.016,-0.980,2639.85,0.448,0.112,0.000,-0.025,0.054,0.998,-0.098,0.947,-0.307,2568.23,0.560,-0.895,-1.343,0.298,-0.902,0.312,0.966,0.130,-0.222,10.327,4.565,3.649,-2.198,0.849,0.319,-0.421,11.107,-7.435,-1.847,-1.023,none
6.123877,0.246,0.937,-0.248,2553.48,3.469,-1.119,1.679,-0.352,-0.624,0.698,0.305,0.933,-0.189,2598.07,4.364,-1.343,1.679,-0.532,-0.827,0.179,0.199,-0.020,-0.980,2612.58,2.574,-2.462,0.895,-0.054,0.046,0.997,-0.096,0.946,-0.309,2517.80,1.007,-1.007,-3.693,0.304,-0.895,0.327,0.966,0.133,-0.223,10.207,4.000,5.176,-2.061,0.851,0.321,-0.416,10.977,-8.412,-0.519,-0.870,none
6.123934,0.250,0.936,-0.249,2546.60,5.148,-2.126,2.574,-0.352,-0.601,0.717,0.316,0.929,-0.193,2599.67,5.483,-3.245,2.238,-0.520,-0.835,0.179,0.192,-0.023,-0.981,2600.25,3.581,-4.364,2.014,-0.006,0.062,0.998,-0.097,0.946,-0.309,2487.27,0.671,-2.574,-4.700,0.303,-0.905,0.299,0.966,0.131,-0.224,10.119,3.710,6.198,-1.145,0.848,0.319,-0.422,10.912,-9.267,0.580,-0.153,none
6.124007,0.241,0.940,-0.239,2522.08,5.483,-4.141,2.350,-0.349,-0.604,0.717,0.296,0.938,-0.183,2575.98,5.483,-4.924,1.679,-0.523,-0.834,0.174,0.193,-0.031,-0.981,2590.99,3.133,-5.707,2.686,-0.014,0.056,0.998,-0.105,0.946,-0.305,2485.18,0.448,-3.469,-5.707,0.318,-0.895,0.312,0.968,0.121,-0.219,10.195,4.046,8.641,-0.366,0.854,0.314,-0.415,10.975,-9.344,3.344,0.305,none
6.124066,0.245,0.932,-0.267,2556.74,9.176,-3.245,1.679,-0.372,-0.593,0.714,0.320,0.927,-0.197,2595.52,8.281,-4.700,1.119,-0.524,-0.835,0.165,0.189,-0.024,-0.982,2587.55,4.364,-7.722,3.917,-0.018,0.082,0.996,-0.114,0.944,-0.309,2459.95,-0.448,-3.693,-8.169,0.318,-0.898,0.304,0.969,0.132,-0.209,10.066,5.160,10.229,1.603,0.855,0.331,-0.399,10.885,-9.634,4.916,2.198,none
6.124124,0.272,0.921,-0.278,2520.93,10.295,-5.371,0.560,-0.358,-0.580,0.732,0.339,0.917,-0.211,2568.19,9.400,-8.057,-0.336,-0.524,-0.836,0.163,0.177,-0.063,-0.982,2536.31,3.917,-9.736,4.364,-0.030,0.038,0.999,-0.104,0.943,-0.317,2424.06,-4.029,-6.714,-10.295,0.320,-0.887,0.334,0.969,0.139,-0.203,10.129,4.336,12.458,3.679,0.852,0.337,-0.401,10.785,-11.527,7.069,3.985,none
6.124187,0.264,0.929,-0.258,2490.85,10.743,-9.064,0.112,-0.370,-0.594,0.715,0.328,0.923,-0.198,2529.72,11.079,-15.667,-2.014,-0.530,-0.830,0.173,0.177,-0.062,-0.982,2545.15,3.917,-10.967,9.288,-0.049,0.076,0.996,-0.114,0.944,-0.311,2471.55,-4.476,-9.288,-12.198,0.332,-0.878,0.344,0.968,0.110,-0.224,10.196,6.427,16.076,5.130,0.854,0.308,-0.418,10.912,-11.282,9.878,4.779,none
6.124247,0.223,0.944,-0.245,2546.60,14.212,-10.072,0.671,-0.373,-0.589,0.717,0.293,0.938,-0.184,2563.65,16.226,-11.079,-1.567,-0.509,-0.841,0.181,0.175,-0.051,-0.983,2564.15,3.917,-13.653,10.967,0.013,0.065,0.998,-0.133,0.946,-0.295,2476.18,2.462,-16.674,-13.653,0.325,-0.879,0.349,0.968,0.107,-0.227,10.065,6.718,14.763,6.672,0.864,0.314,-0.394,10.593,-10.031,9.496,5.985,none
6.124311,0.234,0.930,-0.284,2468.59,16.562,-9.512,-0.336,-0.379,-0.586,0.716,0.291,0.933,-0.210,2481.54,15.331,-10.183,-2.574,-0.520,-0.834,0.186,0.165,-0.024,-0.986,2545.79,2.014,-12.869,11.302,-0.046,0.044,0.998,-0.138,0.949,-0.285,2459.65,-4.924,-11.862,-13.988,0.310,-0.907,0.286,0.972,0.134,-0.194,9.818,17.847,8.412,6.672,0.875,0.323,-0.359,10.770,-13.252,8.076,6.702,none
6.124377,0.232,0.931,-0.281,2494.64,16.338,-10.631,0.448,-0.358,-0.612,0.705,0.282,0.938,-0.203,2563.86,14.436,-11.750,-0.895,-0.521,-0.831,0.194,0.167,-0.024,-0.986,2527.06,1.902,-12.981,8.505,0.018,0.046,0.999,-0.131,0.950,-0.284,2434.18,-4.924,-11.638,-13.429,0.348,-0.887,0.303,0.973,0.120,-0.197,10.217,14.565,12.412,8.137,0.869,0.333,-0.366,10.901,-21.847,9.038,9.282,none
6.124438,0.261,0.913,-0.313,2553.78,20.926,-14.100,3.245,-0.342,-0.588,0.733,0.335,0.910,-0.245,2654.34,17.569,-12.645,-0.783,-0.534,-0.826,0.181,0.162,-0.032,-0.986,2534.85,1.567,-12.198,8.617,0.053,0.059,0.997,-0.139,0.936,-0.322,2449.60,0.448,-13.988,-15.331,0.347,-0.887,0.303,0.976,0.108,-0.189,10.372,15.664,15.878,10.473,0.869,0.317,-0.379,11.104,-24.183,10.656,12.092,none
6.223610,0.247,0.922,-0.299,2575.14,20.926,-18.464,2.686,-0.349,-0.580,0.736,0.311,0.924,-0.224,2636.54,19.248,-22.381,-2.238,-0.516,-0.832,0.203,0.163,-0.056,-0.985,2637.72,1.902,-10.519,10.743,0.033,0.058,0.998,-0.148,0.948,-0.281,2492.25,-1.567,-21.710,-17.233,0.360,-0.878,0.316,0.977,0.104,-0.184,9.925,14.672,18.504,12.092,0.873,0.303,-0.383,10.911,-23.954,10.809,13.405,none
6.223790,0.222,0.936,-0.272,2472.29,30.886,-17.457,2.910,-0.341,-0.579,0.741,0.310,0.919,-0.243,2553.44,26.298,-23.276,-1.007,-0.507,-0.837,0.205,0.154,-0.024,-0.988,2552.02,0.000,-15.667,12.757,0.020,0.084,0.996,-0.157,0.943,-0.294,2484.73,-5.260,-16.786,-18.912,0.374,-0.875,0.308,0.980,0.105,-0.167,10.076,13.099,20.458,11.328,0.875,0.316,-0.367,10.583,-23.969,12.168,13.420,none
6.485001,0.255,0.894,-0.367,2498.74,31.222,-37.488,9.736,-0.299,-0.532,0.792,0.304,0.913,-0.271,2503.22,31.222,-48.679,6.379,-0.517,-0.821,0.242,0.130,-0.081,-0.988,2561.27,2.350,-10.743,6.602,0.039,0.072,0.997,-0.192,0.928,-0.318,2385.81,-3.917,-22.493,-16.898,0.392,-0.863,0.318,0.979,0.054,-0.198,10.221,32.137,5.389,15.542,0.863,0.265,-0.431,10.941,-23.817,8.443,20.824,none
6.485157,0.327,0.817,-0.475,2758.66,37.488,-64.122,17.793,-0.293,-0.494,0.818,0.304,0.913,-0.271,2503.22,29.319,-60.877,7.945,-0.517,-0.821,0.242,0.129,-0.047,-0.991,2575.44,-1.119,-11.638,11.526,0.039,0.072,0.997,-0.187,0.934,-0.304,2496.48,8.057,-28.424,-21.822,0.437,-0.855,0.279,0.978,0.065,-0.196,10.030,45.053,21.206,17.710,0.836,0.219,-0.504,10.811,-12.916,11.557,13.618,none
6.485288,0.419,0.702,-0.575,3111.77,58.303,-125.223,47.448,-0.259,-0.480,0.838,0.416,0.794,-0.444,2965.38,44.874,-107.877,27.753,-0.486,-0.833,0.264,0.125,0.035,-0.992,2423.55,-2.126,-8.729,13.205,0.052,0.075,0.996,-0.239,0.913,-0.332,2406.54,11.414,-27.753,-27.193,0.464,-0.842,0.277,0.940,-0.015,-0.342,11.012,63.756,25.298,23.359,0.698,0.205,-0.686,12.275,92.076,34.565,-14.122,none
6.485383,0.050,0.981,-0.185,2358.79,63.563,-137.308,46.105,-0.217,-0.442,0.871,0.276,0.885,-0.375,2695.26,53.043,-134.287,34.691,-0.483,-0.827,0.287,0.093,-0.086,-0.992,2432.38,13.205,-2.686,1.343,0.129,0.105,0.986,-0.256,0.908,-0.331,2472.06,-0.671,-33.572,-24.619,0.447,-0.858,0.252,0.987,0.097,-0.131,9.364,92.794,8.198,23.176,0.920,0.303,-0.248,10.156,124.763,43.710,-26.840,none
6.485479,0.004,0.971,-0.238,2170.25,42.077,-102.394,30.886,-0.205,-0.470,0.859,0.073,0.974,-0.213,1984.95,31.557,-113.696,29.096,-0.461,-0.835,0.301,0.092,-0.178,-0.980,2661.84,10.295,-1.231,4.476,0.075,0.069,0.995,-0.374,0.903,-0.214,2454.29,-9.736,-46.777,-22.157,0.458,-0.848,0.266,0.993,0.105,0.056,9.216,66.153,3.435,10.321,0.932,0.362,-0.034,9.982,73.985,30.916,-18.107,none
6.485563,0.065,0.904,-0.422,2104.45,27.753,-72.851,20.591,-0.178,-0.397,0.901,0.049,0.965,-0.259,2126.32,27.081,-68.822,14.212,-0.463,-0.821,0.335,0.109,-0.009,-0.994,2516.06,-3.917,-8.841,16.114,0.112,0.068,0.991,-0.297,0.929,-0.220,2427.23,0.895,-18.241,-17.681,0.487,-0.842,0.230,0.999,0.040,0.034,9.168,27.084,-1.267,4.168,0.947,0.304,-0.103,9.678,21.237,9.481,-4.977,none
6.485648,0.104,0.856,-0.507,2062.40,22.157,-50.581,16.114,-0.162,-0.408,0.899,0.163,0.876,-0.454,2207.70,14.436,-51.141,14.324,-0.454,-0.829,0.326,0.092,0.024,-0.995,2335.62,-1.679,-8.169,11.414,0.132,0.067,0.989,-0.300,0.929,-0.214,2308.81,5.260,-11.750,-11.191,0.503,-0.834,0.228,1.000,0.003,-0.029,9.056,-1.221,-0.397,4.137,0.943,0.262,-0.203,9.542,-14.534,-5.542,6.397,none
6.485729,0.077,0.875,-0.477,2026.45,-11.302,-37.488,8.393,-0.158,-0.408,0.899,0.111,0.913,-0.393,2098.13,4.700,-43.419,12.645,-0.436,-0.837,0.332,0.090,0.007,-0.996,2391.74,-0.895,-2.686,2.798,0.089,0.076,0.993,-0.307,0.921,-0.238,2319.38,7.386,-6.155,-4.141,0.490,-0.839,0.236,0.998,-0.004,-0.069,8.901,-14.565,-7.481,4.366,0.932,0.255,-0.256,9.519,-25.756,-20.076,10.336,none
6.487783,0.077,0.890,-0.450,2149.93,-16.674,-22.493,5.595,-0.135,-0.393,0.910,0.153,0.921,-0.359,2218.80,-10.967,-20.926,6.714,-0.425,-0.834,0.351,0.103,-0.034,-0.994,2379.04,-0.336,0.671,-1.790,0.122,0.076,0.990,-0.285,0.922,-0.263,2328.89,3.805,2.350,2.686,0.503,-0.823,0.264,0.997,0.023,-0.077,10.057,-23.863,-1.008,5.176,0.923,0.288,-0.256,10.791,-35.405,-22.611,14.122,none
6.487896,0.134,0.877,-0.461,2481.26,-18.912,-32.117,6.491,-0.124,-0.409,0.904,0.209,0.892,-0.402,2519.20,-16.562,-3.133,-0.783,-0.445,-0.841,0.310,0.099,-0.089,-0.991,2552.92,-0.448,2.686,-3.133,0.082,0.045,0.996,-0.280,0.914,-0.292,2401.41,-3.917,3.581,3.693,0.483,-0.835,0.264,0.993,0.029,-0.116,9.837,-29.359,0.885,4.733,0.917,0.270,-0.294,10.524,-44.748,-21.160,17.908,none
6.488011,0.063,0.925,-0.375,2469.88,-8.057,-19.024,3.133,-0.135,-0.417,0.899,0.222,0.880,-0.420,2551.84,-12.645,6.267,-6.155,-0.449,-0.831,0.328,0.099,-0.081,-0.992,2561.13,-2.574,1.455,-0.895,0.090,0.064,0.994,-0.306,0.905,-0.297,2458.57,-2.462,1.119,3.021,0.507,-0.824,0.252,0.982,-0.022,-0.186,9.964,-22.565,-0.458,0.992,0.898,0.217,-0.382,10.716,-40.397,-17.954,14.840,none
6.488102,0.139,0.856,-0.497,2474.50,-2.798,0.895,-2.238,-0.124,-0.431,0.894,0.237,0.842,-0.485,2551.49,-4.476,7.050,-4.364,-0.439,-0.835,0.333,0.104,-0.051,-0.993,2538.12,-1.119,1.343,-0.336,0.099,0.084,0.992,-0.301,0.911,-0.281,2495.59,-5.371,3.245,3.021,0.467,-0.849,0.248,0.982,-0.028,-0.188,9.888,-9.908,-0.718,-1.695,0.896,0.209,-0.391,10.551,-25.847,-13.038,8.443,none
6.511067,0.136,0.864,-0.484,2380.99,-3.917,6.714,-3.357,-0.146,-0.428,0.892,0.209,0.878,-0.430,2469.33,-5.931,5.595,-2.574,-0.445,-0.827,0.344,0.104,-0.067,-0.992,2540.41,0.336,2.350,-2.798,0.110,0.077,0.991,-0.287,0.916,-0.282,2450.96,-0.448,4.252,3.357,0.481,-0.838,0.259,0.988,0.002,-0.156,10.038,0.214,-3.145,-4.321,0.901,0.250,-0.354,10.744,-14.641,-12.443,2.275,none
6.534687,0.238,0.788,-0.567,2636.93,-6.155,6.714,-1.455,-0.143,-0.435,0.889,0.280,0.832,-0.479,2582.85,-5.819,7.050,-1.231,-0.439,-0.840,0.318,0.111,-0.051,-0.993,2559.13,-0.224,3.021,-2.126,0.128,0.072,0.989,-0.253,0.920,-0.300,2463.17,0.112,3.357,3.469,0.492,-0.823,0.283,0.992,0.039,-0.120,10.291,0.962,-2.336,-0.947,0.905,0.290,-0.312,10.985,-10.122,-10.382,4.244,none
6.557862,0.203,0.831,-0.518,2511.74,-6.491,-1.679,0.336,-0.142,-0.430,0.892,0.233,0.871,-0.432,2477.05,-3.693,-4.364,-0.560,-0.432,-0.839,0.330,0.101,-0.102,-0.990,2624.99,-3.021,1.231,2.574,0.053,0.042,0.998,-0.282,0.915,-0.289,2453.55,0.448,-0.783,2.910,0.522,-0.821,0.232,0.991,0.018,-0.135,9.894,0.336,-2.275,0.458,0.908,0.254,-0.334,10.511,-11.725,-10.412,3.969,none
6.637216,0.120,0.883,-0.454,2365.59,-7.050,-0.224,-1.007,-0.140,-0.397,0.907,0.198,0.891,-0.408,2409.71,-5.260,0.000,-0.448,-0.434,-0.841,0.324,0.106,-0.048,-0.993,2497.89,-4.252,1.007,4.141,0.088,0.068,0.994,-0.294,0.915,-0.277,2454.60,1.007,-0.671,3.693,0.495,-0.829,0.262,0.987,-0.016,-0.159,9.681,4.382,-4.321,-3.069,0.907,0.219,-0.360,10.352,-6.611,-10.718,-0.443,none
6.639260,0.105,0.883,-0.459,2344.44,-9.848,15.443,-4.700,-0.131,-0.405,0.905,0.155,0.915,-0.372,2379.50,-8.057,12.981,-2.686,-0.449,-0.836,0.315,0.113,-0.036,-0.993,2508.75,-1.343,3.021,1.343,0.104,0.054,0.993,-0.293,0.919,-0.264,2431.94,2.462,3.805,5.371,0.497,-0.829,0.255,0.988,-0.014,-0.154,9.711,8.931,-6.076,-6.137,0.909,0.221,-0.353,10.407,-0.885,-10.763,-4.351,none
6.639378,0.122,0.887,-0.445,2418.14,-14.324,23.388,-7.610,-0.152,-0.449,0.881,0.181,0.910,-0.373,2371.17,-11.414,23.388,-3.581,-0.447,-0.832,0.328,0.113,-0.040,-0.993,2508.14,-0.224,3.693,-1.343,0.095,0.070,0.993,-0.273,0.914,-0.300,2465.98,3.021,6.938,6.491,0.467,-0.839,0.279,0.990,0.003,-0.138,9.981,11.115,-5.679,-6.504,0.910,0.255,-0.326,10.743,1.435,-10.183,-5.145,none
6.648569,0.259,0.773,-0.579,2687.88,-8.057,23.612,-6.267,-0.129,-0.437,0.890,0.304,0.820,-0.486,2730.84,-10.407,28.648,-4.141,-0.449,-0.836,0.315,0.117,-0.040,-0.992,2520.21,-0.671,3.917,-2.238,0.097,0.071,0.993,-0.256,0.922,-0.292,2402.12,0.560,6.379,5.707,0.478,-0.840,0.256,0.992,0.047,-0.117,10.293,7.618,-3.466,-2.550,0.908,0.300,-0.293,10.976,-2.870,-9.038,-1.237,none
6.672493,0.211,0.846,-0.490,2512.98,-5.371,-2.574,0.783,-0.140,-0.413,0.900,0.314,0.824,-0.473,2681.01,-3.133,1.343,0.560,-0.438,-0.844,0.308,0.108,-0.094,-0.990,2625.12,-1.119,3.917,-2.126,0.100,0.076,0.992,-0.258,0.915,-0.309,2453.17,-1.567,-0.336,4.029,0.468,-0.852,0.233,0.989,0.036,-0.142,10.054,4.000,-3.924,0.824,0.904,0.273,-0.328,10.701,-6.397,-9.740,2.092,none
6.695981,0.171,0.863,-0.476,2464.35,-5.371,-1.343,-0.560,-0.137,-0.421,0.897,0.222,0.895,-0.388,2457.14,-4.812,-4.476,-0.783,-0.455,-0.834,0.312,0.109,-0.048,-0.993,2507.90,-5.148,2.350,1.902,0.060,0.027,0.998,-0.270,0.918,-0.289,2488.48,-1.790,-0.671,4.812,0.468,-0.841,0.272,0.988,0.010,-0.157,9.927,5.084,-4.931,-1.099,0.904,0.245,-0.352,10.585,-5.008,-10.290,-0.031,none
6.720095,0.152,0.873,-0.463,2446.34,-6.602,3.357,-1.007,-0.168,-0.474,0.864,0.218,0.892,-0.395,2509.04,-6.602,1.343,-0.112,-0.434,-0.839,0.328,0.129,-0.024,-0.991,2583.28,-1.902,4.588,0.224,0.109,0.053,0.993,-0.263,0.925,-0.274,2488.11,-0.448,1.455,5.036,0.468,-0.852,0.233,0.988,0.006,-0.152,10.097,5.939,-5.405,-3.344,0.906,0.244,-0.346,10.805,-3.954,-10.382,-2.153,none
7.142980,0.147,0.882,-0.447,2467.63,-9.736,9.624,-2.462,-0.144,-0.444,0.884,0.216,0.899,-0.382,2521.95,-6.379,4.364,1.455,-0.452,-0.836,0.311,0.129,-0.031,-0.991,2582.84,-0.895,3.581,-1.455,0.096,0.061,0.994,-0.261,0.923,-0.284,2466.12,0.224,3.357,4.924,0.473,-0.839,0.268,0.987,-0.006,-0.159,10.131,7.099,-4.061,-3.863,0.907,0.234,-0.350,10.883,-2.763,-8.687,-2.901,none
7.143111,0.181,0.855,-0.486,2592.62,-7.386,14.324,-4.364,-0.159,-0.435,0.886,0.224,0.895,-0.386,2567.50,-6.714,6.826,-0.448,-0.444,-0.843,0.302,0.130,-0.020,-0.991,2563.23,-0.560,2.238,-1.679,0.070,0.062,0.996,-0.244,0.931,-0.270,2483.19,-0.448,4.476,3.133,0.437,-0.860,0.265,0.989,0.008,-0.145,10.108,8.061,-2.183,-3.496,0.909,0.255,-0.331,10.817,-2.656,-6.565,-2.595,none
7.143205,0.221,0.821,-0.526,2566.34,-1.902,7.945,-1.790,-0.165,-0.467,0.869,0.256,0.872,-0.417,2588.70,-4.252,8.169,-1.343,-0.453,-0.844,0.289,0.123,-0.024,-0.992,2550.02,0.000,1.007,-1.902,0.080,0.027,0.996,-0.244,0.928,-0.283,2440.74,-0.336,3.133,1.343,0.477,-0.840,0.257,0.990,0.028,-0.136,10.077,5.908,-1.130,-2.076,0.906,0.274,-0.322,10.780,-5.496,-6.229,-0.992,none
7.143299,0.189,0.859,-0.475,2486.07,-1.790,-1.119,0.895,-0.179,-0.446,0.877,0.261,0.871,-0.416,2547.66,-0.448,-3.021,-0.448,-0.443,-0.840,0.315,0.115,-0.074,-0.991,2553.95,0.112,0.448,-2.350,0.073,0.062,0.995,-0.256,0.921,-0.295,2438.81,-0.448,0.336,1.119,0.481,-0.847,0.227,0.988,0.023,-0.152,9.911,5.053,-0.870,-1.313,0.902,0.262,-0.343,10.593,-6.122,-6.107,-0.122,none
7.143381,0.173,0.869,-0.465,2438.62,-1.790,-0.112,0.112,-0.169,-0.441,0.882,0.236,0.888,-0.395,2487.45,-1.455,-0.448,0.000,-0.455,-0.837,0.304,0.116,-0.067,-0.991,2532.80,-1.119,0.560,0.448,0.075,0.069,0.995,-0.264,0.919,-0.295,2443.09,0.336,0.336,1.007,0.474,-0.846,0.246,0.988,0.018,-0.151,9.895,6.168,-1.496,-1.802,0.904,0.259,-0.340,10.609,-4.947,-6.290,-0.641,none
7.143471,0.169,0.873,-0.457,2435.99,-2.798,2.686,-1.231,-0.146,-0.462,0.875,0.234,0.888,-0.395,2462.89,-2.126,1.679,-0.783,-0.446,-0.841,0.307,0.123,-0.051,-0.991,2542.69,-0.448,1.007,-0.895,0.128,0.063,0.990,-0.259,0.922,-0.287,2445.07,-0.112,0.895,1.455,0.473,-0.841,0.264,0.989,0.019,-0.149,9.934,6.092,-1.939,-1.863,0.905,0.260,-0.336,10.629,-4.992,-6.656,-0.809,none
7.143553,0.186,0.853,-0.487,2469.83,-2.798,6.043,-2.350,-0.164,-0.459,0.873,0.243,0.883,-0.402,2491.11,-2.574,4.029,-0.895,-0.456,-0.840,0.295,0.120,-0.043,-0.992,2531.61,-1.007,0.671,-1.231,0.089,0.051,0.995,-0.254,0.922,-0.293,2456.31,0.336,1.790,1.790,0.470,-0.845,0.253,0.990,0.030,-0.140,10.022,4.901,-2.641,-1.435,0.906,0.271,-0.325,10.753,-7.206,-7.023,0.168,none
7.143638,0.194,0.855,-0.481,2522.24,-3.581,4.252,-1.902,-0.159,-0.435,0.886,0.254,0.877,-0.408,2574.17,-3.693,3.693,-0.671,-0.453,-0.837,0.306,0.122,-0.058,-0.991,2573.45,-1.007,1.007,-1.455,0.110,0.077,0.991,-0.250,0.924,-0.289,2460.12,0.224,1.343,1.902,0.475,-0.847,0.237,0.989,0.026,-0.149,10.151,3.496,-1.328,-0.702,0.903,0.264,-0.338,10.872,-9.023,-6.198,1.328,none
7.143713,0.194,0.860,-0.471,2529.02,-1.231,-0.560,-0.224,-0.158,-0.473,0.867,0.268,0.870,-0.415,2582.98,-0.895,0.895,-0.336,-0.454,-0.842,0.291,0.125,-0.062,-0.990,2585.19,-1.119,0.336,0.000,0.053,0.051,0.997,-0.249,0.922,-0.296,2466.88,-0.336,-0.560,0.671,0.488,-0.834,0.258,0.988,0.022,-0.154,10.029,4.000,-0.275,-0.214,0.903,0.260,-0.344,10.736,-8.321,-5.618,1.588,none
7.143787,0.180,0.862,-0.473,2499.77,-0.560,-1.231,-0.671,-0.169,-0.461,0.871,0.236,0.887,-0.397,2523.23,-0.783,-2.238,-0.783,-0.449,-0.842,0.300,0.122,-0.047,-0.991,2563.02,-1.343,-0.448,1.343,0.086,0.020,0.996,-0.260,0.922,-0.287,2477.91,-1.007,-0.895,0.448,0.466,-0.838,0.284,0.989,0.023,-0.149,10.000,3.771,-0.321,-1.084,0.903,0.259,-0.343,10.680,-8.702,-6.031,1.053,none
7.143856,0.175,0.867,-0.468,2466.16,0.000,-1.231,0.224,-0.154,-0.448,0.881,0.236,0.887,-0.397,2523.23,-0.336,-1.679,0.224,-0.456,-0.838,0.300,0.130,-0.028,-0.991,2562.72,-0.560,0.000,0.783,0.078,0.067,0.995,-0.260,0.922,-0.287,2477.91,0.000,-0.560,0.336,0.477,-0.848,0.232,0.988,0.014,-0.155,10.081,4.489,-0.107,-2.366,0.904,0.254,-0.345,10.820,-7.511,-5.420,-0.366,none
7.143920,0.163,0.880,-0.446,2519.40,-0.448,0.671,0.448,-0.170,-0.445,0.879,0.237,0.893,-0.382,2548.12,-0.224,-0.224,0.560,-0.446,-0.841,0.307,0.125,-0.058,-0.990,2584.59,1.007,-1.343,-1.007,0.104,0.066,0.992,-0.253,0.922,-0.292,2465.53,0.895,0.000,-0.448,0.469,-0.853,0.229,0.988,0.020,-0.154,10.036,5.282,0.626,-1.969,0.904,0.260,-0.340,10.735,-7.145,-4.137,-0.198,none
7.143986,0.186,0.862,-0.471,2467.45,0.224,2.798,-1.455,-0.165,-0.446,0.880,0.247,0.882,-0.402,2493.56,1.343,2.014,-1.119,-0.455,-0.836,0.308,0.117,-0.040,-0.992,2520.21,0.448,-2.014,0.000,0.091,0.058,0.994,-0.254,0.923,-0.289,2454.32,0.448,0.112,-1.231,0.468,-0.852,0.233,0.989,0.025,-0.144,9.923,4.351,0.534,-1.847,0.905,0.266,-0.332,10.621,-8.260,-4.626,0.168,none
7.144048,0.184,0.869,-0.459,2446.76,-0.336,4.924,-1.567,-0.178,-0.471,0.864,0.245,0.882,-0.402,2515.22,0.560,0.783,0.224,-0.443,-0.847,0.295,0.120,-0.048,-0.992,2521.15,0.671,-1.119,-0.224,0.085,0.043,0.995,-0.253,0.924,-0.289,2429.80,1.119,0.000,-0.336,0.460,-0.837,0.296,0.987,0.011,-0.157,9.870,3.786,0.015,-1.191,0.904,0.249,-0.347,10.550,-8.550,-5.282,0.824,none
7.144106,0.162,0.877,-0.453,2415.87,-1.343,3.693,-1.679,-0.164,-0.459,0.873,0.237,0.883,-0.405,2476.84,-0.112,-0.560,-0.336,-0.450,-0.842,0.298,0.121,-0.032,-0.992,2509.68,-0.112,-0.671,0.895,0.090,0.044,0.995,-0.257,0.925,-0.281,2427.58,0.671,-0.112,-0.112,0.443,-0.860,0.254,0.988,0.007,-0.155,9.815,4.718,-0.687,-1.511,0.906,0.248,-0.344,10.488,-7.786,-5.634,0.489,none
7.144161,0.159,0.876,-0.455,2405.50,-3.021,6.602,-3.357,-0.152,-0.471,0.869,0.216,0.900,-0.378,2442.77,-0.783,-0.671,-0.224,-0.443,-0.838,0.317,0.121,-0.040,-0.992,2510.36,0.000,0.000,0.000,0.044,0.067,0.997,-0.261,0.926,-0.273,2390.87,2.126,1.007,0.448,0.456,-0.846,0.275,0.988,0.008,-0.155,9.803,4.916,-1.420,-1.527,0.907,0.251,-0.338,10.544,-8.183,-6.061,0.611,none
7.144217,0.177,0.868,-0.464,2440.36,-2.798,7.945,-3.581,-0.160,-0.464,0.871,0.241,0.886,-0.397,2471.86,-2.238,3.917,-0.895,-0.462,-0.835,0.300,0.121,-0.032,-0.992,2509.68,-0.224,0.560,-0.224,0.095,0.062,0.994,-0.252,0.925,-0.284,2437.11,0.336,2.238,1.007,0.458,-0.849,0.265,0.988,0.018,-0.153,9.932,4.962,-2.137,-1.649,0.906,0.257,-0.337,10.622,-8.458,-6.885,0.947,none
7.145760,0.213,0.839,-0.501,2535.76,-2.910,7.050,-3.021,-0.180,-0.463,0.868,0.266,0.867,-0.420,2568.70,-1.790,1.790,-0.671,-0.437,-0.839,0.324,0.123,-0.047,-0.991,2542.20,-0.336,0.671,-1.119,0.066,0.068,0.995,-0.247,0.925,-0.290,2449.56,-0.895,2.014,1.007,0.458,-0.849,0.265,0.988,0.030,-0.149,10.077,4.458,-1.573,-1.191,0.900,0.265,-0.345,10.772,-9.298,-6.870,1.618,none
7.145877,0.201,0.853,-0.482,2492.93,-1.231,0.895,-0.783,-0.176,-0.482,0.858,0.244,0.886,-0.394,2516.09,-0.448,-2.126,-0.224,-0.437,-0.851,0.292,0.118,-0.062,-0.991,2573.85,-0.224,0.783,-0.448,0.074,0.081,0.994,-0.252,0.921,-0.298,2480.65,-0.783,0.448,0.895,0.457,-0.850,0.261,0.988,0.025,-0.153,10.057,4.031,-0.733,-1.542,0.902,0.259,-0.346,10.763,-8.626,-6.137,0.656,none
7.152212,0.180,0.870,-0.459,2512.25,-1.343,0.448,-0.112,-0.153,-0.433,0.889,0.235,0.892,-0.385,2527.90,-0.895,0.000,0.560,-0.462,-0.838,0.289,0.123,-0.039,-0.992,2552.24,0.000,0.224,0.783,0.110,0.077,0.991,-0.256,0.922,-0.291,2478.22,0.560,0.000,0.336,0.473,-0.850,0.231,0.987,0.013,-0.159,9.983,5.191,0.092,-2.076,0.903,0.245,-0.354,10.690,-6.687,-5.115,-0.611,none
7.175786,0.175,0.871,-0.460,2464.70,0.336,1.343,0.224,-0.157,-0.431,0.888,0.238,0.887,-0.397,2501.52,0.224,1.343,0.000,-0.444,-0.845,0.297,0.122,-0.043,-0.992,2561.58,0.671,0.000,-0.112,0.096,0.046,0.994,-0.254,0.923,-0.289,2454.32,0.224,0.560,0.000,0.460,-0.845,0.272,0.987,0.009,-0.158,9.945,6.611,-0.015,-2.427,0.905,0.247,-0.346,10.669,-4.779,-4.840,-1.252,none
7.199190,0.182,0.862,-0.473,2478.27,-0.336,2.350,-0.560,-0.165,-0.470,0.867,0.244,0.885,-0.398,2520.05,-0.112,2.350,0.000,-0.446,-0.843,0.300,0.124,-0.036,-0.992,2532.03,0.000,0.000,-0.224,0.096,0.061,0.994,-0.251,0.926,-0.283,2445.44,0.112,0.671,0.000,0.448,-0.864,0.230,0.988,0.016,-0.153,9.973,6.229,0.092,-1.969,0.905,0.256,-0.341,10.674,-5.176,-4.947,-0.901,none
