0.004629,BNO0_UnitAccX,BNO0_UnitAccY,BNO0_UnitAccZ,BNO0_RawAccMag,BNO0_GyrX,BNO0_GyrY,BNO0_GyrZ,BNO0_MagX,BNO0_MagY,BNO0_MagZ,BNO1_UnitAccX,BNO1_UnitAccY,BNO1_UnitAccZ,BNO1_RawAccMag,BNO1_GyrX,BNO1_GyrY,BNO1_GyrZ,BNO1_MagX,BNO1_MagY,BNO1_MagZ,BNO2_UnitAccX,BNO2_UnitAccY,BNO2_UnitAccZ,BNO2_RawAccMag,BNO2_GyrX,BNO2_GyrY,BNO2_GyrZ,BNO2_MagX,BNO2_MagY,BNO2_MagZ,BNO3_UnitAccX,BNO3_UnitAccY,BNO3_UnitAccZ,BNO3_RawAccMag,BNO3_GyrX,BNO3_GyrY,BNO3_GyrZ,BNO3_MagX,BNO3_MagY,BNO3_MagZ,MPU0_UnitAccX,MPU0_UnitAccY,MPU0_UnitAccZ,MPU0_RawAccMag,MPU0_GyrX,MPU0_GyrY,MPU0_GyrZ,MPU1_UnitAccX,MPU1_UnitAccY,MPU1_UnitAccZ,MPU1_RawAccMag,MPU1_GyrX,MPU1_GyrY,MPU1_GyrZ,none
0.004763,-0.3,0.809,-0.506,2470.34,-3.805,-3.581,-2.686,-0.096,-0.924,0.371,-0.317,0.885,-0.341,2455.13,-5.483,2.686,-4.812,-0.08,-0.937,0.339,0.257,0.441,-0.86,2598.32,-1.679,1.455,-3.581,0.148,-0.642,0.752,-0.089,0.994,-0.061,2495.49,-1.231,3.245,-0.224,0.345,-0.937,-0.054,0.532,0.771,-0.35,9.531,5.038,2.198,-7.221,0.517,0.8,-0.305,10.196,-6.824,-2.26,-5.878,none
0.004879,-0.274,0.824,-0.496,2497.67,-0.112,3.021,0.336,-0.098,-0.907,0.411,-0.302,0.896,-0.325,2512.96,0.56,3.245,-0.56,-0.061,-0.929,0.365,0.248,0.755,-0.607,2533.65,-1.679,1.455,-3.581,0.148,-0.642,0.752,0.262,0.774,-0.576,2442.62,2.91,-0.112,1.343,-0.107,-0.773,0.626,0.54,0.769,-0.341,9.679,5.908,1.74,-8.916,0.521,0.799,-0.3,10.304,-6.58,-1.939,-7.466,none
0.007543,0.887,0.442,-0.136,2393.74,2.014,3.357,4.029,-0.835,-0.288,0.469,-0.302,0.896,-0.325,2512.96,1.902,2.686,4.252,-0.8,-0.455,0.392,0.585,-0.491,-0.646,2522.87,6.491,2.91,-1.231,-0.237,0.634,0.736,0.273,0.744,-0.609,2420.42,5.819,3.581,1.231,-0.085,-0.763,0.641,0.543,0.769,-0.337,9.712,5.954,1.893,-9.389,0.525,0.797,-0.297,10.403,-6.626,-1.359,-7.649,none
0.007657,0.887,0.44,-0.14,2449.53,3.021,5.371,5.148,-0.813,-0.329,0.48,0.858,0.512,0.044,2458.07,1.902,4.141,6.491,-0.804,-0.467,0.367,0.579,-0.497,-0.647,2550.11,7.945,3.133,-1.679,-0.229,0.636,0.737,0.278,0.737,-0.616,2444.31,6.602,3.917,1.007,-0.088,-0.779,0.62,0.537,0.77,-0.344,9.717,5.908,1.359,-9.038,0.519,0.801,-0.298,10.359,-6.55,-1.969,-7.481,none
0.007752,0.888,0.438,-0.137,2434.87,2.238,4.7,4.924,-0.813,-0.285,0.508,0.859,0.51,0.052,2447.06,1.567,4.141,5.819,-0.825,-0.431,0.365,0.576,-0.503,-0.644,2576.76,6.491,3.133,-2.014,-0.22,0.646,0.731,0.264,0.735,-0.624,2426.68,5.707,3.917,1.79,-0.088,-0.766,0.637,5.241,7.482,-3.335,9.725,6.076,-0.519,-8.168,5.423,8.332,-3.132,10.423,-6,-3.45,-6.611,none
0.007847,0.889,0.435,-0.143,2476.7,1.007,4.812,3.805,-0.843,-0.308,0.441,0.858,0.513,0.043,2493.19,0.336,4.7,4.588,-0.812,-0.452,0.368,0.582,-0.494,-0.645,2584.18,4.588,3.133,-2.126,-0.194,0.668,0.718,0.139,0.77,-0.622,2212.24,22.941,1.231,2.91,-0.09,-0.751,0.654,5.507,7.554,-3.218,9.886,5.466,-1.45,-6.595,5.629,8.353,-3.072,10.531,-6.107,-3.817,-4.473,none
0.007933,0.876,0.452,-0.169,2557.88,-1.679,2.686,1.902,-0.848,-0.267,0.457,0.86,0.51,0.027,2523.54,-0.336,3.021,3.469,-0.814,-0.462,0.352,0.559,-0.518,-0.647,2654.69,1.119,2.014,-1.567,-0.201,0.665,0.72,0.299,0.748,-0.593,2569.56,-27.529,-4.252,-0.671,-0.11,-0.767,0.632,5.351,7.412,-3.417,9.76,6.87,-2.275,-3.221,5.729,8.334,-3.187,10.604,-4.046,-6.931,-2.046,none
0.008011,0.882,0.457,-0.117,2440.86,-0.783,-0.224,0.224,-0.838,-0.279,0.469,0.855,0.518,0.024,2502.2,-1.455,-0.112,-0.783,-0.806,-0.441,0.395,0.562,-0.497,-0.662,2610.34,-2.35,0.895,-0.336,-0.249,0.619,0.745,0.259,0.789,-0.557,2509.93,-29.879,-4.7,-0.224,-0.09,-0.746,0.66,5.55,7.472,-3.409,9.913,5.282,-2.397,-1.221,5.638,8.344,-3.141,10.549,-5.313,-7.191,-0.382,none
0.008106,0.879,0.449,-0.161,2505.81,-1.902,-1.902,-0.448,-0.837,-0.27,0.476,0.84,0.54,0.055,2476.44,-1.343,-0.56,-0.783,-0.815,-0.441,0.376,0.586,-0.473,-0.658,2551.46,-2.574,0.448,-0.112,-0.251,0.647,0.72,0.269,0.765,-0.586,2486.49,1.119,1.79,1.567,-0.119,-0.765,0.633,5.509,7.554,-3.373,9.939,4.901,-2.183,-1.71,5.59,8.337,-3.27,10.557,-6.366,-5.924,-0.183,none
0.008191,0.871,0.472,-0.135,2470.67,-1.455,-0.224,-0.112,-0.836,-0.318,0.448,0.838,0.543,0.055,2495.12,-1.567,-1.455,0,-0.814,-0.451,0.365,0.573,-0.485,-0.66,2589.59,-1.231,0.448,0.112,-0.234,0.647,0.726,0.282,0.744,-0.606,2449.7,10.407,5.148,2.574,-0.106,-0.748,0.655,5.59,7.331,-3.613,9.902,4.763,-0.702,-1.191,5.751,8.222,-3.424,10.601,-6.427,-5.115,0.443,none
0.02488,0.868,0.475,-0.145,2514.68,-0.448,-1.007,-0.671,-0.826,-0.306,0.474,0.839,0.541,0.051,2523.54,-0.112,-0.783,-0.895,-0.818,-0.438,0.372,0.586,-0.475,-0.657,2585.81,-1.007,-0.671,0.671,-0.235,0.654,0.718,0.277,0.743,-0.609,2452.98,-1.455,-2.238,-0.224,-0.096,-0.736,0.67,5.435,7.436,-3.508,9.856,5.817,0.992,0.84,5.569,8.289,-3.314,10.521,-4.382,-5.099,1.786,none
0.025028,0.877,0.462,-0.131,2477.62,0.336,-2.238,-2.462,-0.822,-0.293,0.489,0.848,0.529,0.043,2510.17,0.448,-1.679,-2.35,-0.818,-0.45,0.359,0.571,-0.499,-0.652,2619.92,-1.343,-1.679,0.112,-0.261,0.672,0.693,0.274,0.746,-0.607,2481.4,-3.021,-1.902,-1.455,-0.1,-0.767,0.633,5.42,7.551,-3.385,9.893,6.504,0.336,1.847,5.552,8.428,-3.089,10.554,-4.519,-6.076,2.672,none
0.025129,0.886,0.439,-0.15,2496.81,-1.119,-2.238,-3.021,-0.834,-0.306,0.459,0.858,0.511,0.04,2479.93,-0.448,-1.902,-3.805,-0.81,-0.466,0.356,0.579,-0.493,-0.65,2551,-3.469,-1.902,1.567,-0.211,0.621,0.755,0.262,0.744,-0.614,2449.33,-0.895,-0.336,-0.895,-0.099,-0.771,0.63,5.432,7.441,-3.388,9.816,5.802,0.427,3.221,5.586,8.282,-3.122,10.466,-5.725,-6.137,3.115,none
0.025216,0.877,0.457,-0.145,2441.09,-0.224,-3.021,-1.679,-0.827,-0.303,0.474,0.847,0.53,0.032,2466.29,-0.224,-3.469,-2.686,-0.806,-0.444,0.391,0.566,-0.492,-0.661,2553.49,-3.133,-1.343,1.902,-0.226,0.629,0.743,0.272,0.749,-0.604,2459.08,-3.021,-2.238,-1.343,-0.13,-0.749,0.65,5.416,7.329,-3.349,9.709,5.496,0.656,2.641,5.598,8.121,-3.218,10.375,-5.756,-5.939,2.656,none
0.031917,0.87,0.471,-0.146,2430.09,-1.455,-3.357,-1.567,-0.816,-0.304,0.492,0.838,0.544,0.045,2422.2,-0.448,-3.469,-1.902,-0.802,-0.465,0.374,0.586,-0.466,-0.663,2486.45,-3.021,-1.902,2.686,-0.238,0.608,0.757,0.259,0.765,-0.59,2434.6,-3.245,-4.364,-2.014,-0.109,-0.757,0.644,5.43,7.259,-3.414,9.687,5.221,1.817,0.397,5.54,8.037,-3.342,10.318,-6.168,-4.046,1.221,none
0.032023,0.867,0.479,-0.136,2391.26,0.895,-0.895,-0.224,-0.829,-0.292,0.476,0.835,0.545,0.071,2361.27,1.455,-1.119,-0.671,-0.817,-0.442,0.369,0.584,-0.472,-0.661,2478.01,0,-1.343,0.671,-0.208,0.656,0.725,0.26,0.767,-0.587,2429.49,3.917,-0.448,-1.343,-0.086,-0.761,0.644,5.306,7.209,-3.405,9.576,5.939,2.534,-2.351,5.464,8.001,-3.227,10.212,-5.527,-3.221,-1.221,none
0.03213,0.871,0.472,-0.136,2383.09,1.679,1.679,0.336,-0.816,-0.299,0.495,0.841,0.54,0.045,2403.81,0.895,2.014,1.231,-0.826,-0.454,0.335,0.579,-0.48,-0.659,2498.88,2.126,-0.336,-0.448,-0.232,0.68,0.695,0.262,0.759,-0.596,2442.22,4.588,1.679,-0.56,-0.089,-0.75,0.655,5.368,7.381,-3.275,9.697,6.458,1.893,-4.595,5.559,8.181,-3.069,10.356,-4.916,-3.282,-2.84,none
0.032215,0.881,0.448,-0.153,2443.81,1.79,2.798,0.783,-0.825,-0.273,0.495,0.861,0.509,0.016,2473.2,1.79,3.245,1.343,-0.832,-0.451,0.321,0.564,-0.502,-0.656,2545.27,3.021,0.448,-2.126,-0.248,0.646,0.722,0.268,0.737,-0.62,2458.69,10.519,3.693,0.895,-0.09,-0.776,0.624,5.485,7.518,-3.227,9.85,5.405,1.344,-4.153,5.665,8.346,-2.998,10.523,-6.015,-3.298,-2.427,none
0.032295,0.885,0.433,-0.172,2509.75,1.343,1.79,0.671,-0.847,-0.279,0.452,0.853,0.521,0.02,2507.18,0.671,0.895,1.567,-0.833,-0.443,0.332,0.567,-0.497,-0.657,2569.71,1.902,0.336,-1.007,-0.236,0.627,0.743,0.284,0.726,-0.626,2497.15,7.945,4.588,1.231,-0.087,-0.77,0.632,5.499,7.499,-3.326,9.876,4.794,1.145,-2.748,5.677,8.317,-3.112,10.54,-6.565,-3.405,-0.824,none
0.032376,0.876,0.459,-0.15,2493.27,1.119,-0.224,1.007,-0.822,-0.315,0.475,0.853,0.521,0.032,2507.1,1.231,-0.895,0.895,-0.827,-0.437,0.354,0.57,-0.501,-0.652,2591.04,1.231,-1.007,-0.112,-0.23,0.616,0.753,0.266,0.718,-0.643,2445.03,15.555,1.902,0.448,-0.088,-0.754,0.651,5.387,7.434,-3.345,9.771,4.779,1.344,-0.977,5.571,8.26,-3.134,10.445,-5.924,-3.206,0.229,none
0.032455,0.88,0.45,-0.151,2479.2,1.679,0.336,-0.56,-0.822,-0.321,0.471,0.852,0.521,0.044,2452.15,1.119,-0.783,-1.119,-0.793,-0.457,0.404,0.567,-0.498,-0.657,2586.91,-0.224,-1.343,0.783,-0.201,0.651,0.732,0.275,0.733,-0.622,2435.23,4.924,1.679,-0.224,-0.097,-0.749,0.655,5.337,7.408,-3.349,9.725,5.679,1.145,-0.412,5.464,8.21,-3.115,10.342,-5.252,-3.969,0.779,none
0.032554,0.884,0.448,-0.134,2423.47,1.119,-0.783,-0.895,-0.832,-0.349,0.432,0.856,0.516,0.032,2455.25,0.783,-1.679,-1.007,-0.8,-0.455,0.392,0.583,-0.491,-0.647,2499.17,-0.448,-1.567,0.336,-0.233,0.638,0.734,0.271,0.745,-0.61,2434.71,1.231,1.007,-0.783,-0.103,-0.739,0.666,5.16,7.451,-3.316,9.65,5.756,0.305,-1.237,5.339,8.224,-3.089,10.28,-5.45,-4.809,-0.046,none
0.06226,0.887,0.444,-0.127,2403.53,0.336,-0.895,-0.783,-0.843,-0.296,0.449,0.858,0.51,0.066,2390.21,0.224,0,-0.448,-0.811,-0.459,0.362,0.575,-0.5,-0.648,2514.88,-0.112,-0.336,0,-0.221,0.656,0.722,0.275,0.74,-0.614,2435.39,2.35,0.56,0.112,-0.095,-0.744,0.661,5.32,7.47,-3.314,9.751,5.252,-0.229,-2.214,5.425,8.277,-3.06,10.359,-5.878,-5.191,-1.069,none
0.062407,0.882,0.449,-0.141,2439.4,-0.336,0,0.336,-0.81,-0.308,0.499,0.854,0.518,0.044,2446.95,-1.119,0.671,0.895,-0.812,-0.461,0.358,0.579,-0.489,-0.652,2512.82,-0.112,0.56,0.224,-0.257,0.656,0.71,0.278,0.741,-0.611,2445.56,2.574,1.007,0.783,-0.089,-0.746,0.66,5.437,7.424,-3.359,9.796,4.901,-0.046,-2.626,5.555,8.21,-3.187,10.412,-6.534,-4.855,-1.588,none
0.062507,0.876,0.461,-0.141,2444.25,-0.448,0.336,1.007,-0.836,-0.282,0.471,0.846,0.53,0.048,2445.61,0,-0.448,1.231,-0.808,-0.459,0.369,0.579,-0.486,-0.655,2548.88,1.007,0.895,0,-0.224,0.621,0.751,0.272,0.744,-0.611,2463.77,2.238,0.336,0.671,-0.107,-0.744,0.66,5.442,7.386,-3.467,9.808,5.328,0.336,-3.053,5.59,8.224,-3.227,10.455,-5.908,-4.718,-1.832,none
0.062597,0.875,0.465,-0.136,2460.42,0.224,0.895,1.343,-0.821,-0.287,0.493,0.843,0.536,0.056,2458.11,0,1.343,1.343,-0.809,-0.45,0.379,0.576,-0.49,-0.655,2564.7,1.455,0.671,-0.112,-0.197,0.635,0.746,0.269,0.746,-0.609,2454.96,2.238,1.231,0.56,-0.105,-0.727,0.678,5.444,7.417,-3.345,9.79,5.267,0.947,-2.855,5.614,8.241,-3.163,10.461,-6.244,-3.954,-1.969,none
0.062688,0.878,0.457,-0.144,2464.09,0.671,1.119,1.119,-0.827,-0.28,0.488,0.847,0.53,0.04,2466.97,0.671,0.671,1.343,-0.811,-0.469,0.35,0.581,-0.48,-0.657,2539.22,1.455,0.112,0.112,-0.234,0.647,0.726,0.275,0.741,-0.613,2472.62,4.252,1.343,0.112,-0.116,-0.74,0.663,5.406,7.381,-3.369,9.75,5.328,1.313,-3.069,5.519,8.222,-3.177,10.399,-5.863,-3.588,-1.878,none
0.062769,0.876,0.461,-0.141,2444.25,1.007,1.007,1.007,-0.807,-0.318,0.497,0.848,0.528,0.048,2441.7,0.671,0.336,1.343,-0.803,-0.443,0.399,0.571,-0.496,-0.654,2533.76,1.679,0.224,0.112,-0.217,0.646,0.732,0.272,0.736,-0.62,2426.28,5.595,1.902,0.56,-0.088,-0.754,0.651,5.274,7.343,-3.361,9.646,5.71,1.008,-3.023,5.459,8.157,-3.156,10.31,-5.664,-4.214,-2.183,none
0.062848,0.882,0.451,-0.139,2407.92,0.56,1.343,1.007,-0.816,-0.304,0.492,0.853,0.521,0.041,2415.73,0.448,0.895,1.231,-0.82,-0.428,0.381,0.576,-0.492,-0.653,2494.09,1.343,0.448,0.112,-0.217,0.657,0.722,0.268,0.738,-0.619,2429.75,4.7,1.007,0.783,-0.098,-0.743,0.662,5.306,7.405,-3.261,9.676,5.847,0.321,-4.046,5.533,8.205,-3.067,10.361,-5.878,-4.336,-2.84,none
0.062928,0.883,0.445,-0.149,2438.71,0.336,2.126,1.231,-0.817,-0.272,0.509,0.85,0.525,0.044,2435.13,-0.56,1.567,1.902,-0.806,-0.467,0.365,0.568,-0.497,-0.656,2528.06,1.79,1.567,-0.895,-0.236,0.667,0.707,0.273,0.727,-0.63,2452.65,3.917,2.35,1.343,-0.098,-0.754,0.65,5.382,7.506,-3.287,9.804,5.389,-0.321,-4.412,5.519,8.277,-3.079,10.413,-6.29,-4.55,-3.16,none
0.069881,0.883,0.444,-0.151,2470.27,-0.112,2.126,1.567,-0.852,-0.268,0.449,0.858,0.513,0.032,2469.82,-0.56,2.35,1.79,-0.818,-0.469,0.334,0.564,-0.502,-0.655,2562.48,1.567,1.679,-1.119,-0.253,0.628,0.736,0.28,0.727,-0.627,2464,4.252,2.686,1.679,-0.108,-0.754,0.648,5.492,7.432,-3.388,9.842,5.176,-0.763,-3.42,5.643,8.31,-3.182,10.537,-6.107,-5.634,-2.595,none
0.069987,0.873,0.466,-0.147,2478.93,-0.895,0.783,1.455,-0.829,-0.292,0.476,0.85,0.526,0.032,2504.67,-1.343,1.007,1.902,-0.812,-0.452,0.371,0.571,-0.491,-0.658,2582.72,0.448,1.567,0.336,-0.23,0.617,0.753,0.275,0.738,-0.617,2471.5,-0.671,-1.343,1.119,-0.108,-0.746,0.657,5.531,7.427,-3.371,9.854,5.237,-0.046,-2.809,5.643,8.219,-3.259,10.489,-6.168,-5.191,-2.076,none
0.070104,0.87,0.471,-0.147,2474.9,-0.56,0.783,1.007,-0.822,-0.316,0.473,0.844,0.535,0.04,2478.47,-1.007,-0.336,1.119,-0.818,-0.442,0.367,0.582,-0.477,-0.659,2534.44,0.783,0.671,0.56,-0.225,0.657,0.719,0.273,0.745,-0.608,2457.67,0.224,-0.448,0.56,-0.087,-0.757,0.648,5.397,7.355,-3.397,9.735,5.664,0.931,-3.695,5.571,8.155,-3.211,10.385,-5.878,-3.695,-2.595,none
0.07022,0.873,0.469,-0.138,2422.56,0.112,1.79,1.007,-0.825,-0.299,0.48,0.84,0.539,0.065,2405.67,0.671,0,1.231,-0.831,-0.434,0.348,0.573,-0.495,-0.653,2557.34,2.462,0.783,-1.79,-0.215,0.638,0.739,0.263,0.742,-0.616,2441.9,3.917,1.902,0.448,-0.118,-0.753,0.648,5.198,7.357,-3.318,9.6,5.924,0.794,-3.939,5.399,8.157,-3.134,10.272,-5.191,-4.473,-2.947,none
0.070302,0.89,0.435,-0.139,2407.47,0.671,1.79,0.336,-0.831,-0.31,0.462,0.863,0.505,0.032,2435.34,0.671,2.91,0.671,-0.805,-0.472,0.359,0.57,-0.503,-0.65,2520.01,1.79,1.007,-1.79,-0.225,0.66,0.717,0.274,0.733,-0.623,2446.7,1.79,1.343,1.007,-0.087,-0.738,0.669,5.337,7.551,-3.172,9.776,5.939,-0.458,-4.58,5.461,8.308,-2.926,10.364,-5.573,-4.947,-3.115,none
0.070381,0.89,0.429,-0.152,2462.11,-0.448,2.686,0.783,-0.832,-0.303,0.465,0.861,0.508,0.036,2439.85,-1.231,2.014,1.455,-0.817,-0.455,0.353,0.575,-0.5,-0.647,2532.1,1.343,2.238,-1.455,-0.25,0.639,0.728,0.266,0.736,-0.623,2448.18,-0.112,1.119,1.567,-0.139,-0.736,0.663,5.401,7.556,-3.247,9.839,4.977,-0.809,-4.962,5.653,8.416,-3.029,10.581,-6.672,-4.55,-3.573,none
0.070482,0.881,0.448,-0.15,2488.89,-0.336,1.902,2.462,-0.822,-0.303,0.483,0.856,0.515,0.039,2498.77,0,1.679,2.35,-0.815,-0.453,0.361,0.572,-0.499,-0.651,2579.53,1.902,2.574,-1.455,-0.202,0.638,0.743,0.274,0.736,-0.619,2477.68,4.029,3.357,2.238,-0.126,-0.747,0.653,5.504,7.489,-3.39,9.893,4.702,0.046,-3.313,5.605,8.337,-3.211,10.546,-6.397,-4.366,-2.534,none
0.070562,0.881,0.45,-0.146,2499.84,0.671,1.007,2.238,-0.826,-0.28,0.489,0.847,0.531,0.031,2536.11,-0.448,1.007,2.462,-0.836,-0.421,0.353,0.574,-0.494,-0.653,2603.46,1.343,0.783,-0.224,-0.252,0.62,0.743,0.275,0.732,-0.623,2476.55,7.274,4.476,1.567,-0.096,-0.745,0.66,5.449,7.554,-3.364,9.903,5.832,0.321,-1.939,5.588,8.344,-3.177,10.533,-5.298,-4.611,-0.931,none
0.070637,0.883,0.448,-0.139,2471.25,-0.112,0,0.56,-0.838,-0.302,0.454,0.855,0.516,0.044,2476.92,1.119,-0.112,0.224,-0.838,-0.432,0.334,0.576,-0.499,-0.647,2578.21,0.671,0,0.112,-0.206,0.661,0.721,0.279,0.722,-0.633,2471.52,7.162,1.007,0.671,-0.097,-0.733,0.673,5.318,7.501,-3.349,9.786,5.573,0.84,-1.313,5.478,8.356,-3.069,10.452,-5.725,-4.137,-0.611,none
0.075684,0.884,0.448,-0.137,2446.84,0.448,0,0.224,-0.839,-0.301,0.453,0.85,0.524,0.052,2459.19,0.448,-0.448,0.448,-0.798,-0.478,0.368,0.58,-0.494,-0.648,2544.51,0.783,-0.224,-0.224,-0.209,0.654,0.727,0.279,0.725,-0.63,2435.32,-0.224,-0.448,-0.224,-0.128,-0.739,0.661,5.212,7.463,-3.259,9.668,5.481,0.29,-1.511,5.349,8.236,-3.115,10.303,-5.634,-4.534,-1.069,none
0.075792,0.89,0.435,-0.137,2430.51,0.895,0.448,0.448,-0.84,-0.288,0.46,0.857,0.513,0.04,2450.79,0.224,0.112,0.448,-0.815,-0.448,0.368,0.578,-0.504,-0.642,2535.8,0.224,-0.224,-0.224,-0.216,0.66,0.72,0.275,0.729,-0.626,2433.54,-2.35,0.336,0.112,-0.12,-0.73,0.673,5.262,7.429,-3.294,9.682,5.771,-0.824,-1.725,5.461,8.305,-3.048,10.397,-5.45,-5.74,-0.824,none
0.07588,0.885,0.444,-0.141,2444.65,-0.671,0.224,-0.112,-0.819,-0.302,0.488,0.859,0.51,0.048,2446.55,-0.224,0.112,-0.224,-0.822,-0.435,0.367,0.576,-0.498,-0.648,2543.69,-0.671,0.336,-0.336,-0.253,0.641,0.724,0.277,0.73,-0.625,2455.69,-1.119,0.671,0.783,-0.109,-0.741,0.663,5.341,7.496,-3.335,9.79,5.191,-0.656,-1.191,5.528,8.337,-3.098,10.472,-5.588,-5.649,-0.565,none
0.075975,0.876,0.46,-0.146,2490.91,0.112,-0.112,-0.448,-0.855,-0.289,0.431,0.842,0.538,0.047,2503.86,0.448,-1.007,-0.671,-0.824,-0.432,0.367,0.582,-0.485,-0.653,2570.64,-0.783,-1.119,0.671,-0.24,0.655,0.717,0.288,0.731,-0.618,2464.97,-2.574,-0.895,-1.119,-0.116,-0.731,0.672,5.277,7.556,-3.318,9.795,6.397,0.733,0.046,5.397,8.308,-3.12,10.386,-4.855,-4.595,1.084,none
0.079151,0.88,0.454,-0.143,2480.79,0.336,-1.79,-1.231,-0.821,-0.287,0.493,0.853,0.519,0.048,2461.99,1.007,-1.007,-1.679,-0.802,-0.467,0.372,0.58,-0.494,-0.648,2544.51,-1.007,-1.679,0.671,-0.236,0.642,0.73,0.281,0.731,-0.622,2451.52,-3.469,-1.567,-1.343,-0.104,-0.731,0.674,5.176,7.491,-3.294,9.683,5.466,0.595,-0.534,5.356,8.294,-3.05,10.333,-5.588,-4.58,0.092,none
0.121782,0.89,0.437,-0.134,2420.39,-0.112,-0.671,-0.112,-0.835,-0.288,0.469,0.861,0.507,0.045,2405.55,0.224,-0.336,-0.895,-0.827,-0.436,0.355,0.583,-0.5,-0.641,2498.13,-0.112,-0.224,0.224,-0.162,0.659,0.734,0.289,0.724,-0.626,2450.81,-0.783,0,-0.224,-0.094,-0.728,0.679,5.243,7.448,-3.316,9.694,5.802,-0.443,-1.802,5.349,8.241,-3.117,10.307,-5.588,-5.511,-0.962,none
0.127326,0.883,0.45,-0.133,2436.79,-0.448,0,0.224,-0.835,-0.251,0.49,0.854,0.518,0.056,2449.26,-0.783,0,0.112,-0.824,-0.445,0.35,0.577,-0.502,-0.644,2542.23,-0.671,0.895,-0.224,-0.226,0.643,0.732,0.282,0.734,-0.618,2483.24,-4.252,-0.112,0.224,-0.086,-0.741,0.666,5.49,7.547,-3.342,9.913,6.092,-0.519,-1.863,5.657,8.356,-3.132,10.566,-5.328,-5.466,-0.947,none
0.149597,0.877,0.46,-0.142,2490.35,-0.783,0.671,0,-0.828,-0.325,0.458,0.847,0.53,0.031,2522.87,-1.231,0.448,0.224,-0.818,-0.438,0.372,0.577,-0.488,-0.655,2575.78,-0.783,0.224,0.224,-0.229,0.636,0.737,0.286,0.722,-0.63,2482.67,-8.281,1.231,-0.448,-0.136,-0.709,0.692,5.516,7.47,-3.373,9.88,6.046,0.321,-0.458,5.698,8.332,-3.199,10.589,-5.298,-5.191,0.26,none
0.171957,0.878,0.456,-0.146,2487.21,-0.448,-1.679,-0.56,-0.829,-0.306,0.468,0.853,0.52,0.035,2493.66,0.448,-1.119,-0.783,-0.83,-0.441,0.34,0.571,-0.494,-0.656,2586.99,-0.56,-0.671,0.783,-0.226,0.668,0.709,0.262,0.75,-0.608,2443.84,-10.183,-6.155,-2.35,-0.107,-0.744,0.66,5.416,7.408,-3.354,9.77,6.198,0.84,0.824,5.59,8.267,-3.127,10.458,-4.87,-5.282,1.542,none
0.197339,0.88,0.454,-0.14,2458.12,-0.112,-2.35,-1.343,-0.809,-0.321,0.493,0.849,0.526,0.044,2448.88,0.56,-1.902,-1.79,-0.821,-0.443,0.359,0.575,-0.493,-0.654,2551.75,-1.343,-1.679,1.231,-0.244,0.603,0.76,0.275,0.745,-0.608,2474.69,-8.505,-2.35,-2.126,-0.085,-0.736,0.672,5.318,7.47,-3.285,9.74,6.229,0.595,0.366,5.454,8.2,-3.146,10.339,-5.191,-5.389,1.206,none
0.219612,0.878,0.46,-0.134,2428.27,-0.56,-2.014,-1.231,-0.836,-0.276,0.474,0.848,0.528,0.053,2419.97,-0.112,-1.007,-0.895,-0.824,-0.449,0.345,0.584,-0.482,-0.653,2508.28,-0.783,-0.671,0.56,-0.251,0.649,0.718,0.263,0.741,-0.618,2434.48,-2.014,-1.679,-1.119,-0.118,-0.74,0.662,5.241,7.343,-3.364,9.628,5.878,-0.015,-0.534,5.389,8.138,-3.189,10.268,-5.496,-5.099,-0.168,none
0.24205,0.881,0.453,-0.138,2421.25,-0.112,-0.224,-0.783,-0.833,-0.271,0.483,0.855,0.516,0.049,2420.84,-0.112,0.336,-1.007,-0.827,-0.437,0.354,0.573,-0.495,-0.653,2522.76,-0.783,-0.336,0.224,-0.196,0.664,0.722,0.271,0.739,-0.617,2438.82,-0.448,0,-0.112,-0.105,-0.736,0.669,5.389,7.436,-3.273,9.75,6.137,-0.305,-1.13,5.557,8.222,-3.048,10.381,-5.282,-5.389,-0.321,none
0.26464,0.882,0.447,-0.152,2453.5,-0.224,0,-0.448,-0.821,-0.287,0.493,0.849,0.527,0.032,2461.01,-1.119,0.112,-0.224,-0.807,-0.469,0.358,0.573,-0.495,-0.653,2522.76,-0.895,0.224,-0.112,-0.21,0.664,0.717,0.273,0.742,-0.613,2456.34,1.79,0.56,0.336,-0.117,-0.764,0.635,5.413,7.446,-3.27,9.769,5.481,-0.137,-1.679,5.516,8.229,-3.091,10.378,-5.817,-4.947,-0.504,none
0.286962,0.878,0.457,-0.141,2439.66,-0.224,-0.448,0.56,-0.841,-0.272,0.468,0.854,0.518,0.048,2448.27,-0.224,0,0.448,-0.815,-0.454,0.36,0.571,-0.5,-0.651,2532.87,0.336,0.112,-0.224,-0.239,0.616,0.751,0.269,0.739,-0.618,2452.38,1.007,0.671,0.448,-0.125,-0.755,0.644,5.318,7.403,-3.333,9.705,5.786,-0.305,-1.985,5.48,8.188,-3.175,10.352,-5.511,-4.992,-1.053,none
0.314753,0.88,0.454,-0.141,2435.98,0.112,0.56,0,-0.828,-0.291,0.48,0.856,0.515,0.044,2441.79,0.112,0.783,-0.112,-0.83,-0.438,0.344,0.575,-0.493,-0.654,2551.75,-0.112,0.448,-0.56,-0.256,0.649,0.717,0.251,0.672,-0.696,2316.86,14.883,-3.469,0.224,-0.086,-0.721,0.688,5.339,7.475,-3.318,9.767,6.046,-0.641,-1.954,5.456,8.284,-3.074,10.385,-5.45,-4.992,-0.794,none
0.334217,0.886,0.443,-0.14,2452.61,-1.343,-0.783,-0.336,-0.801,-0.329,0.5,0.856,0.515,0.04,2461.93,-0.448,0.448,-0.224,-0.839,-0.438,0.324,0.563,-0.505,-0.654,2566.87,-0.112,0.224,-1.231,-0.269,0.648,0.713,0.263,0.699,-0.664,2397.53,5.931,-1.007,0.448,-0.105,-0.736,0.668,5.413,7.484,-3.223,9.783,5.466,-1.298,-1.573,5.588,8.255,-3.12,10.445,-5.252,-5.359,-0.718,none
0.360771,0.892,0.424,-0.159,2469.71,-0.783,0.671,-0.783,-0.843,-0.272,0.463,0.853,0.521,0.036,2471.91,-1.343,0.448,-0.224,-0.811,-0.449,0.375,0.568,-0.498,-0.655,2562.49,-1.567,0.336,0.56,-0.207,0.633,0.746,0.272,0.722,-0.636,2458.78,-3.581,-4.924,-0.336,-0.103,-0.739,0.666,5.471,7.515,-3.29,9.861,5.588,-1.282,-1.16,5.545,8.265,-3.172,10.446,-5.786,-5.954,-0.244,none
0.378729,0.875,0.464,-0.136,2447.9,-2.126,-2.014,-0.224,-0.801,-0.337,0.495,0.851,0.524,0.04,2457.81,-0.112,-0.336,0,-0.812,-0.447,0.376,0.577,-0.488,-0.655,2575.78,-0.336,0.224,0,-0.182,0.655,0.734,0.283,0.735,-0.617,2440.49,-13.317,-4.029,-0.895,-0.102,-0.747,0.658,5.387,7.338,-3.452,9.736,4.626,-0.58,-2.015,5.507,8.212,-3.256,10.41,-6.122,-4.702,-0.336,none
0.402511,0.878,0.455,-0.151,2474.94,-0.783,-0.783,-0.336,-0.834,-0.258,0.488,0.846,0.531,0.044,2481.16,-0.224,-0.224,0,-0.798,-0.46,0.389,0.58,-0.483,-0.656,2560.65,-0.448,0.112,0.448,-0.193,0.647,0.738,0.257,0.754,-0.605,2456.28,0.336,-2.91,0,-0.086,-0.746,0.661,5.483,7.424,-3.34,9.815,5.924,0.412,-1.878,5.638,8.162,-3.256,10.441,-5.496,-3.725,-0.733,none
0.422585,0.867,0.476,-0.149,2448.85,1.343,0.895,-0.336,-0.832,-0.268,0.486,0.829,0.555,0.064,2460.12,0,-0.783,0.224,-0.821,-0.443,0.36,0.572,-0.487,-0.659,2561.13,0.56,-0.671,-0.671,-0.226,0.643,0.732,0.289,0.781,-0.553,2558.75,-40.846,24.172,-0.112,-0.106,-0.764,0.636,5.272,7.283,-3.469,9.637,7.328,0.244,-1.954,5.423,8.131,-3.225,10.292,-3.802,-4.153,-0.87,none
0.44578,0.889,0.437,-0.138,2420.72,4.029,2.462,-0.783,-0.833,-0.298,0.466,0.857,0.513,0.049,2415.36,1.119,1.567,-1.902,-0.811,-0.466,0.355,0.594,-0.478,-0.647,2486.84,0.336,-0.671,-0.56,-0.211,0.648,0.732,0.256,0.756,-0.602,2383.82,6.155,-6.602,-1.007,-0.119,-0.749,0.651,5.224,7.532,-3.261,9.729,7.115,0.061,-2.672,5.373,8.368,-3.002,10.387,-4.58,-4.504,-1.466,none
0.46762,0.885,0.45,-0.121,2432.97,0.224,0.895,-0.671,-0.827,-0.308,0.471,0.859,0.508,0.061,2420.42,1.119,1.343,0.336,-0.803,-0.448,0.393,0.578,-0.511,-0.636,2499.95,1.455,0,-1.343,-0.193,0.624,0.757,0.299,0.728,-0.617,2503.65,8.057,4.812,1.119,-0.078,-0.759,0.646,5.25,7.53,-3.4,9.789,5.496,0.061,-3.359,5.459,8.408,-3.077,10.486,-6.229,-4.626,-2.382,none
0.490469,0.886,0.443,-0.139,2475.64,0.112,1.902,1.679,-0.813,-0.351,0.464,0.852,0.523,0.035,2498.88,-1.343,1.567,2.126,-0.808,-0.455,0.373,0.584,-0.48,-0.655,2578.83,1.119,1.567,0.112,-0.22,0.662,0.717,0.275,0.734,-0.621,2470.33,7.05,1.455,1.79,-0.089,-0.746,0.66,5.55,7.479,-3.414,9.92,5.42,0.427,-3.389,5.686,8.294,-3.294,10.582,-6.519,-3.954,-2.412,none
0.512989,0.872,0.467,-0.149,2515.03,0.56,2.014,1.007,-0.809,-0.287,0.512,0.846,0.531,0.047,2515.92,0.112,1.007,1.455,-0.818,-0.45,0.359,0.568,-0.504,-0.65,2612.22,1.567,0.783,-0.671,-0.232,0.665,0.71,0.279,0.738,-0.614,2468.74,4.364,1.343,0.671,-0.086,-0.746,0.661,5.406,7.417,-3.338,9.766,6.595,0.992,-1.176,5.528,8.265,-3.187,10.441,-4.58,-4.534,-0.244,none
0.932301,0.886,0.439,-0.151,2475.58,0.671,0.112,-1.007,-0.829,-0.301,0.471,0.856,0.517,0.02,2509.68,0.783,0.895,-0.56,-0.83,-0.443,0.339,0.572,-0.495,-0.654,2580.44,-0.224,-0.56,0.671,-0.24,0.641,0.729,0.28,0.735,-0.618,2466.18,0.448,1.679,-0.671,-0.11,-0.759,0.642,5.313,7.487,-3.211,9.725,6.672,0.046,-0.366,5.468,8.329,-2.974,10.398,-4.824,-5.618,0.29,none
0.932466,0.888,0.438,-0.141,2435.38,-1.231,-1.455,-1.231,-0.842,-0.286,0.457,0.859,0.508,0.057,2398.43,-0.56,-0.448,-0.783,-0.812,-0.452,0.371,0.57,-0.507,-0.647,2519.22,-1.007,0,0.448,-0.218,0.626,0.749,0.252,0.715,-0.652,2426.1,-5.036,-1.007,0.224,-0.09,-0.764,0.639,5.224,7.453,-3.244,9.663,4.473,-0.473,-1.695,5.521,8.217,-3.057,10.361,-6.061,-5.435,-0.489,none
0.932586,0.877,0.461,-0.134,2419.5,-1.231,-0.671,0.448,-0.829,-0.306,0.468,0.85,0.526,0.032,2448.62,-0.895,0.224,0.671,-0.815,-0.437,0.38,0.582,-0.483,-0.655,2502.45,0.112,0.56,0.56,-0.201,0.63,0.75,0.296,0.754,-0.587,2496.85,-3.805,-0.783,1.231,-0.087,-0.77,0.632,5.385,7.42,-3.28,9.737,3.985,-0.397,-2.611,5.569,8.164,-3.172,10.379,-6.824,-4.412,-1.328,none
0.932699,0.875,0.464,-0.138,2426.22,-0.336,0.56,0.448,-0.84,-0.282,0.464,0.843,0.535,0.06,2444.07,0.336,-0.56,1.231,-0.837,-0.437,0.33,0.578,-0.489,-0.654,2553.75,1.119,1.119,-0.56,-0.221,0.68,0.699,0.291,0.757,-0.585,2472.3,5.707,-4.252,1.679,-0.097,-0.75,0.654,5.25,7.465,-3.251,9.688,6.153,-0.763,-2.565,5.413,8.176,-3.232,10.325,-6.015,-3.389,-1.496,none
0.932809,0.875,0.461,-0.148,2460.92,0.895,1.567,-0.448,-0.832,-0.26,0.49,0.853,0.522,0.028,2485.38,0.336,1.679,-0.671,-0.823,-0.48,0.303,0.569,-0.497,-0.655,2591.94,0.448,0,-1.567,-0.261,0.67,0.695,0.265,0.728,-0.632,2489.36,16.562,3.469,0.224,-0.109,-0.754,0.648,5.559,7.245,-3.543,9.795,6.626,-0.366,-1.099,5.432,8.167,-3.259,10.336,-3.725,-5.847,0.733,none
0.932896,0.895,0.413,-0.17,2491.71,-0.56,-1.455,-1.902,-0.823,-0.308,0.477,0.854,0.519,0.032,2480.14,0.224,0.336,-1.679,-0.802,-0.47,0.368,0.585,-0.487,-0.649,2523.81,-1.119,-1.119,-0.224,-0.207,0.633,0.746,0.265,0.73,-0.629,2453.37,-11.414,1.902,-0.895,-0.116,-0.731,0.672,5.162,7.518,-3.194,9.662,7.786,-0.336,0.122,5.382,8.234,-3.089,10.31,-3.13,-6.473,1.16,none
0.932967,0.886,0.445,-0.131,2395.95,-1.567,-2.35,-2.014,-0.835,-0.288,0.469,0.849,0.525,0.065,2416.42,0.448,-0.783,-1.567,-0.821,-0.443,0.36,0.567,-0.509,-0.648,2530.77,-2.014,-0.56,-0.336,-0.196,0.633,0.749,0.282,0.76,-0.586,2450.56,-28.312,-0.671,-1.343,-0.119,-0.757,0.642,5.308,7.554,-3.239,9.784,6.595,-1.664,-2.55,5.519,8.384,-2.935,10.458,-5.389,-4.626,-1.389,none
0.933038,0.884,0.448,-0.137,2446.84,0.224,2.126,-1.231,-0.833,-0.296,0.468,0.855,0.518,0.036,2447.01,-1.343,1.455,-0.336,-0.815,-0.442,0.375,0.59,-0.482,-0.648,2486.38,-0.671,1.007,-1.343,-0.237,0.621,0.747,0.259,0.76,-0.596,2475.57,-3.245,-2.35,0,-0.115,-0.743,0.659,5.337,7.503,-3.349,9.798,5.099,-1.099,-2.84,5.456,8.289,-3.218,10.432,-6.061,-4.55,-2.427,none
0.933111,0.881,0.452,-0.142,2490.47,0,2.238,0.448,-0.826,-0.296,0.479,0.85,0.525,0.048,2471.06,-0.56,0.895,0.671,-0.819,-0.433,0.377,0.573,-0.495,-0.653,2557.34,0.112,1.455,-2.014,-0.258,0.644,0.72,0.283,0.741,-0.609,2472.09,11.414,3.805,2.238,-0.098,-0.72,0.687,5.49,7.312,-3.512,9.795,5.817,-1.115,-2.626,5.653,8.193,-3.354,10.504,-4.534,-5.878,-1.557,none
0.933171,0.865,0.482,-0.143,2477.72,-1.567,-0.336,0,-0.83,-0.322,0.456,0.839,0.542,0.047,2502.53,-0.895,0.336,0.448,-0.809,-0.456,0.371,0.579,-0.475,-0.662,2563.58,-0.336,0,-0.336,-0.223,0.655,0.722,0.28,0.748,-0.602,2465.35,-3.357,0.671,0.224,-0.113,-0.747,0.655,5.499,7.46,-3.294,9.836,5.511,0.885,-1.802,5.689,8.274,-3.177,10.532,-5.237,-3.389,-0.275,none
0.933233,0.879,0.454,-0.144,2459.54,1.902,0.56,-0.783,-0.829,-0.266,0.492,0.846,0.531,0.048,2459.38,1.567,0.336,-0.783,-0.809,-0.446,0.382,0.577,-0.487,-0.656,2542.44,0.336,-0.895,-0.56,-0.251,0.661,0.707,0.272,0.753,-0.599,2460.57,-5.371,-1.902,-1.567,-0.128,-0.772,0.623,5.262,7.422,-3.39,9.709,5.389,1.374,-2.122,5.344,8.26,-3.127,10.323,-5.618,-3.603,-0.641,none
0.933292,0.889,0.439,-0.134,2432.77,1.007,0.112,0,-0.826,-0.316,0.466,0.858,0.512,0.048,2437.97,1.343,0.336,0,-0.808,-0.455,0.373,0.581,-0.491,-0.649,2522.86,0.783,-0.56,-0.671,-0.213,0.67,0.711,0.282,0.744,-0.606,2449.7,2.91,1.79,-0.112,-0.087,-0.757,0.648,5.253,7.496,-3.364,9.752,5.45,0.534,-2.962,5.44,8.277,-3.141,10.39,-5.832,-4.244,-1.45,none
0.933351,0.88,0.458,-0.128,2457.91,-0.224,0.112,0.783,-0.845,-0.277,0.457,0.852,0.521,0.06,2454.18,0.224,0,0.895,-0.814,-0.451,0.365,0.585,-0.491,-0.645,2539.5,0.895,0.224,-0.783,-0.208,0.643,0.737,0.29,0.733,-0.615,2445.19,6.491,2.798,0.783,-0.107,-0.757,0.644,5.334,7.501,-3.395,9.811,5.588,0.58,-2.611,5.492,8.315,-3.211,10.47,-5.618,-3.985,-1.405,none
0.933426,0.883,0.449,-0.138,2484.56,1.119,1.343,0.336,-0.822,-0.308,0.478,0.854,0.518,0.043,2503.84,0.224,1.007,0.783,-0.805,-0.458,0.377,0.58,-0.495,-0.647,2578.37,0.56,0.112,-0.112,-0.201,0.651,0.732,0.288,0.731,-0.618,2464.97,-3.693,-1.455,-0.671,-0.126,-0.731,0.671,5.365,7.532,-3.397,9.852,6,0.641,-1.252,5.533,8.37,-3.124,10.509,-5.084,-4.626,-0.153,none
0.933493,0.885,0.445,-0.138,2488.05,0.336,0,-0.56,-0.825,-0.306,0.475,0.858,0.513,0.043,2493.19,0.112,-0.112,-0.671,-0.802,-0.461,0.379,0.577,-0.496,-0.649,2573.23,-0.224,-0.895,0.336,-0.226,0.629,0.743,0.283,0.737,-0.613,2470.81,-3.469,-1.119,-1.007,-0.117,-0.764,0.635,5.272,7.518,-3.405,9.793,6.076,0.962,0.168,5.447,8.349,-3.129,10.448,-5.45,-4.962,0.611,none
0.933554,0.886,0.443,-0.135,2473.39,0.336,-1.007,-0.783,-0.835,-0.323,0.446,0.854,0.518,0.052,2468.47,0.336,-1.007,-1.231,-0.822,-0.43,0.374,0.586,-0.489,-0.646,2551.81,-0.895,-0.783,0.783,-0.204,0.643,0.738,0.284,0.739,-0.611,2464.69,1.455,-0.671,-0.783,-0.085,-0.745,0.662,5.267,7.475,-3.373,9.747,6.183,0.504,0.015,5.411,8.277,-3.139,10.375,-5.603,-5.145,0.534,none
0.933615,0.883,0.451,-0.13,2427.53,0,-1.007,-0.448,-0.845,-0.265,0.464,0.848,0.526,0.056,2428.1,-0.336,-0.671,-0.783,-0.811,-0.461,0.36,0.583,-0.492,-0.647,2516.38,-0.783,-0.56,0.448,-0.209,0.628,0.75,0.279,0.739,-0.613,2438.16,-1.119,-0.671,-0.448,-0.113,-0.75,0.652,5.21,7.365,-3.388,9.636,6.336,0.076,-1.053,5.416,8.179,-3.151,10.303,-5.069,-5.389,-0.443,none
0.935193,0.88,0.456,-0.134,2424.57,-0.448,0.336,-0.224,-0.843,-0.31,0.44,0.85,0.523,0.053,2422.36,-0.448,0.783,-0.56,-0.824,-0.449,0.345,0.581,-0.486,-0.653,2524.49,-0.112,0.112,-0.224,-0.202,0.624,0.755,0.274,0.749,-0.603,2445.56,-2.014,-0.112,0,-0.102,-0.743,0.661,5.277,7.489,-3.282,9.732,5.481,-0.443,-2.29,5.523,8.289,-3.05,10.417,-5.374,-4.229,-1.359,none
0.935272,0.881,0.451,-0.14,2452.72,0.224,0.895,-0.224,-0.836,-0.276,0.474,0.851,0.523,0.052,2445.45,-0.448,0.895,-0.112,-0.808,-0.459,0.369,0.576,-0.498,-0.648,2543.69,0,0.112,-0.56,-0.251,0.69,0.679,0.285,0.734,-0.617,2456.1,1.231,0.671,0.448,-0.12,-0.761,0.637,5.406,7.441,-3.39,9.803,5.878,-0.595,-1.298,5.629,8.339,-3.103,10.529,-4.947,-6.443,-0.504,none
0.960582,0.874,0.465,-0.144,2464.09,-2.126,-2.014,0,-0.842,-0.249,0.479,0.846,0.532,0.031,2514.4,-1.567,0,-0.224,-0.816,-0.431,0.385,0.569,-0.492,-0.659,2594.22,-2.014,0.112,0.56,-0.239,0.629,0.74,0.264,0.743,-0.614,2465.55,-11.414,-4.7,-0.56,-0.085,-0.753,0.652,5.588,7.4,-3.45,9.894,5.237,-0.473,-0.015,5.777,8.289,-3.22,10.604,-5.206,-6.351,0.992,none
0.983617,0.87,0.47,-0.15,2498.49,-1.231,-2.238,-1.119,-0.836,-0.276,0.474,0.839,0.543,0.039,2513.81,-0.224,-0.224,-1.902,-0.815,-0.443,0.373,0.565,-0.489,-0.665,2612.75,-1.902,-0.783,0.112,-0.187,0.653,0.734,0.269,0.759,-0.593,2489.3,-2.574,-2.35,-0.895,-0.109,-0.757,0.644,5.586,7.441,-3.373,9.897,5.557,0.168,1.252,5.655,8.188,-3.28,10.478,-5.313,-5.099,1.954,none
1.006238,0.878,0.451,-0.163,2475.84,0.224,-1.902,-1.79,-0.836,-0.276,0.474,0.831,0.554,0.044,2465.79,0.112,-2.126,-2.126,-0.812,-0.453,0.368,0.57,-0.477,-0.669,2553.57,-2.014,-2.014,1.231,-0.241,0.629,0.739,0.269,0.753,-0.6,2457.87,5.26,-1.007,-0.56,-0.125,-0.746,0.654,5.464,7.324,-3.335,9.727,5.985,0.427,1.298,5.626,8.107,-3.223,10.381,-5.74,-4.58,2.092,none
1.029626,0.862,0.488,-0.135,2405.77,-0.448,-2.686,-1.455,-0.836,-0.31,0.453,0.835,0.547,0.049,2405.93,0,-1.79,-1.567,-0.828,-0.428,0.362,0.576,-0.477,-0.665,2494.95,-1.231,-1.79,1.231,-0.239,0.668,0.704,0.266,0.742,-0.615,2413.99,3.581,0.56,-0.56,-0.115,-0.748,0.654,5.162,7.178,-3.452,9.491,5.053,0.977,-0.702,5.358,8.064,-3.184,10.192,-5.267,-4.092,0.382,none
1.44262,0.88,0.461,-0.116,2379.54,1.567,-0.336,-0.448,-0.827,-0.275,0.49,0.862,0.503,0.058,2365.69,1.79,-0.336,-1.679,-0.818,-0.442,0.367,0.579,-0.483,-0.657,2480.59,0,-1.007,-0.224,-0.206,0.669,0.714,0.264,0.742,-0.616,2428.32,11.414,6.043,1.007,-0.1,-0.758,0.645,5.267,7.491,-3.268,9.723,5.206,0.351,-3.237,5.306,8.219,-3.144,10.276,-5.71,-4.458,-1.969,none
1.442834,0.889,0.437,-0.138,2420.72,0.224,1.79,0.448,-0.834,-0.264,0.484,0.851,0.522,0.065,2411.19,-0.448,1.343,1.455,-0.804,-0.48,0.351,0.575,-0.496,-0.651,2533.61,1.343,0.783,-1.007,-0.215,0.638,0.739,0.268,0.745,-0.611,2431.54,9.848,5.26,2.126,-0.107,-0.765,0.635,5.473,7.403,-3.414,9.819,5.389,0.458,-3.969,5.602,8.219,-3.206,10.451,-6.534,-4.244,-2.58,none
1.442936,0.876,0.461,-0.143,2481.59,0.783,2.014,1.79,-0.828,-0.291,0.48,0.843,0.537,0.039,2491.42,0.112,1.007,2.238,-0.801,-0.479,0.358,0.581,-0.477,-0.66,2574.14,2.014,1.343,-0.56,-0.248,0.612,0.751,0.283,0.741,-0.609,2472.09,0.224,-0.671,0.224,-0.115,-0.743,0.659,5.488,7.46,-3.417,9.871,6.137,1.328,-3.282,5.708,8.317,-3.179,10.577,-5.679,-3.893,-1.893,none
1.443033,0.877,0.458,-0.146,2500.55,0.671,1.119,1.119,-0.849,-0.252,0.465,0.846,0.532,0.043,2494.09,1.119,1.119,0.895,-0.815,-0.454,0.36,0.57,-0.49,-0.659,2605.28,1.79,-0.224,-0.671,-0.242,0.637,0.732,0.277,0.74,-0.612,2489.04,0.448,0.224,-0.112,-0.104,-0.731,0.674,5.468,7.515,-3.349,9.879,5.786,2.046,-1.679,5.669,8.377,-3.115,10.584,-5.42,-3.435,-0.733,none
1.443174,0.88,0.452,-0.146,2491.03,1.119,0.448,0.336,-0.847,-0.279,0.452,0.854,0.519,0.027,2516.19,1.343,0.112,-0.224,-0.818,-0.45,0.359,0.572,-0.499,-0.651,2561.66,0.783,-0.895,0,-0.185,0.671,0.718,0.279,0.729,-0.625,2471.28,-0.448,0.895,-1.231,-0.103,-0.735,0.67,5.298,7.475,-3.323,9.746,6.046,1.557,0.092,5.511,8.32,-3.067,10.44,-5.069,-5.115,0.412,none
1.443263,0.885,0.444,-0.141,2444.65,0.112,-1.567,-0.671,-0.827,-0.297,0.477,0.861,0.507,0.036,2459.91,0.224,-1.343,-1.119,-0.814,-0.462,0.352,0.567,-0.506,-0.65,2583.88,-0.671,-0.671,1.007,-0.227,0.641,0.733,0.282,0.726,-0.627,2444.65,-4.252,-5.371,-1.455,-0.115,-0.726,0.678,5.188,7.477,-3.285,9.675,5.969,0.031,0.183,5.363,8.246,-3.069,10.304,-5.481,-5.573,0.702,none
1.443349,0.887,0.44,-0.138,2425.11,-0.671,-1.455,-1.007,-0.841,-0.262,0.474,0.854,0.517,0.053,2411.95,-0.336,-1.007,-1.119,-0.789,-0.47,0.397,0.579,-0.496,-0.648,2498.3,-1.343,-0.56,1.119,-0.226,0.607,0.762,0.277,0.74,-0.613,2422.6,-2.798,-1.007,-0.224,-0.096,-0.757,0.646,5.2,7.417,-3.306,9.643,5.42,-0.489,-0.916,5.373,8.174,-3.144,10.274,-6.076,-5.191,-0.351,none
1.443422,0.88,0.456,-0.131,2401.97,-0.448,-0.112,0.336,-0.855,-0.257,0.451,0.849,0.525,0.057,2415.2,-0.56,-0.336,0.112,-0.795,-0.471,0.383,0.582,-0.487,-0.651,2500.77,-0.112,0.448,0.224,-0.245,0.639,0.729,0.28,0.741,-0.61,2432.78,4.7,0.671,0.895,-0.095,-0.744,0.661,5.262,7.333,-3.419,9.652,5.191,-0.336,-2.58,5.401,8.155,-3.208,10.294,-6.336,-5.084,-1.542,none
1.443492,0.88,0.455,-0.135,2410.34,-0.895,0,1.119,-0.831,-0.31,0.462,0.848,0.528,0.053,2419.97,-0.56,0.336,1.231,-0.799,-0.493,0.344,0.587,-0.48,-0.652,2497.43,0.448,1.007,0.224,-0.26,0.625,0.736,0.283,0.744,-0.605,2436.94,6.155,-0.224,1.567,-0.099,-0.743,0.662,5.284,7.424,-3.326,9.701,4.824,0.397,-4.855,5.452,8.191,-3.203,10.347,-6.382,-4.031,-3.176,none
1.443562,0.876,0.462,-0.137,2434.98,-0.112,1.567,1.679,-0.842,-0.295,0.452,0.84,0.538,0.069,2429.37,-0.448,0.448,2.462,-0.816,-0.45,0.364,0.581,-0.486,-0.653,2524.49,3.245,1.343,-0.783,-0.225,0.634,0.74,0.275,0.747,-0.606,2468.62,12.422,0.895,1.79,-0.108,-0.746,0.657,5.365,7.508,-3.335,9.812,4.595,0.58,-6.87,5.509,8.265,-3.184,10.431,-7.145,-2.779,-4.473,none
1.443623,0.876,0.462,-0.136,2456.66,1.79,3.581,2.686,-0.843,-0.274,0.463,0.849,0.527,0.052,2463.07,0.224,2.798,3.469,-0.812,-0.452,0.368,0.584,-0.483,-0.652,2542.73,4.141,2.35,-1.79,-0.247,0.632,0.734,0.273,0.739,-0.616,2491.69,5.819,4.252,2.238,-0.096,-0.732,0.675,5.442,7.396,-3.388,9.787,4.748,0.229,-5.389,5.674,8.303,-3.134,10.534,-6.076,-3.496,-3.176,none
1.443685,0.885,0.441,-0.153,2509.65,1.679,3.245,1.679,-0.822,-0.303,0.483,0.851,0.525,0.027,2548.05,0.56,2.35,0.895,-0.814,-0.457,0.357,0.558,-0.513,-0.653,2645.07,1.679,0.56,-1.567,-0.253,0.641,0.724,0.289,0.707,-0.645,2453.32,9.176,4.7,2.014,-0.096,-0.74,0.665,5.435,7.501,-3.393,9.865,6.214,-0.595,-1.527,5.578,8.38,-3.122,10.54,-4.473,-5.893,-0.229,none
1.443762,0.887,0.436,-0.149,2512.77,-1.231,-0.783,-0.783,-0.828,-0.284,0.483,0.867,0.498,0.023,2525.42,0.56,0.671,-1.007,-0.802,-0.462,0.38,0.564,-0.515,-0.645,2615.27,-0.336,-0.112,-0.224,-0.197,0.628,0.753,0.283,0.718,-0.636,2472.84,-5.595,-4.924,-0.112,-0.115,-0.736,0.668,5.361,7.683,-3.247,9.915,5.664,-0.702,0.305,5.552,8.473,-2.99,10.562,-5.573,-5.74,1.16,none
1.44383,0.885,0.447,-0.132,2454.47,-1.567,-2.014,-1.343,-0.812,-0.312,0.493,0.851,0.522,0.056,2468.18,-1.343,-2.35,-1.567,-0.822,-0.439,0.364,0.585,-0.487,-0.649,2523.81,-1.679,-0.783,2.014,-0.234,0.632,0.739,0.276,0.736,-0.618,2464.13,-5.707,-4.476,-0.56,-0.098,-0.72,0.687,5.31,7.398,-3.44,9.735,4.427,0.061,0.076,5.42,8.198,-3.249,10.351,-6.55,-4.992,0.244,none
1.443903,0.876,0.465,-0.13,2423.68,-0.56,-1.343,0.336,-0.807,-0.318,0.497,0.847,0.528,0.061,2420.21,-0.783,-0.895,0.112,-0.811,-0.455,0.366,0.589,-0.475,-0.654,2521.65,-0.895,-0.336,1.679,-0.249,0.634,0.732,0.279,0.732,-0.621,2438,1.79,-2.014,0.112,-0.086,-0.729,0.68,5.341,7.314,-3.402,9.675,5.924,0.031,-1.542,5.435,8.071,-3.261,10.262,-5.679,-5.405,-0.824,none
1.443963,0.867,0.478,-0.138,2414.63,-0.112,0.112,0,-0.831,-0.288,0.476,0.84,0.541,0.053,2417.75,-0.671,-0.336,0.224,-0.816,-0.44,0.376,0.58,-0.481,-0.657,2509.66,-0.336,0.448,1.007,-0.229,0.636,0.737,0.272,0.739,-0.616,2425.26,4.364,1.79,0.448,-0.106,-0.732,0.673,5.346,7.36,-3.361,9.698,5.649,0.992,-3.237,5.488,8.145,-3.191,10.327,-5.145,-3.969,-1.695,none
1.444026,0.878,0.459,-0.137,2430.37,1.007,1.343,0.224,-0.845,-0.3,0.442,0.852,0.521,0.053,2431.72,1.343,2.238,0.56,-0.79,-0.456,0.41,0.577,-0.491,-0.652,2558.16,2.238,0.783,-2.35,-0.222,0.653,0.724,0.278,0.727,-0.628,2442.58,1.231,0.671,0.224,-0.116,-0.748,0.653,5.318,7.491,-3.318,9.768,6.58,0.397,-3.282,5.497,8.313,-3.081,10.431,-5.191,-4.504,-2.137,none
1.445459,0.888,0.438,-0.14,2458.4,0.783,1.343,0.671,-0.831,-0.26,0.491,0.862,0.507,0.028,2482.47,-0.783,2.014,0.783,-0.817,-0.455,0.353,0.565,-0.507,-0.651,2560.34,0.448,0.783,-0.448,-0.242,0.65,0.72,0.28,0.735,-0.618,2466.18,-4.476,-0.56,0.112,-0.104,-0.731,0.674,5.528,7.59,-3.282,9.947,5.588,0.046,-3.115,5.741,8.437,-2.993,10.635,-6.046,-5.038,-1.695,none
1.445541,0.876,0.458,-0.153,2502.51,-0.783,-0.336,1.231,-0.827,-0.29,0.482,0.847,0.531,0.032,2500.62,-0.671,-0.336,1.679,-0.822,-0.435,0.367,0.576,-0.484,-0.659,2577.97,0.783,0.783,0.783,-0.183,0.642,0.745,0.27,0.744,-0.611,2478.06,-1.79,-3.357,-0.336,-0.09,-0.747,0.659,5.432,7.4,-3.371,9.78,3.481,1.695,-1.542,5.653,8.236,-3.206,10.491,-7.511,-2.84,-0.58,none
1.456918,0.872,0.468,-0.141,2445.21,1.679,-0.783,1.567,-0.822,-0.259,0.507,0.844,0.534,0.044,2464.26,1.902,-1.79,1.343,-0.824,-0.44,0.356,0.577,-0.491,-0.653,2541.44,1.679,-0.895,1.231,-0.243,0.664,0.707,0.274,0.736,-0.619,2447.72,5.931,1.119,-0.671,-0.099,-0.746,0.658,5.282,7.348,-3.395,9.665,4.779,1.344,-2.641,5.456,8.171,-3.177,10.327,-5.924,-3.557,-1.115,none
1.481799,0.876,0.463,-0.134,2432.88,1.343,-0.56,0.671,-0.816,-0.299,0.495,0.845,0.531,0.061,2425.5,0.895,-0.56,0.783,-0.812,-0.444,0.377,0.576,-0.494,-0.652,2545.88,1.455,-0.56,-0.783,-0.209,0.654,0.727,0.275,0.728,-0.629,2439.81,3.581,1.007,-0.112,-0.106,-0.724,0.682,5.322,7.475,-3.285,9.746,5.16,1.053,-2.702,5.543,8.37,-2.954,10.465,-6.626,-3.908,-0.076,none
1.505703,0.889,0.429,-0.158,2488.03,1.231,-0.224,0.56,-0.825,-0.329,0.46,0.864,0.502,0.028,2485.19,1.007,0.56,-0.224,-0.822,-0.47,0.322,0.569,-0.507,-0.648,2559.51,0.56,-0.336,-0.895,-0.224,0.662,0.715,0.282,0.724,-0.63,2450.94,-2.35,1.119,-0.448,-0.107,-0.748,0.654,5.385,7.683,-3.182,9.907,3.679,1.191,-1.573,5.631,8.557,-2.868,10.638,-9.618,-4.427,2.275,none
1.530768,0.89,0.432,-0.146,2495.05,0.448,-4.364,2.014,-0.857,-0.256,0.447,0.857,0.514,0.047,2507.34,0.56,-5.371,0.224,-0.803,-0.448,0.394,0.577,-0.508,-0.64,2609.38,-0.112,-0.56,0.56,-0.236,0.613,0.754,0.284,0.696,-0.659,2461.44,1.679,-1.343,-0.783,-0.122,-0.73,0.672,5.289,7.547,-3.421,9.83,3.588,0.763,0.992,5.432,8.473,-2.983,10.498,-10.763,-5.618,4.977,none
1.951293,0.886,0.434,-0.163,2527.72,-0.112,-5.707,1.567,-0.831,-0.273,0.485,0.868,0.497,0.016,2511.39,0.56,-4.141,-1.679,-0.82,-0.451,0.351,0.563,-0.509,-0.651,2623.77,-2.574,-0.783,1.231,-0.246,0.685,0.685,0.291,0.725,-0.624,2473,-6.602,-3.581,-0.895,-0.098,-0.778,0.621,5.478,7.602,-3.235,9.912,2.962,0.916,1.924,5.892,8.552,-2.796,10.755,-12.794,-5.802,6.504,none
1.951536,0.882,0.429,-0.195,2575.2,0.224,-8.617,2.462,-0.821,-0.283,0.496,0.837,0.546,0.027,2553.79,-0.895,-7.945,-0.895,-0.83,-0.451,0.328,0.583,-0.482,-0.654,2565.8,-3.357,-1.343,2.462,-0.242,0.636,0.732,0.277,0.741,-0.612,2459.09,-3.469,-2.238,-1.119,-0.096,-0.737,0.669,5.418,7.503,-3.417,9.866,2.092,1.069,2.901,5.634,8.411,-3.074,10.58,-20.351,-2.977,8.779,none
1.951633,0.895,0.421,-0.144,2460.47,4.029,-14.436,5.931,-0.82,-0.304,0.484,0.865,0.5,0.052,2439.31,3.805,-9.512,-1.902,-0.811,-0.466,0.355,0.563,-0.501,-0.657,2568.39,-3.021,-1.679,0.56,-0.243,0.623,0.744,0.274,0.738,-0.617,2485.04,-3.133,-4.364,-2.238,-0.095,-0.716,0.692,5.353,7.477,-3.239,9.75,0.733,1.45,5.237,5.267,8.047,-3.218,10.142,-15.191,-5.618,9.099,none
1.951722,0.879,0.46,-0.124,2381.82,-0.671,-11.638,3.133,-0.824,-0.292,0.485,0.864,0.503,0.012,2462.6,-0.448,-11.191,-1.343,-0.806,-0.45,0.384,0.557,-0.511,-0.655,2595.34,-5.371,-0.56,4.588,-0.184,0.643,0.743,0.271,0.737,-0.619,2431.44,-7.61,-6.155,-1.231,-0.085,-0.745,0.662,5.234,7.372,-3.263,9.612,2.763,-0.656,3.969,5.459,8.116,-3.105,10.262,-12.153,-8.031,7.359,none
1.951804,0.873,0.467,-0.143,2411.9,-2.798,-8.057,0.112,-0.843,-0.26,0.47,0.841,0.537,0.07,2379.32,-1.455,-9.736,-2.462,-0.778,-0.49,0.392,0.592,-0.473,-0.653,2493.79,-5.036,-1.567,4.364,-0.25,0.639,0.728,0.271,0.739,-0.617,2438.82,-4.476,-3.581,-0.56,-0.098,-0.734,0.672,5.318,7.355,-3.33,9.668,3.389,-0.534,3.344,5.468,7.994,-3.247,10.215,-9.344,-6.947,4.244,none
1.951884,0.869,0.475,-0.136,2387.36,-1.119,-6.267,1.007,-0.834,-0.271,0.481,0.833,0.55,0.061,2393.35,-0.448,-5.819,-0.448,-0.793,-0.457,0.402,0.598,-0.467,-0.652,2483.23,-2.35,0.112,2.014,-0.213,0.617,0.758,0.27,0.741,-0.615,2446.22,1.79,-1.119,-0.56,-0.066,-0.749,0.659,5.306,7.252,-3.491,9.64,6.504,-1.664,1.16,5.339,7.932,-3.354,10.133,-6.122,-6.275,1.252,none
1.951964,0.876,0.462,-0.137,2434.98,0.448,-2.126,0.671,-0.82,-0.292,0.492,0.847,0.53,0.044,2446,0,-2.126,-1.119,-0.816,-0.445,0.37,0.577,-0.476,-0.664,2558.38,-1.567,0.224,-1.007,-0.248,0.612,0.751,0.301,0.716,-0.63,2451.55,-14.772,-3.245,-1.007,-0.09,-0.756,0.648,5.377,7.257,-3.445,9.667,9.42,-1.038,1.725,5.839,8.253,-2.962,10.535,-2.29,-7.832,0.29,none
1.952045,0.867,0.479,-0.136,2391.26,-2.462,-1.679,-2.574,-0.808,-0.31,0.501,0.85,0.527,0.02,2425.57,-1.679,-2.462,-2.126,-0.789,-0.473,0.392,0.575,-0.49,-0.655,2428.29,-3.021,-0.671,2.91,-0.21,0.627,0.75,0.254,0.753,-0.607,2446.19,-13.205,-2.91,-1.231,-0.096,-0.749,0.656,5.626,7.547,-3.196,9.941,7.13,0.992,-1.221,5.722,8.133,-3.074,10.409,-3.527,-5.359,-1.679,none
1.952163,0.854,0.497,-0.153,2440.64,-0.783,0.895,-0.448,-0.818,-0.301,0.49,0.826,0.561,0.053,2399.25,1.343,-0.336,1.231,-0.792,-0.474,0.385,0.605,-0.423,-0.675,2487.45,-0.112,0.895,2.014,-0.223,0.655,0.722,0.263,0.764,-0.589,2473.79,7.722,0.224,-0.895,-0.086,-0.764,0.639,5.392,7.226,-3.421,9.643,6.87,1.969,-3.13,5.547,7.92,-3.314,10.222,-3.863,-2.092,-2.931,none
1.952656,0.865,0.486,-0.12,2374.51,2.91,3.693,-0.224,-0.819,-0.285,0.498,0.84,0.541,0.028,2451.39,1.567,2.798,0.671,-0.812,-0.426,0.398,0.554,-0.508,-0.66,2573.89,2.126,-0.671,0,-0.229,0.644,0.73,0.269,0.735,-0.623,2416.5,11.862,9.96,0.671,-0.096,-0.737,0.669,5.262,7.192,-3.397,9.537,10.336,0.794,-3.328,5.54,8.119,-2.99,10.274,-0.916,-4.901,-2.947,none
1.952747,0.884,0.44,-0.158,2424.38,0.448,3.805,-2.238,-0.836,-0.276,0.474,0.854,0.52,0.02,2436.52,-0.112,1.902,-0.783,-0.812,-0.44,0.383,0.573,-0.484,-0.661,2556.27,1.007,0.224,-1.679,-0.196,0.619,0.76,0.278,0.73,-0.624,2442.87,1.119,0.448,0.112,-0.118,-0.74,0.662,5.373,7.472,-3.187,9.739,11.679,-0.351,-2.931,5.617,8.236,-2.926,10.389,-1.084,-5.664,-3.008,none
1.952818,0.886,0.435,-0.16,2452.52,-0.895,3.357,-2.462,-0.832,-0.29,0.473,0.854,0.519,0.028,2479.84,-0.56,2.91,-1.119,-0.793,-0.457,0.402,0.568,-0.498,-0.655,2562.49,0.112,0.671,-2.35,-0.212,0.643,0.736,0.271,0.74,-0.615,2476.16,-8.393,-0.336,0.112,-0.097,-0.741,0.664,5.576,7.585,-3.247,9.958,10.168,-0.611,-3.191,5.847,8.423,-2.902,10.656,-1.634,-5.359,-2.092,none
1.952882,0.882,0.441,-0.165,2508.22,0,3.357,-2.91,-0.825,-0.299,0.48,0.854,0.521,0.012,2528.31,-0.783,3.133,-1.343,-0.802,-0.462,0.38,0.564,-0.496,-0.66,2615.31,-0.56,0.224,-1.455,-0.201,0.651,0.732,0.273,0.743,-0.611,2493.71,-3.917,0.336,-0.224,-0.098,-0.754,0.65,5.624,7.563,-3.261,9.973,8.137,0.534,0.122,5.849,8.411,-2.966,10.666,-3.664,-5.053,0.534,none
1.952946,0.882,0.44,-0.168,2516.06,-0.448,0.56,-3.133,-0.804,-0.304,0.511,0.854,0.521,0.004,2528.15,-0.112,0.112,-2.238,-0.812,-0.444,0.377,0.562,-0.504,-0.656,2574.07,-1.455,-1.231,0.112,-0.236,0.642,0.73,0.273,0.739,-0.616,2491.69,2.238,2.126,-0.56,-0.083,-0.748,0.659,5.476,7.41,-3.321,9.794,7.328,0.763,1.802,5.677,8.25,-3.024,10.461,-4.107,-5.389,2.046,none
1.953008,0.881,0.448,-0.153,2443.81,-0.336,-1.567,-2.91,-0.833,-0.278,0.478,0.847,0.531,0.036,2444.35,0,-2.462,-2.574,-0.815,-0.454,0.36,0.573,-0.491,-0.656,2541.59,-2.35,-2.014,1.343,-0.239,0.649,0.722,0.275,0.734,-0.621,2440.37,1.231,-0.783,-1.343,-0.107,-0.741,0.663,5.284,7.321,-3.397,9.647,7.893,0.504,1.725,5.526,8.159,-3.017,10.306,-4.153,-6.031,2.26,none
1.953069,0.881,0.449,-0.146,2418.71,-0.783,-2.238,-2.462,-0.821,-0.287,0.493,0.852,0.522,0.041,2408.06,-0.112,-0.448,-3.133,-0.809,-0.445,0.384,0.575,-0.488,-0.657,2496.39,-2.686,-1.343,0.56,-0.207,0.673,0.71,0.274,0.746,-0.607,2444.88,-6.043,-2.574,-1.343,-0.107,-0.741,0.663,5.404,7.396,-3.361,9.757,7.359,0.55,0.779,5.519,8.195,-3.098,10.355,-5.191,-5.725,1.817,none
1.953138,0.877,0.461,-0.138,2421.6,-0.448,-1.455,-1.679,-0.82,-0.31,0.482,0.844,0.535,0.04,2442.45,-0.783,-0.56,-1.567,-0.793,-0.457,0.402,0.584,-0.477,-0.657,2511.17,-1.679,-0.56,0.448,-0.208,0.621,0.756,0.273,0.747,-0.606,2452.35,-2.126,-1.343,-1.007,-0.087,-0.734,0.674,5.392,7.302,-3.462,9.715,7.634,1.008,-0.153,5.555,8.112,-3.259,10.357,-4.58,-5.267,0.366,none
1.954716,0.871,0.467,-0.153,2449.61,0,-0.336,-1.119,-0.821,-0.321,0.473,0.841,0.539,0.049,2426.49,-0.56,0.336,-0.895,-0.787,-0.462,0.41,0.581,-0.475,-0.661,2523.68,-0.671,-0.671,0.671,-0.237,0.599,0.765,0.275,0.751,-0.601,2439.54,1.343,0.448,-0.783,-0.086,-0.749,0.657,5.397,7.271,-3.476,9.699,7.771,2.107,-1.908,5.557,8.066,-3.213,10.308,-3.893,-4.504,-0.641,none
1.954799,0.87,0.472,-0.14,2383.47,0.448,-0.336,-0.783,-0.82,-0.299,0.488,0.839,0.542,0.045,2409.22,0.895,1.679,-0.112,-0.818,-0.438,0.372,0.587,-0.467,-0.661,2479.17,0.112,-0.56,0.671,-0.197,0.651,0.733,0.267,0.756,-0.598,2436.53,2.462,0.671,-1.119,-0.087,-0.73,0.678,5.349,7.295,-3.266,9.617,7.344,3.45,-5.023,5.557,8.025,-3.045,10.225,-4.702,-2.26,-3.511,none
1.954869,0.868,0.474,-0.15,2356.44,2.238,2.686,1.119,-0.811,-0.303,0.501,0.836,0.546,0.055,2322.84,2.126,3.581,3.133,-0.785,-0.485,0.386,0.584,-0.465,-0.665,2407.75,5.931,1.007,-0.895,-0.188,0.637,0.747,0.249,0.755,-0.607,2414.94,4.924,3.133,-0.671,-0.089,-0.746,0.66,5.255,7.245,-3.158,9.491,6.534,3.756,-10.031,5.452,7.903,-3.033,10.069,-4.687,-0.092,-7.679,none
1.967108,0.879,0.45,-0.155,2348.18,4.029,6.155,3.805,-0.843,-0.272,0.463,0.844,0.534,0.038,2335.39,3.469,7.162,6.602,-0.819,-0.436,0.373,0.575,-0.485,-0.659,2412.14,8.505,1.79,-2.35,-0.226,0.643,0.732,0.236,0.753,-0.614,2419.86,7.05,6.491,0.783,-0.105,-0.74,0.665,5.195,7.326,-3.251,9.552,7.817,2.244,-13.786,5.535,8.107,-2.919,10.241,-3.481,-0.794,-10.473,none
1.992236,0.876,0.461,-0.14,2379.07,3.357,8.617,4.7,-0.841,-0.299,0.452,0.861,0.508,0.012,2458.52,2.35,8.952,7.386,-0.796,-0.463,0.391,0.553,-0.526,-0.647,2580.27,11.079,4.924,-6.379,-0.23,0.642,0.731,0.257,0.73,-0.633,2455.18,8.169,8.057,2.91,-0.078,-0.759,0.647,5.555,7.669,-3.242,10.008,6.122,0.214,-14.153,5.844,8.612,-2.691,10.75,-5.038,-0.962,-10.504,none
2.014302,0.893,0.413,-0.181,2609.01,2.798,8.505,5.595,-0.839,-0.267,0.474,0.868,0.497,0.004,2610.95,1.119,7.722,7.61,-0.819,-0.429,0.382,0.557,-0.52,-0.647,2682.95,9.288,4.924,-4.476,-0.168,0.667,0.725,0.292,0.72,-0.629,2531.22,8.617,7.945,3.357,-0.116,-0.748,0.653,5.784,7.76,-3.457,10.277,4.351,0.443,-7.191,5.995,8.708,-3.017,10.994,-7.435,-3.252,-4.855,none
2.035696,0.88,0.449,-0.157,2636.32,0.783,2.798,4.252,-0.821,-0.305,0.483,0.863,0.505,-0.004,2682.92,0,0.112,3.581,-0.825,-0.448,0.346,0.558,-0.518,-0.649,2751.5,5.148,3.021,-2.014,-0.229,0.636,0.737,0.298,0.717,-0.63,2543.43,4.364,0.783,0.336,-0.109,-0.738,0.665,5.672,7.549,-3.62,10.112,4.427,1.466,-0.473,5.856,8.499,-3.311,10.84,-6.611,-4.427,0.489,none
2.462029,0.876,0.457,-0.155,2592.63,0.56,-1.231,0.448,-0.836,-0.31,0.453,0.847,0.53,0.034,2595.52,0.895,-2.462,-1.902,-0.815,-0.449,0.366,0.572,-0.495,-0.654,2700.21,-2.126,-2.014,2.238,-0.246,0.612,0.752,0.295,0.723,-0.624,2505.11,-1.343,-2.798,-2.126,-0.094,-0.752,0.652,5.478,7.451,-3.503,9.889,7.176,2.015,4.443,5.669,8.322,-3.218,10.572,-4.198,-5.634,4.076,none
2.462222,0.877,0.452,-0.161,2509.87,0.336,-3.469,-2.91,-0.829,-0.285,0.482,0.845,0.533,0.039,2507.46,0,-3.133,-4.812,-0.803,-0.439,0.402,0.574,-0.494,-0.653,2585.59,-4.7,-4.029,2.126,-0.225,0.647,0.729,0.288,0.728,-0.623,2463.88,-3.693,-1.902,-2.91,-0.094,-0.728,0.679,5.32,7.403,-3.275,9.687,8.168,1.527,5.878,5.526,8.258,-2.971,10.371,-3.74,-6.275,5.649,none
2.462345,0.88,0.452,-0.147,2403.73,0.336,-4.7,-4.029,-0.833,-0.278,0.478,0.856,0.516,0.029,2418.95,0.671,-3.357,-6.043,-0.811,-0.469,0.35,0.586,-0.491,-0.644,2499.85,-5.595,-4.364,2.238,-0.252,0.662,0.706,0.279,0.717,-0.639,2433.59,-0.56,1.007,-2.462,-0.115,-0.74,0.663,5.313,7.326,-3.168,9.588,8.26,-0.275,7.924,5.48,8.052,-2.95,10.177,-2.763,-7.359,6.87,none
2.462441,0.896,0.41,-0.168,2456.71,-1.007,-4.588,-6.491,-0.846,-0.27,0.46,0.872,0.49,0.016,2429.72,0.448,-2.574,-6.826,-0.809,-0.46,0.366,0.551,-0.53,-0.645,2573.6,-6.491,-4.588,-0.224,-0.242,0.636,0.732,0.278,0.72,-0.636,2410.87,-11.75,1.007,-3.469,-0.109,-0.75,0.652,5.066,7.424,-3.414,9.615,10.183,-4.137,7.191,5.349,8.305,-2.863,10.285,-2.489,-13.511,6.382,none
2.462538,0.868,0.474,-0.147,2413.58,-9.064,-7.274,-5.931,-0.827,-0.28,0.488,0.882,0.471,0,2358.12,-4.252,-3.469,-8.393,-0.808,-0.459,0.369,0.583,-0.466,-0.666,2446.11,-11.414,-1.007,4.812,-0.187,0.661,0.726,0.258,0.77,-0.583,2479.9,-9.4,-9.176,0.671,-0.047,-0.751,0.659,5.784,7.678,-3.074,10.093,2.702,-1.679,2.183,5.954,8.272,-3.029,10.633,-9.191,-6.672,2.611,none
2.462624,0.856,0.486,-0.178,2479.49,-1.343,-3.021,0.56,-0.826,-0.316,0.466,0.791,0.607,0.072,2443.37,0.671,-2.91,0.783,-0.796,-0.445,0.41,0.591,-0.456,-0.665,2478.96,0.224,0,1.007,-0.23,0.63,0.741,0.259,0.781,-0.568,2510.54,11.75,3.693,0.224,-0.111,-0.747,0.656,5.504,6.893,-3.673,9.555,3.42,1.664,-0.382,5.581,7.774,-3.563,10.211,-7.42,-3.237,0.214,none
2.462714,0.859,0.492,-0.143,2405.08,2.238,-1.231,2.014,-0.827,-0.26,0.498,0.843,0.537,0.028,2432.18,0.336,-0.224,0.783,-0.81,-0.423,0.406,0.561,-0.481,-0.673,2594.12,1.455,0.112,0.56,-0.223,0.64,0.735,0.271,0.742,-0.613,2404.6,10.631,4.141,0.448,-0.089,-0.746,0.66,5.385,7.197,-3.407,9.612,7.45,1.573,-2.305,5.593,7.999,-3.196,10.27,-3.069,-4.29,-0.153,none
2.462808,0.874,0.46,-0.154,2426.56,-0.56,-0.336,-1.902,-0.851,-0.238,0.468,0.855,0.517,0.045,2411.82,2.238,0.895,-2.014,-0.809,-0.446,0.382,0.585,-0.489,-0.647,2489.74,0.671,-1.679,-1.343,-0.181,0.67,0.72,0.27,0.726,-0.632,2443.39,-5.483,-3.245,-1.455,-0.087,-0.738,0.669,5.248,7.59,-3.156,9.752,7.649,1.603,-2.076,5.516,8.435,-2.715,10.438,-3.328,-3.71,-1.282,none
2.462897,0.896,0.416,-0.154,2424.43,1.231,1.567,-0.56,-0.819,-0.269,0.506,0.877,0.48,0.02,2416.23,0.895,2.686,-0.224,-0.798,-0.469,0.378,0.559,-0.523,-0.643,2515.84,1.119,0.112,-0.448,-0.184,0.621,0.762,0.269,0.736,-0.622,2451.32,-10.631,-4.252,-1.343,-0.097,-0.75,0.654,5.322,7.547,-3.223,9.781,4.641,-0.55,-2.366,5.492,8.351,-2.825,10.387,-6.916,-4.992,-1.496,none
2.462972,0.894,0.419,-0.16,2453.67,-0.448,-0.224,1.679,-0.807,-0.325,0.493,0.863,0.505,0.02,2454.27,-0.895,-0.112,1.343,-0.82,-0.433,0.374,0.566,-0.504,-0.653,2555.94,0.448,1.455,0.56,-0.236,0.642,0.73,0.274,0.738,-0.616,2441.54,-1.007,0.224,0.224,-0.09,-0.761,0.643,5.37,7.357,-3.395,9.721,5.13,-1.496,-1.267,5.526,8.176,-3.141,10.356,-6.962,-6.519,-0.84,none
2.463056,0.874,0.464,-0.142,2426.75,-1.567,-0.336,1.343,-0.816,-0.304,0.492,0.84,0.541,0.048,2453.25,-2.014,-0.56,1.231,-0.806,-0.437,0.399,0.578,-0.478,-0.661,2569.01,-0.783,2.126,0.671,-0.199,0.68,0.706,0.268,0.741,-0.616,2459.78,6.938,2.798,2.014,-0.099,-0.752,0.652,5.581,7.35,-3.45,9.853,5.649,-1.573,-2.641,5.804,8.203,-3.215,10.55,-6.214,-6.092,-1.664,none
2.463155,0.868,0.47,-0.161,2502.12,-1.231,1.79,0.224,-0.823,-0.297,0.484,0.835,0.548,0.039,2491.21,-1.343,1.567,0.224,-0.799,-0.465,0.382,0.584,-0.468,-0.663,2561.1,-0.895,1.679,-0.224,-0.204,0.636,0.744,0.279,0.742,-0.609,2470.02,-0.895,0.783,1.007,-0.105,-0.727,0.678,5.629,7.295,-3.469,9.846,6.107,0.244,-1.985,5.78,8.131,-3.302,10.508,-5.527,-4.824,-1.191,none
2.463227,0.868,0.47,-0.159,2478.46,-0.112,0.671,0.336,-0.811,-0.333,0.481,0.843,0.538,0.02,2502.4,0.448,-0.112,0.224,-0.784,-0.504,0.363,0.576,-0.479,-0.663,2563.82,0.671,-0.112,-0.224,-0.218,0.644,0.734,0.27,0.741,-0.615,2446.22,-4.476,-1.902,-1.007,-0.117,-0.744,0.657,5.478,7.321,-3.4,9.756,7.13,0.718,-1.573,5.66,8.143,-3.108,10.392,-4.382,-4.58,-0.656,none
2.463298,0.875,0.456,-0.161,2447.05,0.56,0.783,-0.895,-0.818,-0.282,0.501,0.846,0.531,0.036,2423.49,0.671,0.56,-0.671,-0.809,-0.446,0.382,0.562,-0.496,-0.661,2553.45,1.007,-0.56,-0.56,-0.188,0.637,0.747,0.267,0.751,-0.604,2441.17,-3.245,0.336,-0.783,-0.105,-0.752,0.651,5.373,7.317,-3.33,9.669,6.794,0.473,-1.435,5.681,8.119,-3.01,10.356,-4.809,-3.939,-0.931,none
2.46337,0.88,0.448,-0.158,2423.12,0.895,0.783,-0.56,-0.808,-0.341,0.481,0.846,0.532,0.028,2436.12,0.336,0.895,-0.783,-0.804,-0.472,0.361,0.577,-0.486,-0.657,2508.06,0.336,-0.783,-0.671,-0.212,0.643,0.736,0.275,0.73,-0.626,2404.3,-0.112,5.931,-0.448,-0.098,-0.743,0.662,5.267,7.219,-3.393,9.558,6.366,-0.366,-0.947,5.404,8.068,-3.007,10.166,-4.397,-5.237,-0.061,none
2.463443,0.886,0.442,-0.14,2394.09,0.56,-0.112,-0.783,-0.814,-0.323,0.483,0.863,0.504,0.033,2398.5,-0.224,0.224,-1.455,-0.805,-0.458,0.377,0.558,-0.511,-0.654,2520.96,-1.79,0.56,-0.895,-0.228,0.616,0.754,0.272,0.736,-0.62,2426.28,-9.96,-0.671,-0.56,-0.098,-0.75,0.654,5.356,7.386,-3.263,9.69,6.931,-2.321,-1.557,5.581,8.164,-3.021,10.341,-3.802,-7.145,-0.427,none
2.463518,0.879,0.45,-0.16,2460.07,-2.35,0.112,-1.567,-0.809,-0.306,0.502,0.843,0.537,0.036,2469.66,-2.686,1.119,-1.79,-0.802,-0.457,0.384,0.571,-0.496,-0.654,2533.76,-2.686,0.448,-1.231,-0.218,0.64,0.737,0.27,0.746,-0.608,2442.16,-12.981,-4.252,0.56,-0.096,-0.757,0.646,5.545,7.496,-3.345,9.906,6.412,-2.229,-1.618,5.772,8.344,-3.074,10.601,-4.901,-6.336,-0.26,none
2.464664,0.878,0.455,-0.151,2474.94,-1.567,0,-1.007,-0.814,-0.281,0.508,0.853,0.522,0.02,2484.06,-1.007,0.224,-1.567,-0.811,-0.466,0.355,0.573,-0.484,-0.661,2539.09,-2.014,0.448,-0.224,-0.245,0.639,0.729,0.28,0.755,-0.593,2504.22,-1.119,1.119,1.343,-0.088,-0.775,0.626,5.6,7.441,-3.44,9.928,4.427,-0.427,-1.374,5.727,8.298,-3.163,10.567,-6.122,-4.763,-0.351,none
2.464744,0.876,0.458,-0.154,2480.42,-0.112,-1.007,0.112,-0.812,-0.303,0.499,0.843,0.536,0.043,2492.68,-0.56,-1.343,0.448,-0.81,-0.475,0.344,0.577,-0.489,-0.655,2592.97,0.112,0,0.336,-0.243,0.61,0.755,0.276,0.739,-0.615,2465.22,10.631,1.679,1.231,-0.109,-0.738,0.665,5.373,7.381,-3.534,9.79,5.939,0.229,-0.473,5.511,8.222,-3.206,10.404,-5.252,-4.809,0.092,none
2.467219,0.881,0.451,-0.14,2452.72,-0.112,-0.224,-1.119,-0.837,-0.314,0.447,0.852,0.521,0.044,2452.15,0.336,-0.671,-0.783,-0.815,-0.448,0.368,0.581,-0.487,-0.652,2541.69,-0.56,-0.448,1.119,-0.253,0.641,0.724,0.28,0.737,-0.616,2461.36,0.56,0,0.112,-0.096,-0.764,0.638,5.432,7.436,-3.405,9.818,6.122,0.489,-1.603,5.61,8.26,-3.031,10.435,-5.725,-4.733,-0.809,none
2.49167,0.874,0.46,-0.156,2450.05,0.112,0.671,0,-0.827,-0.28,0.488,0.842,0.538,0.032,2446.29,-0.448,0.448,0.783,-0.801,-0.455,0.39,0.583,-0.48,-0.656,2498.12,1.231,0.336,0.671,-0.235,0.62,0.749,0.27,0.744,-0.611,2447.51,-2.462,-1.79,-0.671,-0.106,-0.748,0.655,5.382,7.319,-3.349,9.683,5.863,0.84,-2.55,5.602,8.128,-3.093,10.345,-5.466,-4.397,-1.13,none
2.514202,0.879,0.45,-0.161,2438,0.671,0.448,0.56,-0.813,-0.285,0.508,0.857,0.515,0.02,2461.32,0.783,0.671,1.119,-0.817,-0.46,0.347,0.552,-0.509,-0.66,2602.95,1.79,0.671,-0.671,-0.238,0.608,0.758,0.27,0.743,-0.613,2440.08,-0.895,0.56,-0.56,-0.109,-0.758,0.643,5.387,7.369,-3.28,9.7,5.725,0,-2.321,5.672,8.164,-3,10.384,-5.573,-4.855,-1.237,none
2.536014,0.876,0.454,-0.161,2434.62,0.112,0.671,0,-0.841,-0.306,0.447,0.849,0.528,0.02,2438.49,-0.448,-0.671,0.56,-0.809,-0.45,0.377,0.581,-0.477,-0.659,2470.33,-0.336,-0.224,1.455,-0.22,0.613,0.759,0.263,0.748,-0.61,2436.35,2.35,2.014,0.56,-0.095,-0.735,0.671,5.373,7.257,-3.335,9.625,4.916,-0.046,-3.13,5.555,8.066,-3.062,10.261,-5.893,-3.908,-2.122,none
2.557246,0.879,0.452,-0.151,2404.35,0.671,0.783,1.007,-0.829,-0.285,0.482,0.842,0.537,0.045,2398.13,0.448,0.671,1.231,-0.811,-0.466,0.355,0.573,-0.483,-0.662,2521.9,1.902,0.783,-1.007,-0.197,0.628,0.753,0.277,0.746,-0.606,2417.09,0.448,1.679,0.671,-0.095,-0.744,0.661,5.274,7.278,-3.393,9.607,5.756,-0.992,-4.336,5.459,8.076,-3.11,10.232,-5.649,-4.504,-2.824,none
2.972136,0.88,0.452,-0.147,2403.73,0.112,1.231,1.343,-0.819,-0.295,0.492,0.85,0.526,0.029,2412.3,-0.448,1.119,1.902,-0.806,-0.449,0.385,0.583,-0.487,-0.65,2461.65,1.679,1.902,0,-0.218,0.63,0.745,0.278,0.748,-0.602,2448.32,-3.469,1.902,1.119,-0.097,-0.741,0.664,5.346,7.353,-3.426,9.715,5.511,-0.977,-5.374,5.473,8.174,-3.12,10.32,-6.183,-4.351,-4,none
2.972305,0.875,0.462,-0.141,2435.5,0,1.79,2.238,-0.824,-0.269,0.498,0.842,0.535,0.069,2424,-0.224,1.679,3.021,-0.812,-0.457,0.364,0.58,-0.483,-0.656,2560.65,3.133,2.686,-2.238,-0.198,0.658,0.727,0.277,0.747,-0.605,2455.1,0.448,2.35,1.455,-0.117,-0.76,0.639,5.44,7.369,-3.529,9.816,5.908,-1.023,-5.924,5.667,8.284,-3.17,10.526,-5.481,-4.58,-4.351,none
2.972393,0.875,0.463,-0.139,2470.55,0.224,4.252,1.231,-0.819,-0.291,0.494,0.852,0.523,0.027,2520.55,-1.231,4.252,2.238,-0.82,-0.464,0.336,0.569,-0.494,-0.657,2626.74,1.79,2.686,-2.462,-0.241,0.629,0.739,0.28,0.738,-0.614,2497.22,3.021,5.819,2.574,-0.107,-0.76,0.641,5.698,7.626,-3.393,10.106,6.031,-0.656,-3.695,5.933,8.492,-3.077,10.807,-5.511,-5.191,-2.244,none
2.972476,0.879,0.445,-0.168,2570.95,-0.56,1.119,0.224,-0.826,-0.295,0.48,0.853,0.522,0.008,2578.32,-0.56,2.126,0.56,-0.799,-0.469,0.377,0.562,-0.498,-0.661,2643.69,0,1.455,-1.343,-0.24,0.641,0.729,0.281,0.739,-0.612,2521.39,0.336,3.021,1.231,-0.101,-0.76,0.642,5.739,7.568,-3.397,10.087,5.267,0.244,-0.351,5.978,8.449,-3.055,10.792,-6.443,-5.084,0.901,none
2.972567,0.877,0.446,-0.176,2564.73,-0.112,-1.902,0,-0.82,-0.31,0.482,0.847,0.531,0.008,2571.85,-0.224,-0.895,-0.448,-0.805,-0.462,0.372,0.565,-0.494,-0.66,2644.2,-1.343,-0.671,1.007,-0.208,0.656,0.725,0.276,0.74,-0.613,2501.83,-2.798,-2.014,-0.895,-0.098,-0.737,0.668,5.574,7.386,-3.412,9.862,5.557,0.672,2.534,5.756,8.231,-3.122,10.518,-5.847,-5.023,3.069,none
2.972649,0.877,0.454,-0.159,2477.88,-0.112,-3.581,-1.679,-0.816,-0.333,0.473,0.845,0.534,0.02,2505.17,0.671,-3.581,-2.238,-0.801,-0.475,0.363,0.567,-0.498,-0.657,2586.91,-1.902,-2.126,1.79,-0.183,0.627,0.757,0.266,0.742,-0.616,2444.54,-2.462,-2.574,-2.014,-0.086,-0.749,0.657,0.547,0.763,-0.346,9.651,5.985,0.031,3.176,0.533,0.794,-0.292,10.314,-5.679,-5.817,3.908,none
2.972735,0.886,0.437,-0.155,2418.59,-0.56,-4.364,-2.574,-0.839,-0.267,0.474,0.856,0.515,0.037,2406.36,0,-2.798,-3.693,-0.812,-0.456,0.365,0.569,-0.499,-0.654,2521.52,-3.805,-2.35,1.343,-0.237,0.647,0.724,0.276,0.742,-0.611,2430.01,-2.462,-1.455,-1.007,-0.098,-0.75,0.654,0.544,0.767,-0.341,9.661,5.313,-0.763,2.244,0.531,0.798,-0.284,10.293,-7.16,-5.969,3.344,none
2.972802,0.886,0.439,-0.147,2406.71,-1.007,-4.476,-1.119,-0.836,-0.283,0.47,0.854,0.519,0.024,2423,-0.56,-4.364,-2.35,-0.818,-0.441,0.369,0.578,-0.491,-0.652,2482.65,-3.245,-1.007,1.007,-0.232,0.653,0.721,0.277,0.743,-0.609,2452.98,-3.805,-2.798,-0.56,-0.109,-0.758,0.643,0.554,0.756,-0.348,9.747,3.527,-0.198,-0.183,0.544,0.788,-0.288,10.468,-9.267,-5.496,3.191,none
2.972877,0.876,0.456,-0.159,2470,-1.567,-4.588,0.671,-0.832,-0.253,0.494,0.844,0.535,0.036,2478.09,-1.119,-4.7,-0.783,-0.801,-0.475,0.363,0.573,-0.484,-0.661,2539.09,-2.238,-0.336,1.231,-0.218,0.626,0.749,0.276,0.752,-0.599,2463.32,-3.693,-2.91,-0.56,-0.108,-0.746,0.657,0.566,0.745,-0.352,9.86,2.977,0.992,-0.58,0.552,0.783,-0.287,10.59,-10.901,-5.267,4,none
2.972956,0.875,0.448,-0.184,2515.97,0.336,-6.267,2.35,-0.846,-0.254,0.468,0.841,0.541,0.016,2507.62,-0.112,-5.595,-0.783,-0.818,-0.445,0.364,0.572,-0.479,-0.666,2564.73,-1.455,-0.56,1.455,-0.218,0.64,0.737,0.27,0.754,-0.598,2481.63,-2.35,-2.574,-1.231,-0.097,-0.757,0.646,0.568,0.751,-0.335,9.9,1.908,2.565,-0.794,0.561,0.784,-0.267,10.701,-15.221,-3.756,6.504,none
2.973015,0.876,0.442,-0.193,2545.95,1.79,-10.519,5.26,-0.842,-0.249,0.479,0.852,0.523,-0.011,2555.8,1.231,-8.393,-0.112,-0.815,-0.463,0.349,0.564,-0.487,-0.667,2563.03,-1.567,-1.007,1.679,-0.241,0.615,0.751,0.27,0.751,-0.603,2480.11,-1.119,-2.91,-2.014,-0.1,-0.763,0.638,0.567,0.751,-0.339,9.909,-0.412,5.069,-1.695,0.562,0.78,-0.274,10.789,-20.458,-2.214,8.931,none
2.973074,0.885,0.384,-0.264,2676.58,7.945,-27.976,13.317,-0.833,-0.319,0.453,0.857,0.513,-0.042,2586.06,7.386,-24.06,1.343,-0.784,-0.452,0.426,0.569,-0.492,-0.659,2594.22,-2.35,-3.581,4.029,-0.203,0.597,0.776,0.275,0.741,-0.613,2472.62,-2.686,-5.148,-4.7,-0.123,-0.746,0.655,0.572,0.759,-0.312,10.038,-3.038,6.244,8.351,0.575,0.789,-0.218,10.788,-40.305,1.725,25.145,none
2.973146,0.89,0.386,-0.243,2662.49,8.505,-37.936,17.122,-0.792,-0.312,0.525,0.861,0.509,-0.023,2531.03,10.183,-33.348,2.91,-0.777,-0.471,0.418,0.566,-0.483,-0.669,2625.65,-4.252,-5.148,3.805,-0.228,0.616,0.754,0.262,0.745,-0.613,2485.21,-4.141,-7.386,-6.043,-0.068,-0.739,0.671,0.577,0.756,-0.309,9.886,-6.061,8.229,10.702,0.588,0.783,-0.203,10.662,-53.023,2.58,30.519,none
2.975121,0.915,0.351,-0.197,2394.77,12.533,-52.148,27.081,-0.822,-0.272,0.501,0.855,0.516,-0.043,2511.53,11.526,-40.622,5.931,-0.77,-0.463,0.439,0.566,-0.496,-0.658,2535.29,-2.238,-5.819,5.26,-0.211,0.621,0.755,0.26,0.749,-0.609,2390.99,-6.267,-7.722,-7.722,-0.091,-0.77,0.632,0.548,0.778,-0.308,9.536,-11.893,6,9.863,0.549,0.789,-0.276,9.911,-43.634,-1.466,26.763,none
2.975201,0.872,0.434,-0.224,2366.19,6.155,-46.889,22.605,-0.77,-0.247,0.588,0.842,0.538,0.047,2284.74,5.931,-41.069,2.798,-0.787,-0.454,0.419,0.563,-0.499,-0.659,2501.27,-4.141,-5.707,4.476,-0.219,0.639,0.737,0.258,0.757,-0.6,2408.3,-7.274,-6.043,-4.7,-0.088,-0.766,0.636,0.557,0.757,-0.342,9.512,-10.153,1.374,6.443,0.56,0.779,-0.282,9.982,-36.519,-4.229,21.359,none
2.975275,0.863,0.49,-0.125,2279.42,1.79,-45.546,22.045,-0.787,-0.252,0.562,0.845,0.535,0.013,2298.41,4.812,-30.438,2.126,-0.774,-0.437,0.458,0.584,-0.465,-0.665,2407.75,-2.574,-3.805,3.021,-0.208,0.647,0.733,0.255,0.762,-0.595,2431.08,-4.364,-2.574,-3.133,-0.078,-0.75,0.656,0.565,0.751,-0.342,9.56,-2.366,-1.74,5.42,0.564,0.765,-0.31,9.828,-23.847,-6.076,11.267,none
2.975338,0.859,0.491,-0.147,2210.75,1.902,-22.381,11.75,-0.797,-0.222,0.561,0.827,0.561,0.035,2277.93,1.231,-21.15,3.469,-0.78,-0.446,0.439,0.569,-0.488,-0.662,2474.26,0.56,-0.224,1.119,-0.172,0.608,0.775,0.249,0.769,-0.589,2422.12,-1.679,-2.014,-2.014,-0.07,-0.768,0.637,0.563,0.738,-0.373,9.355,4.794,-3.252,2.015,0.563,0.756,-0.335,9.707,-7.267,-7.588,1.328,none
2.983829,0.855,0.487,-0.179,2252.35,-2.91,2.126,-2.126,-0.778,-0.233,0.584,0.823,0.567,0.048,2255.21,-1.343,-6.043,0.224,-0.797,-0.441,0.413,0.573,-0.479,-0.665,2523.73,-0.671,2.91,1.455,-0.173,0.666,0.726,0.246,0.763,-0.598,2401.83,-2.238,1.455,0,-0.076,-0.769,0.634,0.566,0.743,-0.357,9.504,14.168,-4.672,-2.366,0.567,0.768,-0.298,9.929,5.557,-8.519,-7.038,none
3.007077,0.874,0.448,-0.19,2274.01,-3.917,11.75,-7.274,-0.785,-0.231,0.574,0.831,0.557,0.009,2313.75,-3.357,11.302,-1.902,-0.772,-0.42,0.477,0.584,-0.468,-0.663,2457.28,0,1.679,-1.007,-0.159,0.684,0.712,0.247,0.767,-0.592,2441.61,-1.119,5.595,2.462,-0.078,-0.767,0.637,0.566,0.75,-0.342,9.6,18.733,-4.718,-5.603,0.567,0.771,-0.289,9.991,14.458,-8.55,-15.435,none
3.030183,0.863,0.464,-0.199,2323.23,-5.26,22.157,-10.295,-0.801,-0.219,0.557,0.841,0.541,-0.012,2344.66,-4.7,17.345,-0.56,-0.772,-0.434,0.464,0.566,-0.491,-0.662,2502.97,4.476,3.469,-3.693,-0.213,0.63,0.747,0.249,0.762,-0.598,2418.67,2.91,7.833,3.245,-0.078,-0.759,0.647,0.573,0.75,-0.331,9.543,25.527,-6.641,-8.489,0.566,0.758,-0.325,9.917,28.809,-9.023,-23.725,none
3.053548,0.868,0.469,-0.164,2277.48,-7.05,38.496,-19.472,-0.781,-0.283,0.557,0.849,0.529,-0.021,2380.2,-6.043,23.388,-1.007,-0.773,-0.456,0.44,0.56,-0.497,-0.663,2530.54,4.252,3.805,-5.036,-0.243,0.664,0.707,0.248,0.758,-0.603,2429.32,5.819,10.183,4.364,-0.077,-0.758,0.648,0.564,0.741,-0.364,9.463,28.58,-7.878,-11.374,0.548,0.76,-0.348,9.963,45.45,-11.45,-32.336,none
3.482284,0.843,0.53,-0.091,2273.18,-13.653,54.946,-31.334,-0.792,-0.273,0.546,0.84,0.543,0.013,2372.32,-8.952,27.529,-2.686,-0.797,-0.449,0.404,0.557,-0.499,-0.664,2559.45,3.693,4.476,-6.043,-0.199,0.68,0.706,0.254,0.755,-0.604,2440.88,4.7,11.302,5.483,-0.088,-0.758,0.646,0.576,0.72,-0.388,9.624,32.718,-6.718,-15.008,0.54,0.758,-0.366,10.134,61.573,-12.351,-39.74,none
3.482449,0.841,0.537,-0.067,2350.47,-17.345,74.417,-43.979,-0.808,-0.293,0.511,0.823,0.564,0.071,2335.91,-15.219,40.846,-7.274,-0.79,-0.442,0.425,0.572,-0.483,-0.663,2545.05,2.126,4.812,-5.707,-0.245,0.639,0.729,0.27,0.759,-0.592,2441.34,2.238,11.414,5.371,-0.115,-0.756,0.644,0.58,0.707,-0.405,9.705,40.885,-4.122,-15.16,0.541,0.756,-0.369,10.395,77.053,-10.137,-47.374,none
3.482539,0.85,0.513,-0.12,2463.13,-18.8,90.868,-54.946,-0.82,-0.273,0.504,0.813,0.575,0.095,2377.71,-17.793,54.051,-10.183,-0.783,-0.467,0.41,0.579,-0.474,-0.663,2530.3,3.133,3.805,-6.155,-0.228,0.616,0.754,0.27,0.766,-0.583,2444.83,2.574,11.526,5.148,-0.118,-0.785,0.608,0.574,0.71,-0.408,9.686,48.412,-1.603,-16.534,0.542,0.783,-0.306,10.58,77.282,-5.71,-48.748,none
3.482629,0.875,0.414,-0.25,2671.27,-11.638,87.622,-50.246,-0.81,-0.355,0.467,0.823,0.568,0.032,2493,-15.443,64.01,-11.079,-0.809,-0.45,0.379,0.586,-0.46,-0.667,2500.78,4.7,3.693,-6.938,-0.239,0.616,0.751,0.273,0.767,-0.581,2455.21,5.931,13.429,4.029,-0.12,-0.745,0.656,0.56,0.733,-0.386,9.748,51.191,0.763,-19.008,0.547,0.792,-0.272,10.779,58.779,-0.092,-43.191,none
3.482721,0.873,0.47,-0.13,2500.35,-1.455,68.263,-31.334,-0.832,-0.299,0.468,0.85,0.527,-0.023,2574.79,-8.393,61.324,-8.617,-0.805,-0.472,0.359,0.594,-0.448,-0.668,2499.04,7.61,3.133,-9.848,-0.235,0.654,0.718,0.275,0.766,-0.581,2469.89,10.743,15.891,3.805,-0.108,-0.754,0.648,0.557,0.74,-0.377,9.847,46.29,2.641,-20.412,0.498,0.77,-0.398,10.452,53.969,2.122,-44.641,none
3.482809,0.855,0.513,-0.072,2460.35,-0.671,64.458,-27.529,-0.825,-0.345,0.448,0.861,0.507,-0.034,2596.52,-5.931,47,-4.924,-0.818,-0.451,0.358,0.572,-0.487,-0.659,2561.13,10.631,2.014,-11.526,-0.219,0.639,0.737,0.282,0.743,-0.607,2480.26,16.45,15.667,1.902,-0.105,-0.736,0.668,0.558,0.696,-0.452,9.726,50.29,2.916,-19.725,0.493,0.773,-0.398,10.55,61.069,1.618,-47.847,none
3.482898,0.843,0.537,-0.036,2496.6,-1.119,67.815,-30.774,-0.846,-0.339,0.412,0.837,0.542,0.079,2485.26,-6.826,39.615,-4.7,-0.811,-0.461,0.36,0.566,-0.505,-0.652,2607.11,10.295,1.343,-10.743,-0.241,0.65,0.72,0.284,0.73,-0.621,2468.6,16.674,13.876,0.56,-0.117,-0.728,0.676,0.541,0.72,-0.435,9.795,57.603,2.214,-17.466,0.485,0.788,-0.379,10.598,61.069,0.382,-46.794,none
3.482981,0.856,0.516,-0.04,2503.44,-3.245,67.032,-32.117,-0.837,-0.343,0.427,0.835,0.542,0.096,2467.16,-7.945,41.853,-7.61,-0.821,-0.475,0.316,0.574,-0.494,-0.653,2585.59,7.498,0.671,-9.512,-0.211,0.648,0.732,0.297,0.735,-0.609,2453.01,11.191,11.526,0.895,-0.124,-0.742,0.659,0.532,0.741,-0.41,9.771,55.542,2.519,-18.122,0.474,0.796,-0.376,10.654,54.641,1.191,-42.733,none
3.483073,0.864,0.502,-0.039,2537.63,-1.567,61.884,-30.438,-0.845,-0.355,0.399,0.834,0.543,0.098,2495.03,-7.386,42.188,-8.281,-0.812,-0.479,0.333,0.587,-0.482,-0.651,2547.94,6.714,0.448,-9.736,-0.278,0.633,0.722,0.302,0.736,-0.606,2449.19,10.519,11.302,1.455,-0.115,-0.743,0.659,0.525,0.738,-0.424,9.847,50.412,2.397,-18.015,0.466,0.797,-0.385,10.679,46.153,1.817,-39.481,none
3.483185,0.875,0.483,-0.031,2550.27,-0.895,56.177,-25.85,-0.86,-0.373,0.348,0.846,0.526,0.094,2506.06,-5.26,38.608,-6.826,-0.825,-0.468,0.316,0.591,-0.486,-0.644,2529.16,6.267,0.224,-10.519,-0.27,0.635,0.723,0.309,0.73,-0.61,2483.63,12.086,11.75,1.231,-0.131,-0.754,0.644,0.526,0.735,-0.428,9.855,45.328,1.817,-17.069,0.474,0.805,-0.357,10.847,37.374,0.473,-33.832,none
3.483281,0.866,0.499,-0.042,2589.06,-1.79,49.127,-21.934,-0.871,-0.374,0.319,0.846,0.525,0.097,2529.09,-4.924,33.012,-5.371,-0.834,-0.481,0.27,0.582,-0.494,-0.646,2566.96,6.938,1.007,-10.855,-0.262,0.64,0.722,0.315,0.722,-0.617,2471.95,10.072,10.295,1.567,-0.133,-0.754,0.643,0.522,0.748,-0.409,9.97,37.74,-0.076,-14.122,0.472,0.811,-0.345,11.078,23.771,-1.527,-23.786,none
3.483362,0.885,0.461,-0.067,2653.79,2.574,35.698,-14.66,-0.859,-0.413,0.303,0.85,0.519,0.088,2574.95,-3.469,27.417,-3.469,-0.836,-0.463,0.295,0.576,-0.5,-0.647,2595.43,3.917,1.119,-8.729,-0.235,0.645,0.727,0.318,0.722,-0.615,2511.52,4.7,9.288,1.902,-0.116,-0.715,0.69,0.54,0.742,-0.398,10.233,26.672,0.763,-10.55,0.462,0.8,-0.381,10.996,10.87,-1.832,-15.389,none
3.483443,0.871,0.49,-0.03,2616.9,1.79,21.598,-6.714,-0.856,-0.401,0.327,0.857,0.511,0.067,2632.98,-0.783,17.569,0.112,-0.824,-0.503,0.262,0.572,-0.511,-0.642,2597.25,4.141,0.112,-5.148,-0.214,0.624,0.751,0.315,0.717,-0.622,2499.42,4.364,4.364,0.112,-0.133,-0.717,0.685,0.531,0.725,-0.439,9.981,17.725,2.702,-5.939,0.45,0.784,-0.428,10.776,5.511,-2.168,-10.565,none
3.483524,0.845,0.536,0.004,2560.07,-0.895,12.869,-4.812,-0.864,-0.383,0.328,0.836,0.536,0.119,2547.75,-0.56,7.386,0.336,-0.845,-0.468,0.258,0.569,-0.512,-0.643,2626.68,3.021,-0.336,-1.455,-0.274,0.657,0.702,0.307,0.714,-0.629,2471.08,3.693,1.679,-0.895,-0.117,-0.745,0.657,0.529,0.704,-0.474,9.747,15.252,2.351,-2.229,0.435,0.773,-0.462,10.467,5.817,-3.008,-7.725,none
3.483604,0.832,0.554,0.028,2457.43,-2.686,9.848,-7.274,-0.862,-0.391,0.322,0.829,0.542,0.138,2484.55,-0.895,4.476,-2.126,-0.825,-0.5,0.265,0.581,-0.497,-0.644,2589.13,0,-1.343,1.119,-0.257,0.67,0.697,0.302,0.721,-0.623,2445.48,3.021,0.112,-0.895,-0.148,-0.726,0.672,0.516,0.71,-0.48,9.569,15.42,1.13,-1.115,0.427,0.776,-0.464,10.354,7.176,-4.183,-7.176,none
3.483686,0.833,0.552,0.032,2429.15,-2.35,10.072,-8.281,-0.845,-0.399,0.355,0.825,0.541,0.162,2414.53,-1.343,4.252,-3.693,-0.84,-0.474,0.265,0.598,-0.484,-0.64,2518.7,-1.343,-1.007,0.448,-0.284,0.635,0.719,0.307,0.722,-0.62,2442.93,1.231,0.224,0.224,-0.151,-0.715,0.682,0.51,0.714,-0.48,9.606,13.74,-0.183,-2.397,0.422,0.784,-0.455,10.389,5.985,-4.519,-7.664,none
3.483749,0.841,0.54,0.036,2431.24,-1.231,11.079,-6.491,-0.864,-0.388,0.32,0.82,0.543,0.18,2405.74,-2.686,5.371,-1.79,-0.819,-0.487,0.302,0.601,-0.479,-0.64,2503.16,-0.671,0.448,-0.448,-0.223,0.655,0.722,0.309,0.727,-0.613,2454.34,0.224,0.783,0.895,-0.151,-0.723,0.674,0.521,0.705,-0.482,9.702,12,-0.55,-3.664,0.428,0.781,-0.454,10.441,3.008,-5.023,-7.282,none
3.485418,0.839,0.544,0.028,2449.87,-1.007,9.848,-4.364,-0.863,-0.405,0.301,0.822,0.547,0.16,2445.68,-2.574,6.267,0,-0.835,-0.463,0.297,0.595,-0.486,-0.64,2528.03,0.336,1.455,-1.343,-0.244,0.644,0.725,0.308,0.727,-0.614,2467.01,1.567,1.231,1.231,-0.118,-0.728,0.675,0.524,0.7,-0.486,9.72,11.389,-0.443,-4.58,0.432,0.77,-0.471,10.482,0.855,-4.687,-7.267,none
3.485496,0.825,0.564,0.035,2465.95,-1.455,8.169,-2.35,-0.858,-0.422,0.293,0.82,0.552,0.151,2475.89,-2.014,4.812,1.455,-0.832,-0.48,0.28,0.592,-0.483,-0.645,2541.52,1.343,1.343,-1.007,-0.27,0.628,0.73,0.305,0.726,-0.616,2458.14,3.133,1.343,0.895,-0.157,-0.717,0.679,0.532,0.693,-0.487,9.712,11.878,0.595,-4.321,0.435,0.766,-0.474,10.471,0.885,-4.321,-7.115,none
3.485584,0.828,0.56,0.028,2467.74,-1.007,7.945,-2.574,-0.863,-0.405,0.304,0.815,0.559,0.154,2480.35,-1.119,4.7,0.56,-0.828,-0.491,0.27,0.587,-0.491,-0.644,2562.08,1.455,1.343,-0.895,-0.275,0.643,0.715,0.305,0.723,-0.62,2456.46,2.798,1.902,0.448,-0.141,-0.711,0.689,0.527,0.699,-0.484,9.7,11.328,0.519,-4.015,0.436,0.774,-0.459,10.522,0.443,-4.595,-5.924,none
3.501225,0.831,0.556,0.027,2484.33,-1.343,7.162,-2.798,-0.863,-0.395,0.314,0.825,0.545,0.15,2486.03,-1.007,4.812,0.112,-0.825,-0.5,0.265,0.588,-0.488,-0.645,2557.68,1.119,0.671,-0.671,-0.234,0.647,0.726,0.308,0.725,-0.616,2460.48,1.119,1.455,0.448,-0.139,-0.736,0.663,0.53,0.702,-0.476,9.774,8.595,1.359,-3.252,0.434,0.775,-0.46,10.573,-2.87,-3.817,-3.71,none
3.52444,0.832,0.554,0.023,2493.22,1.119,3.805,-0.671,-0.867,-0.395,0.304,0.826,0.543,0.149,2495.11,-0.336,3.357,0.56,-0.841,-0.489,0.23,0.583,-0.491,-0.647,2579.9,1.007,0.448,-0.671,-0.245,0.681,0.69,0.308,0.72,-0.622,2465.02,0.56,0.783,-0.224,-0.134,-0.721,0.68,0.531,0.694,-0.487,9.725,6.992,1.038,-1.802,0.434,0.769,-0.47,10.563,-4.427,-4.061,-1.756,none
3.545958,0.828,0.56,0.031,2481.32,0.671,1.567,-0.448,-0.833,-0.439,0.338,0.822,0.548,0.154,2493.84,-0.336,1.007,0,-0.822,-0.49,0.289,0.581,-0.493,-0.648,2590.64,0.112,0,-0.224,-0.217,0.68,0.701,0.304,0.724,-0.619,2462.97,-0.224,-0.448,-0.671,-0.152,-0.719,0.678,0.539,0.688,-0.486,9.736,7.298,1.328,-0.244,0.442,0.764,-0.471,10.548,-4.992,-3.802,0.107,none
3.569211,0.824,0.566,0.019,2491.85,1.455,0.56,-1.455,-0.846,-0.444,0.296,0.817,0.558,0.145,2498.69,0.448,0.224,-1.343,-0.825,-0.509,0.245,0.584,-0.484,-0.651,2576.47,-1.007,-1.343,1.119,-0.225,0.647,0.729,0.3,0.727,-0.618,2465.76,-1.455,-0.895,-1.343,-0.149,-0.73,0.667,0.532,0.697,-0.48,9.733,6.382,1.71,0.489,0.432,0.765,-0.478,10.474,-4.931,-3.237,1.069,none
3.992405,0.824,0.565,0.044,2445.17,1.679,-1.007,-1.455,-0.869,-0.38,0.317,0.819,0.552,0.156,2455.51,2.014,-0.895,-1.79,-0.817,-0.509,0.27,0.59,-0.484,-0.646,2535.61,-0.224,-2.126,0.671,-0.233,0.659,0.715,0.301,0.727,-0.617,2454.38,-1.79,-1.119,-1.79,-0.157,-0.717,0.679,0.519,0.696,-0.497,9.555,6.427,1.267,0.046,0.42,0.773,-0.476,10.348,-4.763,-3.45,0.458,none
3.992583,0.83,0.555,0.053,2416.29,2.238,0,-1.231,-0.845,-0.42,0.332,0.819,0.545,0.179,2418.56,1.679,-0.56,-1.231,-0.826,-0.492,0.275,0.595,-0.485,-0.641,2512.74,-0.336,-1.455,0.56,-0.226,0.69,0.688,0.305,0.723,-0.62,2426.45,-0.895,0.224,-1.007,-0.155,-0.715,0.681,0.517,0.703,-0.489,9.536,5.893,0.473,-0.794,0.417,0.776,-0.473,10.326,-5.618,-4.198,0.092,none
3.992673,0.832,0.552,0.053,2411.3,1.343,0.112,-0.448,-0.85,-0.428,0.307,0.826,0.539,0.166,2423.6,0.112,0.224,-0.336,-0.828,-0.483,0.285,0.595,-0.484,-0.641,2494.89,-0.895,-0.671,0,-0.228,0.664,0.712,0.306,0.724,-0.618,2450.16,-0.671,0.224,-0.112,-0.137,-0.705,0.696,0.525,0.696,-0.49,9.628,5.588,0.183,-1.634,0.422,0.772,-0.476,10.367,-6.748,-4.565,-0.534,none
3.992756,0.827,0.561,0.048,2427.77,0.112,-0.448,0.671,-0.869,-0.392,0.302,0.819,0.549,0.165,2433.36,0,0.448,0.895,-0.816,-0.491,0.304,0.591,-0.486,-0.644,2529.16,0.224,0.336,-0.224,-0.234,0.632,0.739,0.302,0.729,-0.615,2448.22,-0.448,0.224,0.224,-0.116,-0.723,0.681,0.528,0.694,-0.489,9.702,5.16,-0.198,-2.702,0.426,0.765,-0.483,10.447,-6.214,-4.809,-1.695,none
3.992824,0.819,0.572,0.048,2449.03,0.112,0.671,1.007,-0.877,-0.388,0.284,0.812,0.559,0.167,2463.15,-0.224,0.448,1.343,-0.83,-0.494,0.258,0.592,-0.483,-0.645,2541.52,0.783,0.895,-0.336,-0.257,0.636,0.728,0.304,0.728,-0.615,2463.23,0.448,0.671,0.336,-0.148,-0.727,0.671,0.526,0.693,-0.493,9.715,5.328,0.107,-2.809,0.432,0.767,-0.474,10.535,-5.908,-4.565,-1.817,none
3.992896,0.828,0.56,0.035,2482.48,0.448,1.455,0.671,-0.872,-0.371,0.319,0.819,0.552,0.157,2492.53,0.224,1.455,1.119,-0.839,-0.477,0.262,0.593,-0.482,-0.645,2571.1,0.783,0.448,-0.224,-0.245,0.624,0.742,0.31,0.724,-0.616,2475.33,0.895,1.007,0.336,-0.171,-0.742,0.649,0.533,0.694,-0.484,9.822,4.718,0.534,-2.397,0.431,0.772,-0.467,10.566,-7.45,-4.031,-1.008,none
3.992962,0.832,0.554,0.035,2494.06,1.343,-0.448,1.902,-0.861,-0.398,0.316,0.823,0.546,0.156,2503.7,0.895,0.112,1.455,-0.828,-0.483,0.285,0.59,-0.489,-0.642,2567.97,1.007,0.224,0,-0.261,0.686,0.679,0.31,0.721,-0.62,2475,0.783,0.336,-0.224,-0.138,-0.739,0.659,5.119,6.718,-4.769,9.7,3.908,0.992,-1.038,0.425,0.768,-0.479,10.486,-7.847,-4.092,-0.122,none
3.99303,0.823,0.566,0.043,2471.56,1.455,-0.895,1.231,-0.849,-0.42,0.321,0.82,0.548,0.166,2475.97,0.783,-1.231,1.455,-0.853,-0.474,0.219,0.588,-0.491,-0.643,2578.66,0.671,0.112,0.671,-0.254,0.687,0.681,0.31,0.72,-0.622,2451.6,0.112,-0.895,-0.56,-0.134,-0.721,0.68,5.025,6.615,-4.829,9.609,5.206,0.275,-0.137,0.421,0.764,-0.49,10.405,-6.076,-5.237,0.336,none
3.993109,0.825,0.563,0.048,2433.39,0.112,-0.56,-0.336,-0.862,-0.405,0.304,0.817,0.55,0.171,2447.44,-0.448,-0.783,-0.224,-0.848,-0.464,0.256,0.591,-0.486,-0.643,2545.72,-1.007,0,1.007,-0.223,0.655,0.722,0.305,0.728,-0.614,2451.99,-1.343,-1.007,0,-0.143,-0.717,0.683,5.037,6.67,-4.726,9.602,6.076,-0.198,-0.687,0.424,0.768,-0.48,10.397,-5.802,-5.679,-0.107,none
3.99318,0.825,0.564,0.044,2432.93,-0.783,-0.224,-0.448,-0.868,-0.399,0.297,0.816,0.552,0.168,2438.56,-1.231,0,0,-0.843,-0.475,0.252,0.593,-0.476,-0.65,2521.05,-1.119,0.224,0.671,-0.217,0.646,0.732,0.302,0.732,-0.611,2448.67,-0.895,-0.448,0.448,-0.12,-0.745,0.656,5.131,6.661,-4.695,9.63,5.298,0.015,-1.481,0.433,0.765,-0.476,10.443,-6.321,-5.252,-0.779,none
3.99324,0.821,0.57,0.035,2455.16,-0.112,0.448,0.56,-0.865,-0.414,0.283,0.815,0.557,0.163,2455.34,-0.224,0,0.671,-0.832,-0.475,0.286,0.594,-0.48,-0.646,2518.86,0.336,0.448,0.336,-0.211,0.648,0.732,0.307,0.731,-0.609,2439.03,0.336,-0.336,0.336,-0.127,-0.727,0.675,5.205,6.697,-4.705,9.699,4.947,0.519,-1.588,0.438,0.767,-0.47,10.491,-7.038,-4.458,-0.153,none
3.993297,0.827,0.562,0.027,2473.61,0.671,-0.336,0.671,-0.865,-0.402,0.299,0.818,0.555,0.153,2482.22,0.224,0.112,0.56,-0.836,-0.49,0.246,0.59,-0.485,-0.646,2552.82,0.56,0.224,0.783,-0.258,0.663,0.703,0.304,0.724,-0.619,2462.97,0.448,-0.56,-0.448,-0.146,-0.726,0.672,5.15,6.752,-4.681,9.696,4.382,0.779,-0.977,0.429,0.771,-0.471,10.473,-8.183,-3.802,1.008,none
3.99336,0.828,0.559,0.035,2469.16,1.231,-1.79,0.895,-0.859,-0.401,0.318,0.825,0.543,0.158,2461.82,0.895,-0.895,0,-0.853,-0.466,0.236,0.587,-0.491,-0.644,2562.08,0.448,-0.56,0.783,-0.266,0.639,0.721,0.301,0.719,-0.626,2451.73,0,-1.007,-0.671,-0.135,-0.723,0.678,5.025,6.728,-4.685,9.616,4.183,0.397,-0.366,0.426,0.774,-0.469,10.406,-7.786,-4.366,1.328,none
3.993419,0.832,0.553,0.04,2443.72,1.119,-1.679,0,-0.884,-0.352,0.309,0.823,0.545,0.159,2453.58,0.224,-1.231,-0.448,-0.832,-0.499,0.241,0.587,-0.497,-0.639,2548.32,-0.448,-0.448,0.671,-0.272,0.631,0.727,0.301,0.719,-0.626,2451.73,-1.455,-1.007,-0.112,-0.13,-0.72,0.681,5.09,6.819,-4.659,9.701,4,-0.305,-0.244,0.425,0.776,-0.465,10.462,-7.847,-4.824,1.603,none
3.993477,0.832,0.554,0.039,2458.33,0.448,-2.126,-0.112,-0.856,-0.401,0.327,0.828,0.539,0.158,2466.04,0.112,-0.895,-0.895,-0.837,-0.478,0.268,0.594,-0.493,-0.635,2548.81,-1.231,-0.224,0.56,-0.255,0.657,0.71,0.305,0.719,-0.625,2455.48,-0.895,-0.783,-0.224,-0.145,-0.724,0.674,5.092,6.761,-4.748,9.705,3.527,-0.107,0.489,0.423,0.773,-0.473,10.462,-7.863,-4.977,1.756,none
3.993534,0.83,0.556,0.043,2464.28,0.448,-2.014,0.336,-0.867,-0.411,0.282,0.825,0.541,0.162,2471.67,-0.448,-1.343,-0.56,-0.827,-0.488,0.278,0.589,-0.496,-0.638,2554.2,-1.007,-0.224,0.783,-0.259,0.652,0.713,0.308,0.72,-0.622,2465.02,-1.455,-1.007,-0.224,-0.143,-0.733,0.666,5.049,6.704,-4.748,9.642,4.473,0.153,0.305,0.422,0.77,-0.479,10.419,-6.977,-5.252,1.221,none
3.993593,0.825,0.563,0.051,2453.44,0,-1.567,0.224,-0.862,-0.405,0.304,0.818,0.551,0.168,2445.92,-0.112,-1.231,-0.56,-0.833,-0.49,0.256,0.599,-0.486,-0.637,2528.89,-1.231,-0.448,1.007,-0.257,0.656,0.71,0.303,0.726,-0.617,2469.5,-1.902,-1.007,-0.336,-0.136,-0.735,0.664,5.088,6.802,-4.724,9.719,4.58,0.153,-0.855,0.421,0.774,-0.473,10.452,-6.992,-5.008,0.168,none
3.995301,0.829,0.557,0.047,2441.75,0.56,-0.783,0.783,-0.867,-0.422,0.267,0.82,0.546,0.171,2450.15,0,0.112,0.783,-0.844,-0.476,0.247,0.597,-0.48,-0.642,2535.57,0.336,0.336,0.336,-0.215,0.636,0.741,0.305,0.728,-0.614,2451.99,-1.007,0,-0.112,-0.129,-0.727,0.674,5.145,6.728,-4.688,9.68,4.046,0.397,-1.282,0.436,0.77,-0.467,10.489,-7.084,-4.687,-0.519,none
3.995382,0.825,0.565,0.03,2480.01,0.895,0,1.343,-0.873,-0.396,0.283,0.819,0.551,0.161,2480.66,-0.112,0.56,1.007,-0.815,-0.504,0.286,0.583,-0.498,-0.643,2566.12,0.56,0.112,0.336,-0.231,0.636,0.736,0.306,0.724,-0.618,2450.16,0.56,0,-0.224,-0.119,-0.742,0.66,5.131,6.723,-4.7,9.675,3.42,0.55,0.061,0.431,0.772,-0.467,10.463,-8.29,-4.519,1.282,none
4.003993,0.836,0.548,0.027,2468.27,2.014,-0.783,1.007,-0.876,-0.394,0.278,0.827,0.542,0.15,2467,0.448,0,-0.112,-0.822,-0.503,0.267,0.585,-0.492,-0.645,2556.22,-1.007,-0.336,1.455,-0.246,0.683,0.687,0.305,0.726,-0.616,2458.14,-0.56,-1.007,-0.448,-0.144,-0.712,0.687,5.085,6.699,-4.731,9.65,4.351,0.351,0.672,0.428,0.769,-0.476,10.414,-7.053,-5.511,0.885,none
4.027531,0.825,0.564,0.043,2431.19,0.112,-1.455,0.224,-0.85,-0.406,0.335,0.82,0.548,0.164,2438.76,-0.783,-1.119,0.224,-0.816,-0.511,0.271,0.581,-0.495,-0.646,2521.32,-0.895,0.224,2.126,-0.254,0.667,0.7,0.298,0.733,-0.611,2445.67,-1.567,-2.238,-0.224,-0.118,-0.728,0.675,5.128,6.665,-4.676,9.622,4.321,-0.519,-0.092,0.432,0.769,-0.47,10.385,-6.84,-6.122,0.107,none
4.052149,0.825,0.564,0.035,2430.41,-0.56,-0.895,0.671,-0.86,-0.439,0.262,0.818,0.554,0.156,2432.88,-0.671,-0.671,0.783,-0.834,-0.476,0.278,0.589,-0.475,-0.654,2521.65,-0.895,1.343,2.014,-0.236,0.651,0.722,0.299,0.735,-0.609,2438.84,-0.448,-1.567,0.448,-0.138,-0.747,0.65,5.145,6.644,-4.678,9.618,4.305,-1.13,-0.855,0.432,0.766,-0.476,10.379,-7.924,-6.427,0.031,none
4.074343,0.826,0.562,0.035,2438.67,0.112,-0.895,2.238,-0.866,-0.405,0.294,0.815,0.556,0.164,2441.63,-1.231,-1.119,1.231,-0.843,-0.481,0.241,0.589,-0.479,-0.65,2520.08,-0.671,2.014,1.455,-0.239,0.649,0.722,0.298,0.737,-0.607,2446.2,1.231,-1.007,0.895,-0.138,-0.739,0.659,5.231,6.62,-4.707,9.662,4.122,-0.763,-1.954,0.439,0.759,-0.481,10.452,-8.092,-5.878,-0.794,none
4.49936,0.812,0.583,0.031,2454.91,-0.671,-0.56,2.014,-0.856,-0.413,0.313,0.81,0.564,0.163,2457.86,-1.343,-0.336,2.014,-0.833,-0.503,0.229,0.592,-0.478,-0.649,2525.34,0.224,2.014,1.902,-0.266,0.667,0.696,0.298,0.733,-0.611,2445.67,1.119,-1.679,0.895,-0.131,-0.725,0.676,5.16,6.675,-4.63,9.624,3.008,0.153,-2.26,0.44,0.767,-0.467,10.395,-7.985,-4.779,-0.901,none
4.499494,0.828,0.56,0.027,2432.47,0.783,-0.224,2.014,-0.863,-0.395,0.314,0.82,0.551,0.157,2427.36,0.112,0.224,1.567,-0.818,-0.505,0.274,0.586,-0.483,-0.65,2519.61,1.343,1.119,1.902,-0.256,0.667,0.699,0.295,0.733,-0.613,2436.84,1.231,-1.679,0.783,-0.135,-0.723,0.678,5.047,6.716,-4.554,9.556,2.748,-0.183,-3.069,0.429,0.779,-0.458,10.328,-8.87,-4.58,-1.389,none
4.499595,0.839,0.544,0.031,2413.2,0.336,-0.224,2.462,-0.881,-0.394,0.261,0.829,0.537,0.157,2415.2,-0.783,0.112,2.238,-0.847,-0.478,0.234,0.582,-0.502,-0.64,2502.64,2.35,1.902,1.455,-0.235,0.666,0.708,0.295,0.723,-0.625,2440.24,2.462,-1.343,1.231,-0.128,-0.723,0.679,4.99,6.802,-4.561,9.59,1.802,-1.832,-3.588,0.421,0.782,-0.459,10.339,-9.038,-6.031,-2.092,none
4.499677,0.84,0.541,0.043,2423.55,-1.119,-0.336,3.357,-0.863,-0.405,0.304,0.834,0.529,0.156,2434.81,-1.902,0.112,3.133,-0.82,-0.519,0.241,0.586,-0.5,-0.638,2552.67,1.567,3.357,1.455,-0.262,0.64,0.722,0.301,0.723,-0.621,2452.71,2.574,-1.007,2.462,-0.127,-0.735,0.666,5.095,6.732,-4.781,9.703,1.878,-3.191,-3.511,0.424,0.775,-0.469,10.503,-9.435,-7.405,-2.473,none
4.49974,0.829,0.557,0.042,2478.15,-2.91,-0.112,3.469,-0.853,-0.415,0.317,0.821,0.546,0.165,2485,-3.693,-0.448,3.805,-0.825,-0.491,0.28,0.595,-0.487,-0.639,2562.45,1.119,4.141,1.902,-0.209,0.675,0.708,0.309,0.726,-0.614,2482.58,1.79,-1.119,3.469,-0.137,-0.723,0.677,5.322,6.744,-4.829,9.856,2.687,-2.137,-3.252,0.44,0.762,-0.475,10.67,-9.359,-6.931,-2.366,none
4.501853,0.818,0.575,0.03,2523.53,-1.567,0,3.917,-0.866,-0.38,0.326,0.805,0.569,0.17,2524.1,-2.798,-0.56,4.141,-0.821,-0.494,0.286,0.601,-0.468,-0.648,2603.64,1.679,3.469,1.79,-0.25,0.672,0.697,0.308,0.735,-0.604,2492.2,1.455,-0.56,1.455,-0.145,-0.721,0.678,5.318,6.704,-4.803,9.812,3.695,0.244,-3.344,0.443,0.758,-0.479,10.651,-9.298,-4.718,-1.802,none
4.502012,0.814,0.58,0.034,2500.19,1.119,-0.224,3.917,-0.86,-0.394,0.324,0.805,0.568,0.171,2509.57,0,0,3.469,-0.846,-0.463,0.265,0.597,-0.478,-0.645,2571.66,2.798,1.119,1.902,-0.274,0.67,0.69,0.307,0.732,-0.608,2475.49,2.574,0.112,-0.448,-0.115,-0.723,0.682,5.15,6.737,-4.664,9.678,3.985,2.779,-3.42,0.431,0.768,-0.474,10.437,-7.74,-2.489,-1.985,none
4.502149,0.826,0.562,0.047,2439.07,2.462,0.448,2.798,-0.861,-0.385,0.333,0.822,0.544,0.167,2457.66,2.462,0.448,2.238,-0.844,-0.462,0.275,0.594,-0.493,-0.635,2548.81,3.693,-0.336,1.231,-0.227,0.678,0.699,0.3,0.713,-0.634,2433.54,3.133,0.336,-1.455,-0.128,-0.731,0.67,4.939,6.831,-4.561,9.584,4.015,2.809,-3.817,0.422,0.787,-0.45,10.331,-6.794,-2.107,-2.26,none
4.502273,0.847,0.531,0.035,2437.04,3.021,1.231,2.126,-0.877,-0.4,0.265,0.838,0.521,0.16,2434.78,2.35,1.79,2.126,-0.836,-0.462,0.297,0.588,-0.513,-0.625,2526.63,3.133,0.112,0.112,-0.251,0.661,0.707,0.303,0.706,-0.64,2442.21,2.126,0.783,-1.231,-0.13,-0.737,0.663,4.925,6.938,-4.527,9.638,3.893,1.435,-2.702,0.417,0.797,-0.437,10.422,-7.832,-3.176,-0.916,none
4.502386,0.855,0.517,0.027,2480.59,2.686,0.783,1.902,-0.883,-0.376,0.282,0.849,0.507,0.149,2483.07,1.343,1.79,1.343,-0.827,-0.482,0.29,0.576,-0.526,-0.625,2576.68,1.119,0.895,0.112,-0.268,0.621,0.736,0.308,0.701,-0.643,2460.52,-0.224,0.112,-0.336,-0.142,-0.72,0.679,5.054,6.984,-4.568,9.756,3.649,-0.595,-0.794,0.42,0.791,-0.445,10.55,-8.55,-5.237,0.656,none
4.502501,0.85,0.525,0.03,2496.82,0.783,-1.567,1.79,-0.875,-0.367,0.316,0.845,0.515,0.139,2518.06,-1.007,-0.671,0.671,-0.83,-0.498,0.25,0.584,-0.505,-0.635,2625.58,-1.119,1.007,1.119,-0.253,0.647,0.719,0.304,0.715,-0.63,2497.33,-1.79,-0.895,0.448,-0.138,-0.723,0.677,5.346,6.958,-4.597,9.906,2.183,-0.443,0.977,0.443,0.772,-0.455,10.696,-8.229,-5.42,2.031,none
4.502617,0.827,0.562,0.018,2542.72,-0.448,-2.686,0.895,-0.854,-0.406,0.325,0.815,0.559,0.153,2551.04,-0.783,-2.35,0.224,-0.841,-0.474,0.26,0.59,-0.491,-0.641,2619.04,-2.126,-1.007,1.79,-0.208,0.656,0.725,0.302,0.722,-0.622,2481.89,-1.79,-1.567,-0.448,-0.104,-0.731,0.674,5.284,6.816,-4.628,9.788,1.893,1.282,2.427,0.448,0.763,-0.466,10.589,-7.756,-3.267,3.954,none
4.50273,0.826,0.563,0.023,2486.94,3.021,-4.141,-1.119,-0.853,-0.415,0.315,0.817,0.555,0.16,2499.34,1.902,-3.357,-1.902,-0.829,-0.493,0.265,0.592,-0.488,-0.641,2573.88,-2.238,-3.581,2.014,-0.262,0.678,0.686,0.305,0.723,-0.62,2456.46,-1.231,-2.126,-2.91,-0.153,-0.715,0.682,5.023,6.723,-4.609,9.574,1.893,2.504,3.252,0.428,0.779,-0.459,10.355,-7.267,-1.511,5.099,none
4.502848,0.843,0.536,0.044,2413.32,3.581,-5.148,-1.79,-0.859,-0.391,0.332,0.826,0.537,0.168,2433.74,3.917,-3.805,-3.469,-0.826,-0.478,0.298,0.597,-0.499,-0.628,2502.11,-2.238,-4.812,1.79,-0.267,0.654,0.708,0.305,0.717,-0.626,2419,-2.238,-2.686,-3.357,-0.148,-0.718,0.68,4.831,6.764,-4.561,9.481,2.443,1.969,2.718,0.411,0.789,-0.457,10.19,-7.221,-2.702,4.397,none
4.502918,0.847,0.53,0.035,2401.02,2.574,-4.588,-1.231,-0.873,-0.396,0.283,0.836,0.522,0.167,2391.65,1.902,-3.469,-2.574,-0.841,-0.47,0.269,0.597,-0.501,-0.627,2489.24,-2.126,-2.686,1.007,-0.247,0.67,0.7,0.306,0.713,-0.631,2416.79,-3.133,-2.238,-2.014,-0.13,-0.732,0.668,4.946,6.857,-4.544,9.599,2.718,-0.214,1.252,0.423,0.788,-0.447,10.338,-9.13,-4.504,4.153,none
4.502977,0.843,0.537,0.035,2426.33,1.455,-4.924,0.224,-0.874,-0.387,0.295,0.834,0.529,0.156,2434.81,0.56,-3.245,-1.343,-0.833,-0.481,0.274,0.593,-0.495,-0.635,2521.06,-2.238,-1.231,0.112,-0.203,0.673,0.712,0.296,0.728,-0.619,2462.78,-3.469,-1.343,-0.783,-0.127,-0.735,0.666,5.179,6.9,-4.547,9.752,1.42,-0.58,0.962,0.436,0.778,-0.452,10.501,-10.214,-5.053,3.847,none
4.503037,0.836,0.549,0.019,2481.11,0.56,-5.036,1.343,-0.873,-0.375,0.313,0.822,0.548,0.152,2493.11,0.671,-3.805,-0.56,-0.85,-0.469,0.239,0.585,-0.492,-0.644,2572.8,-2.238,-0.671,-0.224,-0.248,0.658,0.711,0.295,0.73,-0.617,2470.06,-3.021,-1.119,-0.448,-0.085,-0.753,0.652,5.279,6.838,-4.647,9.809,1.221,-0.534,0.885,0.44,0.771,-0.46,10.598,-10.611,-4.992,4.229,none
4.509405,0.83,0.557,0.022,2497.9,2.014,-5.26,1.679,-0.866,-0.37,0.337,0.821,0.551,0.148,2497.93,1.007,-4.476,-0.783,-0.842,-0.486,0.233,0.586,-0.49,-0.645,2585.74,-2.014,-1.119,0,-0.265,0.659,0.704,0.298,0.731,-0.614,2480.33,-2.798,-1.343,-0.783,-0.123,-0.735,0.667,5.27,6.706,-4.717,9.746,3.13,0.26,1.527,0.444,0.766,-0.466,10.532,-9.71,-4.962,4.198,none
4.509508,0.828,0.561,0.019,2481.11,1.119,-5.26,1.119,-0.826,-0.435,0.358,0.821,0.554,0.141,2486.15,1.79,-4.812,-1.119,-0.826,-0.504,0.253,0.584,-0.488,-0.648,2558.28,-2.126,-1.902,0.448,-0.262,0.64,0.722,0.296,0.733,-0.612,2459.12,-2.35,-1.231,-1.567,-0.114,-0.727,0.677,5.203,6.646,-4.628,9.626,5.023,0.702,1.847,0.442,0.764,-0.469,10.383,-8.122,-5.221,4.092,none
4.509593,0.822,0.569,0.027,2426.43,0.224,-5.26,-0.224,-0.875,-0.36,0.324,0.814,0.556,0.165,2421.4,1.902,-5.483,-1.79,-0.84,-0.475,0.262,0.585,-0.487,-0.649,2523.81,-2.238,-1.679,0.56,-0.215,0.698,0.683,0.291,0.737,-0.61,2433.67,-1.902,-1.231,-1.679,-0.118,-0.738,0.665,5.088,6.61,-4.587,9.52,6.29,0.641,1.191,0.435,0.766,-0.473,10.24,-5.954,-5.45,2.504,none
4.530154,0.824,0.565,0.04,2374.01,-0.336,-2.686,-1.455,-0.864,-0.376,0.335,0.815,0.553,0.172,2383.37,0.56,-1.79,-2.014,-0.823,-0.498,0.274,0.587,-0.484,-0.649,2495.91,-2.014,-1.007,-0.336,-0.247,0.67,0.7,0.29,0.74,-0.607,2412.98,-2.462,-0.448,-0.671,-0.113,-0.731,0.673,5.121,6.663,-4.609,9.585,7.847,-0.305,-1.588,0.436,0.768,-0.47,10.28,-3.282,-5.924,-1.084,none
4.553591,0.821,0.57,0.035,2406.54,-1.119,0.56,-1.679,-0.863,-0.395,0.314,0.813,0.557,0.171,2401.24,-0.671,0.895,-0.671,-0.817,-0.482,0.315,0.586,-0.483,-0.65,2519.61,-0.448,0.112,-1.231,-0.25,0.639,0.728,0.29,0.74,-0.607,2448.44,-0.448,1.343,0.336,-0.115,-0.731,0.673,5.289,6.728,-4.571,9.702,8.29,0.336,-2.977,0.458,0.769,-0.445,10.508,-2.855,-4.779,-2.641,none
4.577475,0.836,0.549,0.007,2480.74,0.671,3.133,-1.119,-0.867,-0.373,0.33,0.818,0.559,0.133,2480.21,0.112,3.021,0,-0.838,-0.488,0.245,0.579,-0.486,-0.654,2565.5,0.783,0.448,-1.231,-0.243,0.683,0.689,0.29,0.736,-0.612,2476.26,0.56,1.679,0,-0.113,-0.731,0.673,5.428,6.981,-4.432,9.891,6.412,0.748,-2.718,0.457,0.777,-0.433,10.633,-5.344,-4.046,-1.252,none
5.01396,0.839,0.543,0.003,2504.15,0.895,0.56,0.336,-0.856,-0.391,0.338,0.832,0.541,0.124,2510.52,0.895,0.336,0.56,-0.848,-0.464,0.256,0.571,-0.501,-0.65,2566.66,1.007,-0.671,-0.336,-0.25,0.639,0.728,0.286,0.732,-0.619,2478.47,0.895,0,-0.56,-0.152,-0.752,0.642,5.313,6.812,-4.547,9.762,4.641,1.298,-1.023,0.451,0.773,-0.446,10.51,-6.397,-3.985,0.076,none
5.014141,0.833,0.553,0.01,2478.82,1.007,-1.007,0.671,-0.886,-0.359,0.294,0.831,0.54,0.133,2492.59,0.895,-0.671,0.224,-0.841,-0.478,0.254,0.57,-0.505,-0.648,2588.92,0,-0.671,0.895,-0.254,0.635,0.73,0.289,0.728,-0.622,2451.1,-0.224,-1.343,-0.671,-0.109,-0.742,0.662,5.167,6.744,-4.563,9.644,5.023,0.763,0.153,0.447,0.773,-0.45,10.417,-5.191,-4.748,0.794,none
5.014238,0.833,0.554,0.015,2442.61,0.112,-1.007,-1.567,-0.852,-0.387,0.353,0.821,0.55,0.151,2447.74,-0.448,-1.119,-1.343,-0.838,-0.488,0.245,0.584,-0.489,-0.648,2529.34,-1.567,-0.895,1.343,-0.225,0.66,0.717,0.294,0.731,-0.616,2442.99,-0.56,-1.007,-0.448,-0.126,-0.739,0.662,5.085,6.742,-4.515,9.576,5.679,0.336,-0.092,0.443,0.777,-0.447,10.315,-5.924,-4.992,0.977,none
5.014322,0.839,0.544,0.015,2413.14,0,-1.455,-0.336,-0.846,-0.428,0.317,0.826,0.544,0.145,2421.64,0.224,-0.56,-1.455,-0.836,-0.468,0.287,0.591,-0.483,-0.646,2479.91,-1.231,-0.336,0.56,-0.227,0.676,0.702,0.291,0.735,-0.613,2439.05,-1.007,-0.56,0.112,-0.115,-0.736,0.668,5.076,6.773,-4.487,9.58,4.824,-0.275,-1.969,0.434,0.779,-0.453,10.283,-6.595,-5.191,-0.504,none
5.014414,0.833,0.552,0.028,2393.34,-0.448,-0.56,1.119,-0.861,-0.385,0.333,0.822,0.545,0.163,2398.28,-0.224,0,1.007,-0.832,-0.49,0.26,0.586,-0.491,-0.644,2499.85,0,0.671,-0.783,-0.26,0.664,0.701,0.291,0.733,-0.614,2433.91,0.448,0,0.783,-0.132,-0.729,0.671,5.09,6.732,-4.527,9.578,4.824,-0.84,-3.359,0.438,0.773,-0.459,10.327,-6.198,-5.313,-2.168,none
5.014513,0.83,0.557,0.023,2426.36,-0.336,1.231,1.343,-0.849,-0.411,0.333,0.823,0.547,0.155,2444.6,-0.56,1.343,1.567,-0.831,-0.48,0.283,0.586,-0.488,-0.647,2534.6,0.448,1.455,-1.231,-0.27,0.662,0.699,0.294,0.729,-0.619,2449.17,1.679,1.567,1.567,-0.126,-0.739,0.662,5.198,6.821,-4.52,9.694,5.16,-1.038,-3.664,0.441,0.777,-0.449,10.442,-5.588,-5.221,-2.626,none
5.014612,0.836,0.548,0.019,2468.65,-0.448,1.79,0.895,-0.88,-0.366,0.302,0.825,0.545,0.15,2472.43,-0.56,1.679,1.119,-0.834,-0.486,0.263,0.584,-0.499,-0.64,2559.06,0.671,1.567,-1.455,-0.25,0.64,0.726,0.3,0.724,-0.622,2466.88,1.679,1.455,1.455,-0.104,-0.735,0.67,5.195,6.819,-4.602,9.729,5.542,-0.977,-2.824,0.439,0.775,-0.454,10.5,-5.435,-5.267,-1.985,none
5.014692,0.838,0.546,0.019,2477.02,-0.448,1.343,0.336,-0.882,-0.345,0.321,0.827,0.543,0.146,2480.19,-0.56,1.231,0.448,-0.823,-0.498,0.274,0.586,-0.494,-0.642,2566.36,-0.336,1.007,-0.895,-0.253,0.647,0.719,0.3,0.725,-0.619,2460.68,0.56,1.007,1.007,-0.107,-0.716,0.69,5.234,6.795,-4.594,9.73,6.214,-0.748,-2.153,0.442,0.773,-0.454,10.505,-5.282,-5.481,-1.328,none
5.01477,0.833,0.553,0.015,2478.11,-1.007,0.671,0,-0.863,-0.395,0.314,0.82,0.552,0.153,2476.69,-1.007,0.448,0,-0.828,-0.492,0.27,0.588,-0.488,-0.645,2557.68,0,0.336,-0.783,-0.243,0.658,0.713,0.297,0.729,-0.616,2457.95,-0.448,0.56,0.448,-0.134,-0.73,0.671,5.203,6.778,-4.575,9.692,6.351,-0.107,-2.122,0.443,0.772,-0.456,10.477,-4.855,-5.099,-1.267,none
5.014831,0.834,0.552,0.019,2465.25,0.112,0.895,-0.56,-0.852,-0.391,0.348,0.822,0.549,0.15,2469.67,-0.336,0.895,-0.112,-0.836,-0.468,0.287,0.587,-0.49,-0.644,2544.71,0.112,0,-0.783,-0.253,0.641,0.724,0.298,0.73,-0.615,2445.22,0.336,1.007,0.224,-0.135,-0.73,0.669,5.157,6.831,-4.503,9.671,5.847,0.107,-2.168,0.44,0.779,-0.447,10.449,-5.618,-4.672,-0.824,none
5.014894,0.839,0.544,0.023,2449.57,0.448,-0.112,0.448,-0.855,-0.41,0.318,0.832,0.533,0.151,2452.23,0.448,0.671,-0.224,-0.822,-0.489,0.293,0.59,-0.493,-0.639,2532.53,0.448,-0.112,-0.671,-0.244,0.696,0.676,0.297,0.728,-0.618,2451.39,0.112,0.671,0.112,-0.124,-0.722,0.681,5.119,6.883,-4.53,9.701,4.885,-0.061,-2.137,0.435,0.783,-0.446,10.43,-6.443,-4.565,-0.763,none
5.014953,0.84,0.542,0.027,2457.37,0.336,-0.112,0.895,-0.858,-0.388,0.336,0.828,0.537,0.159,2452.38,0.336,0.224,0.56,-0.846,-0.487,0.219,0.588,-0.499,-0.637,2541.31,0.783,0.224,-0.671,-0.27,0.662,0.699,0.301,0.723,-0.621,2452.71,0.224,0.224,0.112,-0.126,-0.742,0.658,5.09,6.823,-4.578,9.666,4.366,-0.412,-1.847,0.437,0.78,-0.447,10.434,-6.885,-5.099,-0.595,none
5.015011,0.837,0.547,0.023,2455.02,-0.224,-0.783,0.671,-0.854,-0.406,0.325,0.827,0.542,0.15,2467,-0.224,0.448,0.56,-0.84,-0.474,0.265,0.589,-0.492,-0.641,2555.02,0,0.783,-0.336,-0.272,0.656,0.704,0.301,0.727,-0.617,2454.38,-0.783,0.336,0.671,-0.107,-0.744,0.66,5.162,6.828,-4.585,9.71,4.672,-0.687,-1.893,0.439,0.773,-0.458,10.475,-6.733,-5.511,-0.412,none
5.015068,0.835,0.55,0.019,2472.76,-0.448,-0.448,0.56,-0.87,-0.399,0.29,0.827,0.541,0.154,2469.34,-0.56,0,0.336,-0.833,-0.494,0.248,0.59,-0.489,-0.642,2550.6,-0.224,0.671,-0.56,-0.194,0.668,0.718,0.299,0.729,-0.616,2473.03,-0.448,0.336,0.448,-0.133,-0.734,0.667,5.224,6.802,-4.606,9.735,4.092,-0.427,-2.198,0.439,0.774,-0.455,10.486,-6.901,-5.252,-0.153,none
5.015134,0.832,0.555,0.023,2470.16,-0.112,-0.783,1.007,-0.88,-0.354,0.317,0.825,0.545,0.15,2472.43,0.336,-0.336,0.224,-0.823,-0.495,0.277,0.588,-0.488,-0.645,2557.68,0,0.336,-0.112,-0.237,0.634,0.736,0.3,0.729,-0.616,2460.93,0,-0.112,0.112,-0.126,-0.731,0.671,5.148,6.78,-4.592,9.673,5.008,0.58,-1.557,0.44,0.77,-0.461,10.476,-6.412,-4.779,-0.336,none
5.015193,0.829,0.559,0.027,2453.8,0,-0.671,0.56,-0.88,-0.348,0.323,0.82,0.55,0.158,2465.36,0.112,-0.895,0.224,-0.83,-0.484,0.276,0.586,-0.489,-0.646,2568.53,0.112,-0.112,0.224,-0.234,0.647,0.726,0.297,0.729,-0.616,2457.95,0,-0.224,-0.224,-0.127,-0.727,0.675,5.191,6.788,-4.58,9.695,5.344,0.733,-1.695,0.438,0.777,-0.452,10.417,-5.878,-4.656,-0.595,none
5.015258,0.837,0.547,0.019,2453.98,0.671,0.112,0.336,-0.849,-0.402,0.343,0.827,0.541,0.151,2454.68,0.224,0.224,0,-0.85,-0.465,0.246,0.59,-0.489,-0.643,2533.39,-0.112,-0.336,0.336,-0.22,0.662,0.717,0.297,0.729,-0.616,2457.95,-0.448,-0.224,-0.224,-0.126,-0.731,0.671,5.148,6.8,-4.499,9.642,5.328,0.397,-1.893,0.442,0.777,-0.448,10.4,-6.336,-4.763,-0.519,none
5.016797,0.836,0.549,0.019,2446.45,0.336,-0.224,0.671,-0.864,-0.383,0.328,0.823,0.547,0.151,2442.25,0.112,-0.448,0.671,-0.848,-0.469,0.248,0.583,-0.496,-0.643,2532.25,0.336,-0.112,-0.224,-0.274,0.657,0.702,0.298,0.726,-0.62,2444.85,0.336,0,-0.336,-0.158,-0.721,0.674,5.109,6.776,-4.532,9.62,4.763,0.244,-1.924,0.438,0.778,-0.45,10.374,-6.55,-5.099,-0.656,none
5.016882,0.838,0.546,0.019,2440.98,0.112,-0.112,0.895,-0.85,-0.406,0.335,0.828,0.54,0.152,2440.17,0.224,-0.112,0.448,-0.836,-0.481,0.264,0.587,-0.49,-0.644,2544.71,0,0.671,-0.112,-0.255,0.675,0.692,0.294,0.729,-0.619,2449.17,-0.224,0.112,0.336,-0.125,-0.723,0.68,5.188,6.821,-4.515,9.687,5.13,-0.198,-2.183,0.444,0.776,-0.448,10.447,-6.733,-5.389,-0.763,none
5.016948,0.837,0.547,0.015,2453.81,-0.224,-0.336,0.895,-0.883,-0.348,0.315,0.824,0.547,0.147,2463.67,-0.336,0.224,0.671,-0.822,-0.489,0.293,0.583,-0.49,-0.647,2545.32,0,0.783,-0.336,-0.236,0.68,0.694,0.295,0.73,-0.617,2470.06,-0.112,0,0.336,-0.122,-0.73,0.672,5.231,6.823,-4.551,9.728,5.023,-0.122,-2.168,0.445,0.774,-0.45,10.445,-6.87,-5.282,-0.672,none
5.030466,0.834,0.552,0.015,2465.08,-0.112,-0.112,1.007,-0.869,-0.357,0.342,0.823,0.55,0.142,2466.89,-0.56,0,0.783,-0.819,-0.487,0.302,0.583,-0.487,-0.651,2564.13,0.336,0.895,-0.112,-0.212,0.643,0.736,0.293,0.73,-0.617,2454.27,0.112,-0.112,0.448,-0.134,-0.717,0.684,5.25,6.823,-4.525,9.726,5.695,-0.031,-1.756,0.447,0.774,-0.448,10.465,-6.366,-5.206,-0.397,none
5.054035,0.834,0.552,0.015,2465.08,-0.224,-0.112,0.336,-0.868,-0.402,0.292,0.824,0.548,0.146,2477.39,-0.336,0,0.224,-0.838,-0.488,0.245,0.584,-0.488,-0.648,2558.28,0,0.336,0,-0.221,0.672,0.707,0.296,0.731,-0.615,2465.25,-0.336,-0.224,0.224,-0.145,-0.725,0.673,5.222,6.804,-4.527,9.699,5.008,0.443,-1.435,0.447,0.774,-0.447,10.46,-6.473,-5.008,-0.183,none
5.076689,0.834,0.551,0.015,2451.78,0.336,-0.671,0.56,-0.878,-0.35,0.325,0.825,0.547,0.143,2462.23,-0.112,-0.448,0.112,-0.826,-0.49,0.278,0.585,-0.487,-0.649,2540.43,0.112,0.224,0.112,-0.277,0.625,0.729,0.297,0.728,-0.618,2451.39,-0.336,-0.336,-0.224,-0.107,-0.725,0.681,5.133,6.807,-4.513,9.646,5.359,0.412,-1.359,0.442,0.776,-0.449,10.387,-6.855,-4.489,0.183,none
5.099906,0.836,0.549,0.019,2446.45,0.56,-0.671,0.671,-0.873,-0.377,0.309,0.828,0.54,0.152,2440.17,0.56,-0.112,0,-0.837,-0.458,0.301,0.586,-0.493,-0.643,2533.06,0.336,0.112,0.112,-0.224,0.662,0.715,0.297,0.728,-0.618,2451.39,-0.448,-0.336,-0.112,-0.1,-0.731,0.674,5.107,6.845,-4.503,9.655,5.573,-0.183,-1.542,0.437,0.779,-0.45,10.368,-6.611,-5.023,-0.26,none
5.522202,0.838,0.546,0.023,2440.35,0.112,-0.56,0.448,-0.858,-0.394,0.331,0.827,0.54,0.156,2442.53,-0.448,-0.112,0.112,-0.836,-0.49,0.246,0.59,-0.489,-0.643,2533.39,0,0.671,0,-0.277,0.658,0.701,0.298,0.73,-0.615,2445.22,-0.336,0.112,0.336,-0.115,-0.736,0.668,5.174,6.819,-4.539,9.689,4.916,-0.366,-1.908,0.441,0.775,-0.453,10.441,-6.168,-5.252,-0.962,none
5.522363,0.832,0.554,0.023,2457.13,0,0.56,0.671,-0.835,-0.434,0.339,0.822,0.548,0.155,2457.48,-0.224,0,0.448,-0.835,-0.5,0.231,0.588,-0.488,-0.645,2557.68,0.336,0.783,0.112,-0.263,0.682,0.682,0.297,0.731,-0.614,2451.8,-0.224,0,0.224,-0.112,-0.738,0.665,5.186,6.79,-4.578,9.693,4.977,0.092,-1.74,0.443,0.772,-0.455,10.434,-5.771,-4.977,-0.931,none
5.522451,0.835,0.55,0.019,2459.46,0.448,0.671,0,-0.864,-0.376,0.335,0.82,0.552,0.149,2475.99,-0.224,0.671,0.224,-0.828,-0.507,0.24,0.587,-0.487,-0.647,2564.14,0,0.224,-0.224,-0.189,0.681,0.707,0.297,0.728,-0.618,2451.39,0.448,0.336,0,-0.128,-0.74,0.66,5.203,6.859,-4.513,9.72,5.313,0.183,-2.076,0.446,0.779,-0.441,10.51,-5.985,-4.534,-0.504,none
5.522534,0.842,0.539,0.007,2471.69,0.56,-0.56,0.336,-0.856,-0.391,0.338,0.826,0.545,0.146,2471.1,0.224,0.224,0.112,-0.83,-0.488,0.268,0.586,-0.493,-0.643,2549.14,0.112,-0.224,-0.336,-0.213,0.654,0.726,0.297,0.729,-0.616,2457.95,-0.112,0.336,-0.224,-0.161,-0.73,0.664,5.176,6.869,-4.477,9.696,4.351,0.489,-1.374,0.443,0.782,-0.439,10.472,-7.71,-4.122,0.321,none
5.522633,0.844,0.536,0.015,2466.52,0.783,-1.567,1.231,-0.868,-0.366,0.336,0.832,0.536,0.142,2475.96,0.448,-1.007,0.336,-0.825,-0.48,0.297,0.587,-0.497,-0.639,2548.32,0.336,-0.336,0.112,-0.26,0.63,0.732,0.298,0.724,-0.622,2449.71,0.224,-0.336,-0.336,-0.127,-0.727,0.675,5.124,6.819,-4.535,9.66,4.672,0.122,-0.84,0.438,0.774,-0.457,10.437,-6.885,-4.641,0.611,none
5.52273,0.836,0.549,0.027,2446.07,0.56,-1.455,0.448,-0.86,-0.394,0.324,0.825,0.543,0.154,2460.26,0,-1.343,0,-0.833,-0.494,0.248,0.586,-0.493,-0.643,2549.14,-0.56,-0.448,0.671,-0.26,0.657,0.708,0.297,0.728,-0.618,2451.39,-0.448,-0.56,-0.56,-0.138,-0.743,0.655,5.126,6.78,-4.539,9.636,5.069,0.061,-0.702,0.44,0.775,-0.454,10.419,-5.603,-4.718,0.321,none
5.522793,0.836,0.549,0.019,2446.45,0,-0.336,-0.56,-0.865,-0.395,0.31,0.823,0.547,0.151,2442.25,0.112,-0.336,-0.671,-0.845,-0.462,0.27,0.59,-0.489,-0.643,2533.39,-0.448,-0.56,0.336,-0.226,0.668,0.709,0.298,0.73,-0.615,2445.22,-1.119,-0.336,0,-0.113,-0.738,0.665,5.128,6.883,-4.46,9.673,4.763,-0.244,-1.16,0.441,0.783,-0.439,10.461,-6.092,-4.779,0.29,none
5.522856,0.842,0.539,0.015,2452.18,0.336,-0.671,-0.224,-0.867,-0.383,0.319,0.829,0.538,0.151,2448.45,0,-0.56,-0.56,-0.854,-0.466,0.232,0.585,-0.495,-0.642,2537.5,-0.336,-0.448,-0.224,-0.245,0.639,0.729,0.297,0.729,-0.616,2457.95,-0.224,-0.336,0,-0.096,-0.745,0.66,5.167,6.881,-4.47,9.697,3.832,-0.489,-0.84,0.443,0.78,-0.442,10.449,-7.206,-4.84,0.489,none
5.52292,0.838,0.545,0.015,2463.02,0.224,-1.343,0.56,-0.867,-0.396,0.304,0.831,0.538,0.142,2468.48,0.112,-0.895,-0.112,-0.84,-0.475,0.262,0.58,-0.499,-0.644,2559.66,-0.448,-0.336,-0.112,-0.274,0.657,0.702,0.297,0.726,-0.62,2457.69,-0.448,-0.56,0.112,-0.124,-0.726,0.676,5.2,6.8,-4.575,9.706,4.229,-0.672,-0.336,0.445,0.775,-0.449,10.471,-7.038,-4.901,1.13,none
5.522983,0.837,0.548,0.015,2468.49,0.112,-1.902,-0.112,-0.871,-0.38,0.311,0.825,0.546,0.149,2486.13,0.112,-1.231,-0.783,-0.835,-0.459,0.303,0.581,-0.492,-0.648,2574.08,-1.007,-0.112,0.336,-0.222,0.697,0.682,0.297,0.729,-0.616,2457.95,-1.007,-0.783,0.224,-0.118,-0.741,0.661,5.215,6.795,-4.542,9.695,5.298,-0.519,0.137,0.447,0.772,-0.451,10.449,-6.122,-5.023,1.206,none
5.523045,0.834,0.552,0.011,2464.13,-0.112,-1.455,-0.783,-0.874,-0.368,0.317,0.821,0.552,0.146,2474.67,-0.671,-1.455,-1.231,-0.828,-0.483,0.285,0.59,-0.485,-0.646,2552.82,-1.567,-0.783,0.671,-0.227,0.641,0.733,0.297,0.731,-0.614,2451.8,-1.567,-0.783,0,-0.138,-0.739,0.659,5.174,6.814,-4.554,9.692,5.634,-0.046,0.366,0.444,0.776,-0.448,10.433,-5.786,-5.084,1.45,none
5.523117,0.836,0.549,0.015,2446.28,0.224,-1.679,-1.007,-0.871,-0.386,0.303,0.824,0.545,0.151,2451.31,0.336,-1.455,-1.567,-0.827,-0.501,0.257,0.59,-0.484,-0.646,2535.61,-1.567,-1.007,0.671,-0.251,0.634,0.732,0.297,0.735,-0.609,2453.01,-1.231,-0.895,-0.336,-0.12,-0.754,0.646,5.114,6.788,-4.573,9.651,5.298,0.153,-0.198,0.439,0.775,-0.454,10.423,-6.031,-5.176,0.916,none
5.523173,0.836,0.548,0.023,2432.81,0.112,-1.455,-0.224,-0.86,-0.372,0.35,0.823,0.546,0.156,2431.46,-0.112,-1.679,-1.007,-0.836,-0.483,0.261,0.596,-0.483,-0.641,2523.83,-1.007,-0.448,0.336,-0.275,0.643,0.715,0.297,0.735,-0.609,2453.01,-0.671,-0.783,-0.448,-0.125,-0.724,0.679,5.1,6.773,-4.58,9.636,5.634,0,-1.237,0.442,0.774,-0.452,10.409,-6.168,-5.16,0.137,none
5.52383,0.835,0.551,0.019,2437.26,-0.336,-1.119,0.224,-0.862,-0.378,0.338,0.821,0.548,0.16,2437.96,0.112,-1.455,-0.56,-0.821,-0.494,0.286,0.592,-0.479,-0.648,2543.18,-0.448,0.224,-0.224,-0.247,0.67,0.7,0.296,0.737,-0.608,2460.37,-0.56,0,0,-0.117,-0.728,0.676,5.272,6.84,-4.539,9.757,5.649,0.198,-2.122,0.451,0.772,-0.448,10.525,-6.336,-5.038,-0.412,none
5.523919,0.832,0.554,0.007,2492.6,0,-0.671,0.895,-0.857,-0.407,0.316,0.822,0.552,0.137,2493.79,0.671,-1.119,1.119,-0.837,-0.472,0.275,0.585,-0.485,-0.65,2553.42,0.336,0.112,-0.224,-0.239,0.671,0.702,0.296,0.735,-0.61,2466.46,0.112,0.336,-0.224,-0.136,-0.734,0.665,5.274,6.814,-4.523,9.732,5.069,1.038,-1.573,0.454,0.774,-0.441,10.532,-7.069,-4.519,0.55,none
5.523997,0.841,0.542,0.007,2477.09,1.007,-1.679,1.119,-0.864,-0.376,0.335,0.829,0.546,0.125,2487.27,2.35,-2.35,0.671,-0.836,-0.483,0.261,0.582,-0.489,-0.649,2568.52,0.448,-1.119,0.448,-0.245,0.637,0.731,0.293,0.73,-0.617,2454.27,0.671,-0.224,-1.119,-0.143,-0.741,0.656,5.107,6.831,-4.451,9.62,4.855,1.069,-1.008,0.446,0.781,-0.437,10.397,-7.405,-4.611,1.298,none
5.524064,0.843,0.538,0.015,2437.53,-0.112,-2.798,0.56,-0.853,-0.394,0.342,0.831,0.536,0.149,2419.76,2.686,-4.476,0.783,-0.837,-0.487,0.249,0.587,-0.496,-0.64,2515.59,0.448,-0.671,0.112,-0.239,0.668,0.704,0.29,0.726,-0.623,2444.56,-0.224,-0.56,-0.895,-0.123,-0.735,0.667,5.033,6.819,-4.453,9.574,4.992,0.153,-1.374,0.436,0.785,-0.44,10.305,-7.664,-4.916,0.489,none
5.525313,0.842,0.539,0.019,2416.85,-0.336,-2.35,1.119,-0.854,-0.422,0.303,0.829,0.537,0.157,2415.2,1.119,-3.469,0.671,-0.815,-0.504,0.286,0.585,-0.498,-0.641,2525.18,0.336,0.112,0.112,-0.257,0.636,0.728,0.295,0.725,-0.622,2433.9,-0.448,-0.112,0.224,-0.129,-0.737,0.664,5.114,6.809,-4.515,9.639,5.344,-0.992,-2.183,0.442,0.783,-0.438,10.375,-8.321,-5.725,0.305,none
5.525374,0.844,0.536,0.011,2445.84,-0.56,-2.014,2.014,-0.86,-0.373,0.348,0.83,0.54,0.139,2457.94,0.56,-1.679,0.895,-0.832,-0.48,0.28,0.589,-0.487,-0.645,2539.83,0.112,1.007,-0.448,-0.267,0.654,0.708,0.293,0.73,-0.617,2454.27,-0.56,0.448,0.783,-0.134,-0.742,0.657,5.279,6.835,-4.537,9.756,5.511,-0.718,-1.908,0.451,0.771,-0.449,10.516,-8.183,-5.71,0.153,none
5.536547,0.831,0.556,0.01,2483.53,-0.56,-1.567,1.679,-0.863,-0.368,0.346,0.822,0.553,0.136,2506.99,0.112,-2.126,1.567,-0.829,-0.479,0.288,0.583,-0.487,-0.65,2580.84,0.112,0.783,-0.56,-0.241,0.663,0.709,0.296,0.735,-0.61,2466.46,-1.007,0.448,0.112,-0.131,-0.725,0.677,5.339,6.823,-4.573,9.797,5.511,0.168,-1.099,0.457,0.77,-0.445,10.544,-7.191,-5.023,0.779,none
5.56011,0.83,0.557,0.01,2497.41,0,-1.902,0.448,-0.851,-0.376,0.365,0.822,0.552,0.137,2493.79,0.895,-2.574,0,-0.833,-0.458,0.312,0.581,-0.488,-0.652,2575.03,0.112,-0.224,-0.112,-0.26,0.664,0.701,0.29,0.736,-0.612,2476.26,-1.231,-0.112,-0.56,-0.119,-0.742,0.66,5.231,6.847,-4.42,9.684,5.038,1.099,-0.427,0.452,0.776,-0.439,10.468,-6.58,-4.168,0.947,none
5.583553,0.84,0.542,0.007,2457.38,0.671,-1.902,-0.112,-0.861,-0.398,0.316,0.826,0.546,0.139,2447.1,1.343,-2.238,-0.56,-0.838,-0.478,0.264,0.585,-0.491,-0.645,2539.5,-0.112,-1.231,0.336,-0.268,0.648,0.713,0.291,0.732,-0.617,2440.07,-0.783,-0.112,-1.119,-0.126,-0.735,0.667,5.054,6.773,-4.472,9.562,4.901,0.382,-0.519,0.444,0.782,-0.437,10.297,-6.702,-4.58,0.84,none
5.606422,0.847,0.532,0.007,2413.36,0.224,-2.238,0.336,-0.853,-0.374,0.363,0.835,0.535,0.133,2409.59,0.783,-1.455,-0.336,-0.824,-0.481,0.3,0.585,-0.494,-0.643,2505.42,-0.336,-0.895,0,-0.208,0.656,0.725,0.295,0.729,-0.618,2434.97,-0.336,0.224,-0.224,-0.105,-0.736,0.668,5.049,6.78,-4.463,9.56,4.962,-1.115,-1.328,0.441,0.784,-0.438,10.288,-7.328,-5.481,0.29,none
6.032301,0.841,0.541,0.015,2407.42,0.224,-1.679,1.231,-0.845,-0.388,0.367,0.826,0.543,0.154,2409.95,0,-1.119,0.671,-0.83,-0.47,0.3,0.588,-0.489,-0.645,2511.52,-0.56,0.895,-0.671,-0.25,0.653,0.715,0.295,0.736,-0.609,2436.6,-0.56,0.448,0.783,-0.145,-0.742,0.655,5.174,6.764,-4.549,9.654,5.221,-1.664,-2.443,0.447,0.772,-0.451,10.42,-7.13,-5.71,-0.763,none
6.033835,0.832,0.554,0.015,2455.92,-0.112,0,1.679,-0.86,-0.394,0.324,0.823,0.551,0.138,2479.23,0,0.336,1.343,-0.855,-0.462,0.235,0.591,-0.482,-0.647,2547.33,0.56,1.231,-1.343,-0.25,0.639,0.728,0.296,0.733,-0.612,2459.12,-0.895,1.679,0.783,-0.123,-0.73,0.672,5.303,6.852,-4.518,9.772,5.649,-0.947,-2.366,0.456,0.772,-0.442,10.548,-6.244,-5.282,-0.58,none
6.033906,0.835,0.55,0.007,2493.76,0,-0.336,0.56,-0.867,-0.359,0.345,0.824,0.551,0.132,2499.86,0.448,0.112,0.671,-0.834,-0.472,0.286,0.582,-0.49,-0.649,2586.38,0.224,0.336,-0.895,-0.261,0.686,0.679,0.299,0.732,-0.612,2475.54,0.224,1.119,0.336,-0.163,-0.714,0.681,5.284,6.924,-4.434,9.774,4.626,-0.198,-1.863,0.455,0.777,-0.436,10.528,-6.305,-4.412,0.031,none
6.033981,0.841,0.542,0.007,2477.09,0.895,-0.895,0.448,-0.865,-0.361,0.349,0.83,0.543,0.129,2482.15,1.119,-0.336,-0.112,-0.827,-0.473,0.304,0.585,-0.492,-0.645,2556.22,0.336,-0.56,-0.56,-0.236,0.68,0.694,0.297,0.729,-0.616,2457.95,0.112,0.671,-0.112,-0.147,-0.738,0.658,5.164,6.835,-4.523,9.687,4.519,0.031,-0.84,0.445,0.782,-0.436,10.406,-6.901,-4.473,0.687,none
6.034064,0.844,0.536,0.011,2432.57,0.56,-1.567,0.671,-0.859,-0.413,0.303,0.835,0.534,0.136,2432.97,0.783,-1.007,-0.112,-0.829,-0.475,0.296,0.589,-0.491,-0.642,2521.07,-0.671,-0.336,-0.112,-0.241,0.663,0.709,0.294,0.731,-0.616,2442.99,-0.336,-0.224,-0.112,-0.127,-0.735,0.666,5.104,6.809,-4.506,9.629,4.565,-0.809,-1.298,0.444,0.778,-0.445,10.356,-6.702,-5.267,0.26,none
6.034137,0.842,0.54,0.011,2428.98,-0.336,-1.231,0.671,-0.857,-0.394,0.334,0.829,0.541,0.144,2437.36,-0.112,-1.007,0.112,-0.822,-0.475,0.313,0.585,-0.495,-0.642,2537.5,-0.56,0.671,-0.895,-0.266,0.652,0.71,0.3,0.73,-0.615,2432.51,-0.671,0.448,0.448,-0.136,-0.734,0.665,5.15,6.835,-4.554,9.694,5.466,-1.099,-1.817,0.446,0.776,-0.446,10.442,-6.382,-5.985,-0.321,none
6.034206,0.836,0.549,0.015,2446.28,-0.895,-0.56,0.448,-0.876,-0.362,0.318,0.823,0.548,0.151,2456.78,-0.783,-0.112,0.56,-0.83,-0.484,0.276,0.598,-0.473,-0.647,2532.96,-0.224,1.119,-0.224,-0.251,0.634,0.732,0.3,0.736,-0.607,2463.35,-0.336,0.56,0.783,-0.123,-0.73,0.672,5.239,6.802,-4.578,9.73,4.916,-0.092,-2.214,0.454,0.772,-0.444,10.497,-6.336,-4.809,-0.84,none
6.034268,0.838,0.546,0.007,2476.65,0.671,0.336,0.895,-0.872,-0.387,0.301,0.821,0.554,0.133,2483.4,0.112,0.448,0.671,-0.836,-0.477,0.272,0.588,-0.484,-0.648,2559.29,0.56,0.448,-0.783,-0.208,0.643,0.737,0.3,0.736,-0.607,2463.35,0.56,0.783,-0.224,-0.157,-0.741,0.653,5.253,6.819,-4.537,9.73,5.985,0.473,-2.076,0.451,0.773,-0.445,10.508,-6.214,-4.519,-0.366,none
6.034332,0.838,0.546,0.011,2475.9,1.119,-0.224,0.448,-0.849,-0.399,0.347,0.826,0.546,0.138,2468.26,0.895,0.224,0.224,-0.841,-0.47,0.269,0.584,-0.495,-0.644,2560.51,0.671,-0.112,-0.56,-0.27,0.643,0.717,0.3,0.729,-0.616,2460.93,-0.56,0.783,-0.448,-0.126,-0.735,0.667,5.155,6.833,-4.525,9.682,5.924,0.763,-1.359,0.447,0.78,-0.438,10.429,-5.71,-4.397,-0.092,none
6.034979,0.843,0.537,0.007,2460.41,0.783,-0.336,0,-0.844,-0.395,0.364,0.837,0.533,0.126,2473.74,0.895,-0.448,-0.783,-0.831,-0.465,0.306,0.584,-0.494,-0.644,2543.93,0.224,-0.448,0,-0.257,0.67,0.697,0.298,0.73,-0.615,2445.22,-0.56,-0.112,-0.56,-0.13,-0.732,0.668,5.121,6.864,-4.427,9.641,5.71,0.275,-1.084,0.447,0.784,-0.431,10.405,-6.092,-5.13,0.092,none
6.035048,0.844,0.536,0.011,2432.57,-0.224,-1.007,0,-0.87,-0.365,0.333,0.825,0.545,0.148,2435.98,-0.336,-1.455,0,-0.823,-0.48,0.303,0.59,-0.488,-0.643,2516.82,-0.336,-0.112,0.56,-0.243,0.658,0.713,0.298,0.733,-0.611,2445.67,-0.56,-0.112,-0.224,-0.145,-0.746,0.65,5.124,6.845,-4.48,9.653,4.931,-0.183,-1.405,0.449,0.778,-0.44,10.391,-6.611,-4.916,-0.229,none
6.035122,0.84,0.543,0.011,2434.4,0.336,-0.783,0.671,-0.854,-0.396,0.336,0.831,0.54,0.135,2442.86,-0.112,0.112,0.448,-0.829,-0.502,0.246,0.59,-0.489,-0.643,2533.39,-0.56,0.56,0,-0.264,0.613,0.744,0.294,0.736,-0.61,2449.32,-0.448,-0.224,0.224,-0.114,-0.751,0.65,5.148,6.862,-4.496,9.685,4.718,-0.427,-2.046,0.447,0.778,-0.442,10.417,-6.794,-5.13,-0.58,none
6.035191,0.839,0.544,0.007,2448.15,-0.112,-0.671,1.007,-0.866,-0.37,0.337,0.825,0.547,0.139,2460.82,-0.448,0.112,0.671,-0.836,-0.481,0.264,0.587,-0.49,-0.644,2544.71,0.56,0.671,-0.112,-0.251,0.647,0.72,0.296,0.735,-0.61,2466.46,0.336,0.448,0.56,-0.136,-0.734,0.665,5.193,6.838,-4.499,9.693,4.947,-0.366,-2.351,0.451,0.775,-0.443,10.439,-6.244,-5.008,-1.145,none
6.035256,0.838,0.546,0.007,2476.65,-0.448,-0.112,1.231,-0.859,-0.391,0.332,0.829,0.544,0.13,2474.68,-0.224,0.895,0.895,-0.83,-0.494,0.258,0.584,-0.495,-0.644,2560.51,0.671,0.56,-0.224,-0.247,0.672,0.698,0.297,0.729,-0.616,2457.95,0.336,0.56,0.56,-0.14,-0.715,0.685,5.203,6.881,-4.48,9.72,4.962,-0.382,-1.893,0.454,0.778,-0.434,10.51,-6.183,-4.885,-0.473,none
6.035325,0.842,0.539,0.007,2471.69,0.224,-0.224,0.448,-0.885,-0.317,0.342,0.832,0.54,0.13,2476.73,0.112,-0.112,0,-0.821,-0.485,0.302,0.585,-0.492,-0.644,2572.8,0,0.224,-0.224,-0.219,0.639,0.737,0.296,0.731,-0.615,2465.25,-0.336,0.112,0.224,-0.135,-0.73,0.669,5.224,6.876,-4.472,9.725,4.763,0,-0.87,0.452,0.78,-0.432,10.504,-6.565,-4.901,0.26,none
6.035395,0.842,0.539,0.007,2471.69,0.112,-1.343,0.336,-0.871,-0.359,0.336,0.83,0.543,0.129,2482.15,0.224,-0.56,-0.448,-0.829,-0.475,0.296,0.585,-0.492,-0.645,2556.22,-0.671,-0.224,0.336,-0.204,0.68,0.705,0.296,0.733,-0.612,2459.12,-0.56,-0.56,0,-0.138,-0.739,0.659,5.241,6.888,-4.468,9.74,4.687,0.061,-0.504,0.454,0.777,-0.435,10.484,-6.641,-5.084,0.733,none
6.03546,0.838,0.546,0.007,2476.65,0,-1.567,0.336,-0.864,-0.338,0.373,0.826,0.549,0.126,2470.72,0.112,-1.455,0,-0.834,-0.476,0.278,0.583,-0.49,-0.647,2545.32,-0.224,-0.336,0.671,-0.273,0.641,0.717,0.297,0.735,-0.609,2453.01,-0.56,-0.671,-0.336,-0.117,-0.736,0.667,5.198,6.804,-4.523,9.684,4.794,0.473,-0.214,0.455,0.776,-0.437,10.426,-6.855,-4.779,1.053,none
6.036984,0.836,0.549,0.007,2446.07,0.336,-1.902,0.448,-0.864,-0.383,0.326,0.826,0.547,0.135,2445.73,0.671,-1.902,-0.224,-0.828,-0.478,0.294,0.589,-0.481,-0.649,2553.82,-0.448,-0.448,0.783,-0.25,0.653,0.715,0.294,0.736,-0.61,2449.32,-0.224,-0.671,-0.56,-0.147,-0.738,0.658,5.114,6.778,-4.525,9.621,5.313,0.351,-0.748,0.449,0.776,-0.442,10.373,-6.656,-4.489,0.748,none
6.037064,0.84,0.543,0.011,2434.4,1.119,-1.455,0.112,-0.865,-0.376,0.332,0.825,0.548,0.141,2424.84,0.224,-1.79,-0.448,-0.841,-0.465,0.277,0.592,-0.483,-0.645,2523.67,-0.448,-0.448,0.112,-0.217,0.617,0.756,0.295,0.736,-0.609,2436.6,-0.56,0,-0.336,-0.127,-0.735,0.666,5.112,6.826,-4.477,9.632,6,-0.031,-1.725,0.447,0.778,-0.441,10.352,-5.969,-4.992,-0.351,none
6.047635,0.842,0.54,0.011,2428.98,0.112,-0.671,0.224,-0.862,-0.383,0.331,0.829,0.541,0.144,2437.36,0,-0.336,-0.112,-0.836,-0.487,0.252,0.587,-0.49,-0.644,2528.14,-0.224,0.112,-0.336,-0.247,0.618,0.746,0.297,0.735,-0.609,2453.01,-0.112,0.56,0.112,-0.106,-0.715,0.691,5.217,6.857,-4.482,9.712,5.954,-0.168,-2.26,0.456,0.778,-0.432,10.49,-6.458,-5.053,-0.58,none
6.072371,0.844,0.537,0.003,2480.07,-0.336,-0.56,0.895,-0.875,-0.354,0.331,0.829,0.546,0.125,2487.27,0.224,-0.56,0.56,-0.816,-0.477,0.327,0.586,-0.489,-0.646,2568.53,0.448,0.112,-0.336,-0.215,0.638,0.739,0.296,0.733,-0.612,2459.12,0.224,0.336,-0.112,-0.134,-0.739,0.661,5.215,6.867,-4.482,9.717,5.817,0.183,-1.481,0.451,0.775,-0.442,10.47,-6.565,-4.87,0.092,none
6.093539,0.838,0.545,0.007,2462.82,0,-1.343,0.895,-0.875,-0.36,0.324,0.83,0.541,0.134,2470.57,0.671,-1.679,0,-0.834,-0.476,0.278,0.581,-0.496,-0.645,2572.55,-0.112,-0.112,-0.112,-0.234,0.685,0.69,0.296,0.733,-0.612,2459.12,-0.448,0.112,-0.224,-0.109,-0.733,0.671,5.191,6.847,-4.477,9.689,6.107,-0.015,-1.038,0.452,0.778,-0.437,10.425,-5.542,-5.252,0.122,none
6.11532,0.838,0.545,0.007,2462.82,-0.448,-0.56,-0.671,-0.863,-0.368,0.346,0.827,0.546,0.134,2466.89,-0.224,-1.119,-0.895,-0.83,-0.47,0.302,0.586,-0.489,-0.646,2551.81,-0.783,-0.112,0.112,-0.23,0.671,0.705,0.296,0.733,-0.612,2459.12,-1.119,-0.336,0,-0.129,-0.737,0.664,5.2,6.862,-4.472,9.702,6.107,-0.229,-1.008,0.454,0.778,-0.435,10.428,-5.511,-5.359,0.061,none
6.541781,0.84,0.542,0.007,2457.38,-0.336,-0.56,-0.448,-0.866,-0.383,0.322,0.828,0.545,0.131,2452.67,-0.336,-1.007,-0.448,-0.824,-0.477,0.307,0.589,-0.487,-0.645,2539.83,-0.895,-0.224,0,-0.27,0.643,0.717,0.297,0.735,-0.609,2453.01,-0.671,-0.224,0.112,-0.139,-0.743,0.654,5.25,6.831,-4.501,9.72,5.939,-0.076,-1.359,0.457,0.773,-0.44,10.446,-5.13,-5.053,-0.458,none
6.541905,0.835,0.55,0.007,2459.09,-0.56,-0.224,-0.448,-0.851,-0.396,0.345,0.822,0.553,0.138,2471.83,0,-0.448,-0.112,-0.833,-0.481,0.274,0.587,-0.486,-0.647,2546.93,-0.336,-0.671,0.448,-0.239,0.629,0.74,0.296,0.737,-0.608,2460.37,0.783,-0.112,-0.224,-0.143,-0.746,0.651,5.179,6.792,-4.551,9.678,6.214,0.809,-0.885,0.454,0.776,-0.438,10.463,-4.489,-4.489,-0.122,none
6.541997,0.84,0.542,0.007,2457.38,0.224,0.224,-1.119,-0.863,-0.395,0.314,0.83,0.541,0.135,2456.57,0.895,0,-0.895,-0.843,-0.471,0.26,0.59,-0.485,-0.646,2552.82,-0.224,-1.007,0.56,-0.25,0.653,0.715,0.301,0.73,-0.613,2454.79,0,-0.448,-0.671,-0.134,-0.721,0.68,5.126,6.852,-4.511,9.673,6.885,0.763,-0.901,0.441,0.781,-0.442,10.375,-4.244,-4.779,-0.198,none
6.542097,0.843,0.538,0.015,2437.53,0.112,-0.112,-1.231,-0.851,-0.376,0.365,0.831,0.539,0.14,2444.24,0.224,-0.112,-0.671,-0.842,-0.475,0.257,0.59,-0.489,-0.643,2533.39,-0.336,-0.671,0.56,-0.225,0.649,0.727,0.302,0.732,-0.611,2448.67,-0.56,-0.448,-0.448,-0.14,-0.728,0.671,5.085,6.797,-4.559,9.635,7.405,0.351,-1.74,0.443,0.778,-0.446,10.363,-3.832,-5.282,-1.42,none
6.542181,0.836,0.548,0.015,2431.6,-0.336,1.343,-1.007,-0.87,-0.354,0.343,0.828,0.542,0.144,2429.91,-0.783,1.79,0,-0.822,-0.485,0.297,0.592,-0.483,-0.645,2541.52,-0.224,0.224,0,-0.209,0.654,0.727,0.297,0.735,-0.609,2453.01,-0.224,0,0.224,-0.139,-0.756,0.64,5.155,6.8,-4.551,9.671,8.214,0.122,-2.656,0.449,0.776,-0.443,10.426,-3.42,-5.298,-2.198,none
6.542259,0.839,0.544,0.007,2448.15,-0.336,2.462,-1.119,-0.862,-0.391,0.322,0.824,0.549,0.139,2452.58,-0.895,2.686,-0.336,-0.829,-0.479,0.288,0.588,-0.483,-0.648,2541.44,0,0.448,-0.56,-0.27,0.662,0.699,0.296,0.737,-0.608,2460.37,0.336,0.783,0.448,-0.14,-0.764,0.63,5.229,6.886,-4.432,9.716,7.878,0.244,-2.947,0.456,0.778,-0.433,10.473,-3.756,-4.443,-2.351,none
6.542336,0.843,0.537,0.007,2460.41,0.112,2.574,-0.783,-0.856,-0.377,0.354,0.826,0.548,0.131,2458.13,-0.56,3.245,-0.112,-0.827,-0.482,0.29,0.587,-0.486,-0.647,2546.93,0.336,0.224,-0.671,-0.236,0.64,0.731,0.296,0.733,-0.612,2459.12,0.336,0.783,0.224,-0.14,-0.74,0.658,5.138,6.855,-4.482,9.668,6.687,0.458,-2.779,0.449,0.781,-0.435,10.432,-4.489,-4.137,-2.336,none
6.542413,0.844,0.536,0.007,2446.6,0.671,2.014,-0.112,-0.88,-0.348,0.323,0.835,0.535,0.131,2445.32,0,2.798,0,-0.848,-0.469,0.248,0.586,-0.493,-0.643,2533.06,0.56,0.224,-0.448,-0.245,0.637,0.731,0.298,0.733,-0.611,2445.67,0.56,0.56,0.224,-0.127,-0.727,0.675,5.1,6.792,-4.513,9.618,6.916,0.137,-2.733,0.444,0.777,-0.446,10.358,-4.183,-4.489,-2.565,none
6.542495,0.838,0.545,0.015,2426.14,-0.112,2.238,-0.112,-0.838,-0.434,0.331,0.824,0.548,0.144,2439.44,-0.783,2.686,0.448,-0.842,-0.465,0.272,0.587,-0.49,-0.644,2544.71,0.224,0.671,-0.783,-0.277,0.639,0.717,0.296,0.734,-0.611,2429.99,0.783,1.231,0.671,-0.143,-0.717,0.683,5.08,6.756,-4.566,9.608,7.466,-0.504,-3.298,0.444,0.777,-0.446,10.353,-3.298,-5.099,-3.145,none
6.542578,0.837,0.547,0.019,2418.77,-0.895,2.574,-0.783,-0.877,-0.371,0.306,0.826,0.544,0.145,2421.64,-1.119,3.357,-0.224,-0.829,-0.475,0.294,0.594,-0.48,-0.646,2518.86,0,1.007,-1.231,-0.263,0.7,0.664,0.299,0.735,-0.609,2438.84,0.336,1.567,1.231,-0.126,-0.735,0.667,5.092,6.783,-4.511,9.607,8.061,-0.87,-4.015,0.445,0.777,-0.446,10.358,-3.008,-5.527,-4.092,none
6.542641,0.837,0.547,0.011,2417.63,-1.231,4.141,-0.671,-0.845,-0.407,0.347,0.823,0.55,0.144,2431.21,-1.455,4.476,0.448,-0.813,-0.494,0.31,0.591,-0.481,-0.647,2530.14,0.783,1.679,-2.014,-0.254,0.667,0.7,0.294,0.738,-0.608,2443.97,0.56,2.014,1.79,-0.118,-0.753,0.648,5.085,6.744,-4.551,9.595,8.397,-1.42,-4.931,0.447,0.777,-0.444,10.331,-2.55,-5.542,-4.901,none
6.542703,0.839,0.545,0.011,2426.85,-1.455,4.812,-0.783,-0.87,-0.373,0.321,0.826,0.546,0.14,2433.1,-1.343,4.812,0.448,-0.842,-0.462,0.28,0.59,-0.484,-0.646,2535.61,0.671,1.79,-2.91,-0.249,0.667,0.703,0.295,0.736,-0.609,2436.6,0.895,2.798,2.126,-0.154,-0.72,0.677,5.071,6.783,-4.53,9.604,8.702,-2.076,-5.298,0.443,0.783,-0.437,10.325,-2.824,-6.321,-5.038,none
