0.012761,BNO0_UnitAccX,BNO0_UnitAccY,BNO0_UnitAccZ,BNO0_RawAccMag,BNO0_GyrX,BNO0_GyrY,BNO0_GyrZ,BNO0_MagX,BNO0_MagY,BNO0_MagZ,BNO1_UnitAccX,BNO1_UnitAccY,BNO1_UnitAccZ,BNO1_RawAccMag,BNO1_GyrX,BNO1_GyrY,BNO1_GyrZ,BNO1_MagX,BNO1_MagY,BNO1_MagZ,BNO2_UnitAccX,BNO2_UnitAccY,BNO2_UnitAccZ,BNO2_RawAccMag,BNO2_GyrX,BNO2_GyrY,BNO2_GyrZ,BNO2_MagX,BNO2_MagY,BNO2_MagZ,BNO3_UnitAccX,BNO3_UnitAccY,BNO3_UnitAccZ,BNO3_RawAccMag,BNO3_GyrX,BNO3_GyrY,BNO3_GyrZ,BNO3_MagX,BNO3_MagY,BNO3_MagZ,MPU0_UnitAccX,MPU0_UnitAccY,MPU0_UnitAccZ,MPU0_RawAccMag,MPU0_GyrX,MPU0_GyrY,MPU0_GyrZ,MPU1_UnitAccX,MPU1_UnitAccY,MPU1_UnitAccZ,MPU1_RawAccMag,MPU1_GyrX,MPU1_GyrY,MPU1_GyrZ,none
0.013060,0.583,0.134,-0.801,2529.60,20.926,0.448,-23.724,-0.471,-0.462,0.751,0.489,-0.092,-0.867,2320.72,9.064,16.674,-33.012,-0.737,-0.222,0.638,0.253,-0.565,-0.785,2667.53,9.400,-5.148,-9.288,0.691,0.565,0.450,-0.417,0.158,-0.895,2616.61,1.790,-9.288,-18.241,-0.047,0.610,0.791,0.217,0.083,0.973,11.760,-11.481,-10.443,6.916,0.651,0.460,0.604,11.476,-4.702,0.122,34.687,none
0.029567,0.605,0.061,-0.794,3022.24,15.779,-0.895,-41.405,-0.473,-0.448,0.759,0.518,-0.039,-0.855,2457.03,7.162,27.081,-55.393,-0.745,-0.226,0.628,0.271,-0.551,-0.789,2642.21,10.072,-11.526,-8.729,0.651,0.546,0.528,-0.405,0.178,-0.897,2720.13,-29.207,-16.114,-25.962,-0.030,0.597,0.802,0.310,0.075,0.948,12.730,-17.481,-19.511,7.527,0.687,0.428,0.588,12.503,-6.427,8.534,53.618,none
0.486116,0.564,0.140,-0.814,3139.73,12.086,-19.136,-49.239,-0.468,-0.464,0.752,0.503,0.011,-0.864,2839.06,27.081,38.943,-89.301,-0.739,-0.245,0.628,0.214,-0.571,-0.793,2654.75,23.724,-14.324,-4.588,0.694,0.551,0.463,-0.473,0.233,-0.850,2744.09,-43.867,-24.060,-46.889,-0.023,0.570,0.821,0.381,0.068,0.922,12.748,-22.626,-9.252,28.000,0.696,0.407,0.591,10.985,-2.382,24.977,61.939,none
0.486759,0.535,0.138,-0.834,2593.63,38.160,-25.515,-52.260,-0.455,-0.486,0.746,0.492,-0.049,-0.869,2744.34,50.470,37.041,-98.701,-0.741,-0.253,0.622,0.217,-0.531,-0.819,2483.75,30.662,-14.883,-1.567,0.623,0.566,0.540,-0.497,0.249,-0.831,2805.61,-46.441,-22.157,-57.184,-0.015,0.549,0.836,0.436,0.065,0.898,11.488,-14.977,1.466,47.588,0.741,0.405,0.535,10.886,10.962,22.794,67.847,none
0.486940,0.544,0.242,-0.803,2534.00,44.091,-14.660,-63.674,-0.438,-0.461,0.772,0.554,-0.028,-0.832,2383.63,55.953,42.412,-104.520,-0.737,-0.255,0.626,0.223,-0.560,-0.798,2587.25,47.112,-15.219,-21.150,0.610,0.575,0.545,-0.490,0.265,-0.830,3044.58,-48.791,-23.948,-64.682,0.009,0.516,0.857,0.540,0.095,0.836,11.585,25.695,9.420,75.221,0.740,0.425,0.522,11.123,33.008,33.664,66.916,none
0.487084,0.540,0.201,-0.817,2513.79,60.989,9.176,-70.724,-0.426,-0.464,0.777,0.569,-0.054,-0.820,2666.91,59.982,60.877,-115.823,-0.729,-0.221,0.648,0.263,-0.502,-0.824,2980.95,47.448,-14.100,-22.941,0.653,0.582,0.486,-0.509,0.283,-0.813,3124.26,-42.300,-14.100,-71.844,0.011,0.487,0.873,0.561,0.149,0.814,11.784,86.321,20.947,124.687,0.730,0.434,0.528,11.330,56.534,45.481,56.153,none
0.487217,0.557,0.102,-0.824,3123.38,69.270,22.157,-68.151,-0.414,-0.452,0.790,0.581,-0.035,-0.813,2982.44,70.613,67.927,-106.982,-0.731,-0.210,0.649,0.301,-0.444,-0.844,2865.32,46.441,-19.919,-37.377,0.587,0.622,0.517,-0.510,0.374,-0.775,3099.62,-55.953,7.610,-79.006,0.030,0.457,0.889,0.501,0.277,0.820,11.458,137.313,45.588,152.992,0.744,0.480,0.464,10.466,72.855,58.260,40.962,none
0.487347,0.558,0.172,-0.812,2592.63,76.432,15.443,-50.470,-0.413,-0.460,0.786,0.603,-0.009,-0.798,2939.95,90.756,64.346,-85.944,-0.717,-0.246,0.652,0.364,-0.395,-0.843,2447.26,49.127,-15.667,-66.584,0.557,0.624,0.548,-0.499,0.407,-0.765,3305.30,-45.993,32.229,-82.586,0.069,0.381,0.922,0.466,0.372,0.802,11.666,186.809,70.931,160.641,0.866,0.477,0.152,9.204,114.656,67.725,13.466,none
0.487494,0.508,0.607,-0.611,2191.64,71.284,39.055,-43.867,-0.419,-0.429,0.800,0.682,0.119,-0.721,2583.97,95.456,74.753,-68.151,-0.745,-0.190,0.639,0.455,-0.339,-0.823,2734.18,66.584,5.595,-95.120,0.469,0.647,0.601,-0.482,0.441,-0.757,3364.41,-34.691,74.082,-92.994,0.097,0.318,0.943,0.446,0.424,0.789,13.129,226.977,110.794,170.336,0.901,0.422,-0.100,10.197,204.809,107.603,-15.481,none
0.487645,0.450,0.721,-0.527,2169.85,76.544,105.080,-71.396,-0.377,-0.425,0.823,0.598,0.447,-0.665,2506.57,108.325,99.708,-75.201,-0.748,-0.194,0.634,0.533,-0.325,-0.781,2794.11,93.441,7.498,-122.201,0.437,0.684,0.584,-0.502,0.421,-0.755,3127.13,-12.086,109.892,-108.437,0.174,0.225,0.959,0.379,0.519,0.766,11.344,233.191,156.595,172.473,0.757,0.653,-0.033,9.940,277.237,144.687,-33.679,none
0.488407,0.538,0.819,-0.198,2305.38,97.246,180.616,-101.946,-0.389,-0.407,0.826,0.670,0.592,-0.448,2324.07,136.301,126.006,-100.603,-0.752,-0.167,0.637,0.672,-0.245,-0.699,2743.10,109.332,5.483,-165.956,0.366,0.675,0.640,-0.440,0.467,-0.767,3195.38,-25.403,122.984,-117.837,0.228,0.165,0.959,0.407,0.622,0.668,11.863,250.687,178.351,163.649,0.665,0.745,0.045,12.590,309.634,169.969,-37.435,none
0.488554,0.797,0.596,-0.103,2824.73,126.565,247.088,-132.496,-0.421,-0.387,0.820,0.818,0.538,-0.203,2668.66,170.097,171.552,-144.023,-0.754,-0.128,0.644,0.684,-0.326,-0.653,2937.11,155.437,11.750,-205.011,0.308,0.728,0.613,-0.319,0.452,-0.833,3022.57,-23.836,153.647,-148.835,0.290,0.100,0.952,0.351,0.674,0.650,13.733,261.573,192.321,192.336,0.496,0.865,0.075,13.893,329.664,208.962,-27.710,none
0.488684,0.940,0.333,-0.072,3227.09,184.533,293.305,-144.135,-0.452,-0.351,0.820,0.969,0.213,-0.123,3276.04,198.857,200.647,-176.475,-0.779,-0.097,0.620,0.651,-0.505,-0.567,3449.63,193.485,3.693,-226.609,0.262,0.780,0.568,-0.154,0.479,-0.864,2811.58,-14.324,152.863,-171.552,0.382,0.024,0.924,0.170,0.694,0.700,14.717,243.817,198.397,225.511,0.342,0.889,0.304,15.580,301.176,244.031,-13.847,none
0.488808,0.951,0.029,-0.307,4230.60,210.831,276.072,-136.973,-0.494,-0.317,0.810,0.977,0.055,-0.207,3650.89,212.621,202.885,-188.226,-0.810,-0.057,0.584,0.598,-0.571,-0.563,3461.23,204.676,-28.200,-204.452,0.236,0.790,0.566,-0.028,0.448,-0.894,2500.93,3.581,138.092,-185.316,0.417,-0.002,0.909,-0.123,0.653,0.747,13.421,180.840,184.687,215.466,0.177,0.908,0.379,13.900,226.351,224.122,18.947,none
0.489236,0.927,-0.102,-0.360,4456.63,230.190,187.218,-119.292,-0.547,-0.264,0.794,0.946,-0.193,-0.259,3903.24,217.545,159.242,-197.514,-0.792,-0.068,0.607,0.557,-0.666,-0.496,2938.22,171.552,-58.415,-185.540,0.148,0.828,0.541,-0.222,0.042,-0.974,2394.00,-16.450,104.856,-170.097,0.433,0.011,0.901,-0.289,0.634,0.717,11.758,123.832,118.824,163.634,0.097,0.963,0.251,11.424,182.458,163.267,53.939,none
0.489385,0.931,-0.270,-0.247,3681.96,163.382,115.934,-128.468,-0.576,-0.209,0.790,0.870,-0.434,-0.234,4192.97,197.178,113.584,-200.311,-0.828,-0.036,0.559,0.424,-0.801,-0.423,3630.97,96.351,-59.310,-184.309,0.062,0.819,0.571,-0.197,0.012,-0.980,2499.30,-42.412,74.305,-135.966,0.451,-0.027,0.892,-0.098,0.680,0.727,11.606,106.168,70.107,139.588,0.016,0.967,0.255,11.948,173.191,111.008,68.519,none
0.489513,0.961,-0.232,-0.148,3278.32,111.011,88.629,-135.630,-0.593,-0.205,0.778,0.840,-0.498,-0.216,4189.51,131.601,65.801,-172.447,-0.827,-0.032,0.561,0.387,-0.828,-0.407,3775.37,49.462,-79.453,-146.149,0.002,0.800,0.600,-0.138,0.004,-0.990,2713.07,-50.358,56.065,-107.430,0.460,-0.038,0.887,-0.070,0.644,0.762,13.264,94.870,45.481,138.092,0.119,0.931,0.345,14.210,152.901,78.947,70.870,none
0.489636,0.964,-0.156,-0.216,3616.51,78.446,80.013,-135.294,-0.623,-0.199,0.756,0.881,-0.419,-0.220,3882.64,63.003,28.984,-129.699,-0.821,-0.033,0.569,0.391,-0.844,-0.368,3586.82,31.222,-90.084,-121.977,-0.048,0.749,0.661,-0.077,0.043,-0.996,2813.03,-65.577,16.674,-88.853,0.511,-0.089,0.855,-0.074,0.589,0.805,15.677,67.191,36.809,136.763,0.124,0.858,0.498,17.650,98.504,80.580,71.832,none
0.490030,0.932,-0.149,-0.331,4107.92,81.803,58.527,-117.165,-0.627,-0.182,0.757,0.933,-0.232,-0.276,3625.25,42.636,4.476,-100.044,-0.828,-0.050,0.559,0.420,-0.867,-0.268,3127.75,17.010,-111.458,-43.531,-0.006,0.715,0.699,-0.069,0.068,-0.995,2746.97,-64.682,-22.717,-83.370,0.506,-0.097,0.857,-0.149,0.538,0.830,17.299,4.763,30.656,122.351,0.108,0.828,0.551,18.777,-11.115,87.038,74.550,none
0.490170,0.853,-0.270,-0.447,5055.38,116.606,-9.176,-65.353,-0.639,-0.175,0.749,0.918,-0.243,-0.313,3703.82,83.146,-46.329,-55.393,-0.818,-0.082,0.569,0.456,-0.847,-0.272,2727.15,10.967,-116.382,-0.560,-0.006,0.705,0.709,-0.062,0.080,-0.995,2718.03,-41.741,-53.939,-83.594,0.526,-0.131,0.841,-0.182,0.562,0.807,16.117,-77.359,15.206,82.351,0.066,0.893,0.445,15.443,-103.634,64.763,79.786,none
0.490305,0.922,-0.278,-0.271,3823.85,94.449,-111.906,-2.350,-0.640,-0.207,0.740,0.865,-0.399,-0.305,4023.06,87.287,-93.329,-4.588,-0.802,-0.100,0.590,0.503,-0.801,-0.325,2763.81,6.826,-113.920,21.934,0.038,0.689,0.724,-0.103,0.037,-0.994,2693.15,3.357,-94.784,-74.753,0.525,-0.140,0.839,-0.173,0.641,0.748,13.072,-114.000,6.321,53.527,0.034,0.958,0.286,12.229,-139.130,50.275,69.847,none
0.490436,0.981,-0.184,-0.069,2795.38,61.212,-143.575,32.788,-0.580,-0.219,0.785,0.920,-0.334,-0.204,3225.99,67.367,-138.316,51.253,-0.775,-0.093,0.625,0.500,-0.811,-0.303,2703.32,16.562,-115.711,44.650,0.123,0.671,0.731,-0.149,-0.007,-0.989,2656.59,13.653,-108.549,-64.682,0.570,-0.140,0.810,-0.159,0.639,0.752,12.307,-121.008,5.985,36.611,0.043,0.964,0.263,10.852,-137.939,43.359,55.221,none
0.491733,0.976,-0.205,-0.067,2596.20,53.491,-137.644,35.698,-0.536,-0.231,0.812,0.961,-0.278,-0.009,2354.74,52.148,-144.806,71.060,-0.771,-0.083,0.632,0.392,-0.880,-0.270,2673.08,20.367,-106.982,67.255,0.161,0.683,0.712,-0.209,-0.011,-0.978,2544.39,20.479,-113.025,-50.805,0.608,-0.124,0.784,-0.190,0.600,0.777,12.808,-129.450,4.748,11.954,0.027,0.928,0.372,11.713,-138.412,37.802,36.748,none
0.512138,0.948,-0.239,-0.209,2839.38,40.734,-119.292,50.693,-0.512,-0.194,0.837,0.934,-0.353,-0.064,2466.92,38.496,-117.389,68.710,-0.742,-0.092,0.665,0.389,-0.862,-0.324,2769.27,15.891,-94.225,92.658,0.175,0.698,0.694,-0.207,0.040,-0.978,2475.59,41.853,-124.551,-37.600,0.616,-0.140,0.775,-0.132,0.577,0.806,12.611,-145.450,-0.427,-7.099,0.064,0.876,0.479,13.244,-176.870,26.809,18.534,none
0.521761,0.899,-0.291,-0.327,3321.24,40.174,-134.175,78.334,-0.479,-0.166,0.862,0.871,-0.382,-0.309,3148.97,19.472,-116.270,101.051,-0.726,-0.073,0.684,0.327,-0.889,-0.322,2577.77,18.017,-88.182,136.749,0.271,0.682,0.679,-0.239,0.038,-0.970,2344.88,60.877,-134.399,-27.305,0.648,-0.127,0.751,-0.047,0.559,0.828,10.819,-163.908,-21.496,-20.962,0.170,0.885,0.434,11.284,-215.313,2.382,16.443,none
0.545699,0.897,-0.230,-0.378,3209.94,2.350,-180.840,107.653,-0.429,-0.142,0.892,0.854,-0.346,-0.390,3397.63,6.155,-155.101,139.323,-0.688,-0.047,0.724,0.337,-0.845,-0.414,2641.40,1.007,-76.991,170.992,0.358,0.705,0.612,-0.324,-0.059,-0.944,2126.60,88.741,-157.563,-8.841,0.676,-0.107,0.729,0.094,0.544,0.834,8.990,-164.977,-38.198,-20.183,0.329,0.905,0.271,8.435,-218.672,-16.427,25.435,none
0.566958,0.950,-0.043,-0.309,2369.23,-16.003,-199.752,107.094,-0.373,-0.150,0.915,0.911,-0.198,-0.362,2710.84,-5.595,-186.771,159.802,-0.676,-0.035,0.736,0.409,-0.740,-0.533,2418.66,-11.974,-79.453,185.540,0.386,0.679,0.625,-0.405,-0.027,-0.914,2090.67,75.201,-164.837,-1.567,0.685,-0.100,0.721,0.165,0.450,0.877,10.295,-161.374,-42.168,-2.794,0.453,0.800,0.394,8.975,-200.534,-16.702,35.145,none
1.006041,0.895,0.161,-0.416,2229.37,-15.667,-195.052,88.406,-0.342,-0.185,0.921,0.932,0.014,-0.362,2227.20,-16.003,-200.311,143.016,-0.588,-0.026,0.808,0.365,-0.730,-0.577,2438.18,-21.710,-87.510,183.861,0.447,0.673,0.588,-0.468,-0.038,-0.883,1975.12,59.534,-173.342,-1.231,0.688,-0.072,0.722,0.184,0.360,0.915,10.213,-195.191,-63.344,8.718,0.513,0.692,0.508,10.481,-216.168,-19.435,63.145,none
1.011990,0.801,0.156,-0.578,2489.02,-12.645,-207.361,61.101,-0.276,-0.147,0.950,0.834,-0.010,-0.551,2581.74,-22.269,-210.383,115.039,-0.550,0.005,0.835,0.402,-0.525,-0.750,2999.94,-64.793,-112.577,170.992,0.541,0.650,0.534,-0.566,0.012,-0.824,1891.56,35.586,-190.688,-1.007,0.689,-0.086,0.720,0.563,0.290,0.774,5.999,-196.229,-91.405,22.321,0.749,0.598,0.286,7.040,-222.748,-25.466,95.115,none
1.012227,0.705,0.339,-0.622,1868.60,-8.169,-232.316,41.069,-0.240,-0.150,0.959,0.769,0.152,-0.621,2278.62,-24.619,-241.828,90.979,-0.494,-0.014,0.869,0.460,-0.409,-0.788,3278.68,-83.482,-182.742,146.485,0.594,0.613,0.520,-0.661,-0.085,-0.745,1813.71,-2.798,-192.478,-7.274,0.731,-0.089,0.677,0.812,-0.225,0.539,5.099,-168.763,-100.626,39.832,0.988,0.134,0.078,5.865,-192.214,-39.634,130.183,none
1.012441,0.439,0.738,-0.513,1216.94,-13.876,-246.752,2.238,-0.147,-0.123,0.982,0.650,0.507,-0.566,1128.18,-31.669,-255.369,35.698,-0.405,-0.007,0.914,0.469,-0.377,-0.799,3088.88,-137.197,-259.845,90.644,0.649,0.554,0.522,-0.806,-0.229,-0.546,2133.70,-50.805,-171.775,-3.021,0.730,-0.091,0.677,0.918,-0.265,0.297,6.516,-143.954,-125.603,44.458,0.957,-0.234,-0.173,7.060,-160.962,-70.718,181.389,none
1.012651,-0.163,0.914,-0.372,1413.05,-33.348,-228.624,-68.263,-0.085,-0.168,0.982,0.156,0.828,-0.539,985.66,-72.403,-228.736,-62.220,-0.311,-0.039,0.950,0.447,-0.338,-0.828,1819.07,-191.247,-271.036,28.984,0.704,0.510,0.494,-0.783,-0.211,-0.585,1942.96,-91.427,-167.747,1.567,0.727,-0.122,0.676,0.947,-0.218,0.237,8.370,-53.191,-168.076,113.053,0.934,-0.332,-0.129,7.434,-52.015,-98.947,234.412,none
1.012822,-0.354,0.790,-0.500,1482.66,-58.527,-181.176,-173.790,-0.018,-0.141,0.990,-0.132,0.582,-0.802,1200.52,-95.232,-183.414,-175.021,-0.209,-0.068,0.976,0.231,-0.156,-0.961,1864.59,-246.305,-269.022,-69.382,0.760,0.464,0.455,-0.952,-0.031,-0.306,2434.71,-231.981,-120.858,5.148,0.780,-0.172,0.602,0.872,-0.088,0.482,8.933,41.176,-162.931,151.740,0.963,-0.186,0.196,7.414,35.466,-104.000,235.237,none
1.013012,-0.109,0.308,-0.945,1676.78,-61.772,-120.746,-234.667,0.027,-0.198,0.980,-0.028,0.007,-1.000,1806.77,-88.629,-155.437,-208.592,-0.144,-0.090,0.985,-0.288,-0.354,-0.890,1262.31,-227.840,-281.219,-175.133,0.806,0.420,0.417,-0.928,0.301,-0.221,2613.06,-284.465,-67.367,-5.483,0.789,-0.224,0.572,0.574,0.062,0.816,11.729,85.985,-124.015,154.366,0.765,0.193,0.614,11.056,58.687,-87.298,208.855,none
1.013181,0.189,0.117,-0.975,2309.77,-58.527,-90.420,-223.140,0.097,-0.225,0.969,-0.038,-0.041,-0.998,1856.91,-66.920,-138.428,-178.602,-0.095,-0.122,0.988,-0.533,-0.666,-0.523,1511.34,-170.544,-260.293,-221.797,0.810,0.436,0.393,-0.866,0.437,-0.242,2674.39,-278.086,-19.584,-24.843,0.830,-0.288,0.478,0.375,0.117,0.920,14.625,67.847,-83.756,135.176,0.645,0.304,0.701,12.699,38.519,-47.710,177.435,none
1.018023,0.294,0.168,-0.941,2548.74,-29.543,-73.522,-177.259,0.138,-0.244,0.960,-0.071,0.365,-0.928,1701.89,-21.598,-93.777,-151.297,-0.016,-0.131,0.991,-0.665,-0.692,-0.283,1993.83,-138.651,-218.104,-197.402,0.834,0.440,0.333,-0.825,0.465,-0.322,2831.73,-188.673,0.224,-45.658,0.817,-0.347,0.460,0.302,0.089,0.949,14.263,16.580,-44.855,96.580,0.659,0.291,0.693,11.249,23.511,-12.183,136.870,none
1.018232,0.269,0.205,-0.941,2131.72,11.191,-50.581,-142.008,0.167,-0.225,0.960,0.111,0.158,-0.981,2000.90,29.767,-34.131,-152.863,0.043,-0.121,0.992,-0.628,-0.587,-0.511,2064.36,-109.444,-170.209,-154.990,0.849,0.441,0.290,-0.825,0.433,-0.363,2833.08,-103.177,6.938,-60.205,0.831,-0.351,0.431,0.395,0.059,0.917,13.089,-7.710,-10.656,71.191,0.716,0.245,0.654,10.374,25.817,21.084,103.420,none
1.018405,0.263,0.225,-0.938,1990.93,53.827,-13.205,-115.487,0.192,-0.212,0.958,0.203,-0.028,-0.979,1966.92,65.353,0.448,-141.673,0.010,-0.103,0.995,-0.391,-0.465,-0.794,2438.47,-47.224,-144.247,-131.937,0.842,0.456,0.289,-0.835,0.361,-0.415,2643.27,-62.108,8.057,-71.732,0.866,-0.346,0.362,0.445,0.004,0.896,12.536,-28.687,11.588,63.420,0.707,0.200,0.678,10.801,28.168,46.046,84.122,none
1.018576,0.284,0.158,-0.946,2328.78,70.389,16.562,-103.625,0.222,-0.177,0.959,0.260,-0.268,-0.928,2296.65,66.920,19.584,-122.537,0.050,-0.098,0.994,-0.455,-0.550,-0.700,2416.97,2.462,-152.192,-120.858,0.868,0.453,0.205,-0.875,0.262,-0.408,2446.88,-38.272,5.148,-74.082,0.866,-0.346,0.362,0.613,-0.091,0.785,10.769,-34.336,8.550,71.969,0.755,0.094,0.648,10.227,21.939,50.672,86.443,none
1.018761,0.287,0.065,-0.956,2643.52,76.432,23.724,-106.087,0.193,-0.160,0.968,0.322,-0.172,-0.931,3004.58,43.867,8.169,-108.661,-0.030,-0.070,0.997,-0.419,-0.556,-0.718,2411.24,-3.693,-147.939,-111.346,0.837,0.512,0.195,-0.905,0.117,-0.410,2291.77,-43.979,-1.790,-72.963,0.869,-0.303,0.392,0.637,-0.136,0.759,9.586,-19.969,3.221,93.069,0.746,0.061,0.663,9.153,23.557,43.359,99.389,none
1.018940,0.297,-0.060,-0.953,2691.38,71.732,4.141,-109.444,0.164,-0.098,0.982,0.310,-0.201,-0.929,3157.22,46.889,-27.529,-97.470,-0.037,-0.037,0.999,-0.349,-0.647,-0.677,2583.96,6.043,-135.070,-99.037,0.851,0.515,0.103,-0.908,0.167,-0.383,2300.54,-53.827,-5.483,-69.158,0.858,-0.320,0.403,0.479,-0.144,0.866,10.533,-9.817,-0.947,107.069,0.622,0.107,0.775,10.137,22.107,35.954,103.359,none
1.019127,0.271,-0.073,-0.960,2590.88,58.415,-33.907,-97.022,0.172,-0.097,0.980,0.236,-0.283,-0.930,2522.42,53.827,-73.522,-74.417,0.017,-0.025,1.000,-0.528,-0.616,-0.585,2305.31,-37.377,-160.249,-98.701,0.830,0.537,0.151,-0.929,0.052,-0.365,2303.75,-67.815,-17.122,-66.696,0.871,-0.298,0.390,0.433,-0.202,0.878,10.612,-19.298,-18.198,112.153,0.586,0.077,0.807,10.705,-0.275,24.015,115.267,none
1.019317,0.229,-0.034,-0.973,2415.81,48.903,-46.665,-107.430,0.164,-0.065,0.984,0.209,-0.217,-0.953,2285.51,40.510,-88.518,-76.096,0.024,0.035,0.999,-0.496,-0.632,-0.595,2333.68,-57.408,-154.766,-98.253,0.834,0.543,0.102,-0.930,-0.049,-0.363,2183.83,-81.915,-18.912,-62.443,0.886,-0.294,0.358,0.461,-0.266,0.847,9.476,-22.244,-29.176,112.397,0.615,0.016,0.788,9.675,-18.519,19.267,124.107,none
1.019488,0.173,-0.096,-0.980,2177.20,54.162,-49.239,-111.011,0.186,-0.049,0.981,0.162,-0.345,-0.924,2462.25,43.308,-95.903,-85.832,0.095,0.023,0.995,-0.605,-0.756,-0.251,2174.62,-45.434,-139.099,-89.413,0.840,0.540,0.055,-0.934,0.063,-0.352,2365.19,-89.637,-19.807,-61.324,0.885,-0.301,0.355,0.397,-0.238,0.887,9.582,-7.756,-19.267,109.771,0.582,-0.029,0.813,7.795,-12.580,24.397,114.015,none
1.019648,0.155,-0.288,-0.945,2122.77,59.534,-39.615,-98.477,0.206,-0.018,0.978,0.112,-0.418,-0.902,2599.81,48.343,-108.101,-58.303,0.162,0.090,0.983,-0.542,-0.718,-0.436,2192.24,-50.022,-122.649,-80.013,0.815,0.572,0.092,-0.933,0.102,-0.346,2432.76,-85.496,-16.003,-63.339,0.882,-0.306,0.358,0.304,-0.244,0.921,10.677,-3.557,-4.107,99.466,0.517,-0.011,0.856,8.832,1.374,27.924,90.489,none
1.019806,0.210,-0.159,-0.965,2496.93,51.141,-34.355,-77.215,0.217,0.061,0.974,0.116,-0.304,-0.946,2346.55,53.939,-124.551,-18.464,0.215,0.095,0.972,-0.491,-0.644,-0.586,2218.14,-31.781,-136.973,-95.679,0.791,0.604,0.096,-0.928,0.009,-0.373,2359.74,-54.834,-0.895,-66.808,0.886,-0.300,0.354,0.304,-0.272,0.913,10.955,-15.893,-7.847,91.389,0.537,0.026,0.843,10.779,-4.504,23.481,91.527,none
1.019964,0.236,-0.137,-0.962,2675.74,54.610,-47.336,-72.179,0.233,0.038,0.972,0.114,-0.256,-0.960,2209.75,58.415,-126.006,-27.641,0.283,0.117,0.952,-0.429,-0.746,-0.509,2516.28,-24.284,-137.756,-91.091,0.788,0.615,-0.038,-0.919,-0.032,-0.392,2371.30,-67.143,-7.945,-65.577,0.871,-0.285,0.400,0.360,-0.282,0.889,10.230,-24.595,-16.534,90.214,0.499,0.040,0.866,10.291,-17.771,22.275,101.313,none
1.021385,0.222,-0.271,-0.937,2361.86,63.451,-65.017,-70.501,0.235,0.062,0.970,0.004,-0.424,-0.906,1983.17,55.281,-118.732,-48.455,0.407,0.184,0.895,-0.489,-0.810,-0.325,2732.79,-45.546,-128.580,-55.170,0.764,0.643,0.053,-0.914,-0.003,-0.406,2460.91,-59.422,-8.841,-58.415,0.886,-0.269,0.378,0.341,-0.297,0.892,9.487,-16.122,-19.802,93.176,0.423,-0.028,0.906,8.323,-18.382,11.893,95.893,none
1.021521,0.141,-0.381,-0.914,2044.07,52.708,-63.003,-66.472,0.287,0.091,0.954,0.027,-0.384,-0.923,2422.21,56.065,-102.394,-51.141,0.431,0.196,0.881,-0.549,-0.776,-0.310,2358.58,-60.093,-111.906,-39.279,0.774,0.631,0.053,-0.903,-0.019,-0.430,2480.69,-47.336,-2.910,-49.686,0.896,-0.296,0.332,0.256,-0.287,0.923,9.852,0.565,-2.504,79.771,0.464,-0.063,0.883,7.922,-1.328,13.115,67.328,none
1.042425,0.091,-0.351,-0.932,1994.65,44.539,-40.622,-49.462,0.304,0.091,0.948,0.007,-0.400,-0.916,2367.18,83.594,-113.137,-29.207,0.552,0.277,0.787,-0.506,-0.801,-0.319,2504.16,-47.448,-101.387,-19.695,0.766,0.641,-0.052,-0.905,0.036,-0.424,2495.20,-41.517,7.274,-50.581,0.861,-0.272,0.429,0.250,-0.302,0.920,10.061,11.053,11.435,67.008,0.480,-0.050,0.876,8.450,20.183,22.519,44.275,none
1.064740,0.133,-0.311,-0.941,2028.50,42.636,-5.595,-41.517,0.289,0.161,0.944,-0.217,-0.716,-0.663,1953.61,82.586,-92.546,-32.453,0.646,0.277,0.711,-0.706,-0.582,-0.403,2152.05,-55.281,-84.041,1.343,0.779,0.624,0.059,-0.893,-0.011,-0.451,2475.05,-29.767,13.876,-43.419,0.861,-0.259,0.438,0.276,-0.337,0.900,9.640,27.084,4.656,59.740,0.418,-0.041,0.908,8.831,33.160,16.382,33.771,none
1.087236,0.147,-0.396,-0.906,2235.45,25.738,11.414,-44.539,0.285,0.167,0.944,-0.241,-0.575,-0.782,2007.46,43.867,-49.127,-36.146,0.670,0.317,0.672,-0.663,-0.627,-0.409,2386.03,-21.486,-41.181,-12.198,0.788,0.613,0.057,-0.894,-0.038,-0.446,2525.90,-10.295,16.226,-32.341,0.872,-0.236,0.429,0.222,-0.318,0.922,10.149,29.969,8.840,45.557,0.388,0.006,0.922,10.220,28.229,5.344,22.656,none
1.502219,0.203,-0.300,-0.932,2722.57,12.198,19.024,-37.265,0.308,0.201,0.930,-0.284,-0.464,-0.839,1663.05,40.846,-2.126,-60.653,0.675,0.328,0.660,-0.600,-0.602,-0.527,2502.76,-87.510,-116.158,41.629,0.782,0.621,0.052,-0.868,-0.125,-0.480,2488.17,-13.093,18.576,-23.053,0.866,-0.253,0.431,0.244,-0.302,0.922,9.901,32.779,-3.740,31.130,0.456,0.056,0.888,9.987,11.420,-8.611,21.985,none
1.502455,0.343,-0.247,-0.906,2474.81,10.631,0.783,-29.207,0.280,0.190,0.941,0.125,-0.086,-0.988,2254.05,-149.394,-52.484,76.544,0.657,0.370,0.657,-0.594,-0.734,-0.328,2345.51,-92.882,-94.225,33.907,0.822,0.566,0.054,-0.800,-0.099,-0.591,2551.64,-32.341,11.638,-7.945,0.861,-0.240,0.448,0.213,-0.232,0.949,11.133,48.321,-14.992,34.611,0.341,0.117,0.933,10.131,17.618,-19.191,23.588,none
1.502608,0.316,-0.482,-0.817,2898.60,0.112,2.462,-36.705,0.264,0.188,0.946,-0.163,-0.455,-0.875,2063.07,-10.407,-25.291,10.407,0.708,0.312,0.634,-0.772,-0.501,-0.390,2300.00,-80.236,-91.987,-21.374,0.836,0.548,-0.014,-0.831,-0.037,-0.555,2612.46,-31.669,-0.448,0.336,0.857,-0.253,0.449,0.197,-0.197,0.960,12.620,43.908,-7.618,37.664,0.371,0.113,0.922,11.559,7.511,-13.053,8.107,none
1.502744,0.232,-0.277,-0.933,2603.30,-14.660,-1.343,-18.688,0.268,0.189,0.945,-0.122,-0.356,-0.927,2278.33,-12.869,-7.498,-4.029,0.684,0.333,0.649,-0.748,-0.572,-0.335,2152.44,-39.838,-45.881,-27.417,0.826,0.563,0.032,-0.871,0.043,-0.490,2581.34,-11.526,0.448,-3.805,0.837,-0.263,0.480,0.222,-0.219,0.950,11.903,29.618,13.847,26.611,0.514,0.014,0.858,9.910,-2.489,7.130,-8.550,none
1.502895,0.134,-0.260,-0.956,2313.19,16.226,7.162,13.876,0.264,0.189,0.946,-0.154,-0.368,-0.917,2365.31,3.693,-13.876,7.162,0.713,0.324,0.622,-0.737,-0.557,-0.383,2370.03,-20.591,-27.417,-37.041,0.844,0.536,0.029,-0.901,0.098,-0.423,2615.77,13.988,7.162,-9.288,0.859,-0.234,0.455,0.270,-0.267,0.925,11.567,22.519,27.053,10.275,0.546,-0.059,0.836,9.935,2.534,18.947,-24.092,none
1.503038,0.090,-0.167,-0.982,2433.22,9.848,15.107,21.822,0.268,0.197,0.943,-0.188,-0.369,-0.910,2414.42,6.267,-12.981,-0.112,0.735,0.293,0.611,-0.720,-0.491,-0.491,2670.23,-1.679,-20.143,-38.496,0.806,0.587,0.075,-0.931,0.067,-0.358,2519.68,31.557,11.638,-6.379,0.877,-0.221,0.427,0.416,-0.356,0.837,10.899,5.008,14.031,-7.863,0.615,-0.100,0.782,11.202,-10.733,5.786,-20.244,none
1.503167,0.077,-0.023,-0.997,2750.83,0.783,6.155,11.638,0.276,0.197,0.941,-0.189,-0.333,-0.924,2549.87,-1.790,-6.043,-4.924,0.647,0.309,0.697,-0.721,-0.464,-0.515,2656.40,-12.757,-16.674,-27.193,0.815,0.577,0.058,-0.934,0.048,-0.355,2512.37,22.381,9.512,-0.336,0.860,-0.253,0.442,0.569,-0.355,0.742,10.807,6.260,-0.153,0.168,0.742,-0.190,0.643,10.179,-11.893,-6.855,-0.733,none
1.503289,0.052,0.037,-0.998,2521.21,-0.560,-5.707,-1.231,0.260,0.187,0.947,-0.207,-0.344,-0.916,2473.74,-8.057,-4.700,11.526,0.727,0.303,0.617,-0.696,-0.531,-0.482,2594.59,-10.519,-27.193,-27.529,0.827,0.560,0.050,-0.926,0.067,-0.371,2532.96,-1.231,2.350,0.895,0.854,-0.224,0.470,0.460,-0.322,0.828,10.762,15.893,2.290,15.344,0.659,-0.139,0.740,9.654,5.893,-2.794,9.115,none
1.503439,0.016,-0.124,-0.992,2160.95,6.267,0.224,-10.631,0.259,0.202,0.945,-0.189,-0.344,-0.920,2496.99,-10.855,-1.343,30.550,0.742,0.295,0.602,-0.688,-0.575,-0.444,2553.29,-4.141,-43.308,-28.648,0.821,0.567,0.064,-0.918,0.062,-0.392,2546.54,-11.862,0.112,-1.007,0.870,-0.234,0.433,0.311,-0.297,0.903,10.611,22.321,10.427,16.137,0.502,-0.068,0.862,9.373,11.863,4.550,1.023,none
1.503594,0.078,-0.234,-0.969,2191.99,10.967,15.331,-9.512,0.276,0.197,0.941,-0.208,-0.356,-0.911,2413.26,-8.281,-9.736,38.608,0.701,0.308,0.643,-0.701,-0.583,-0.411,2449.35,-11.414,-46.889,-37.377,0.822,0.570,-0.005,-0.908,0.043,-0.417,2539.51,-0.560,6.491,-1.007,0.848,-0.257,0.463,0.222,-0.272,0.936,11.300,20.534,15.466,2.168,0.466,-0.008,0.885,10.138,12.229,3.084,-13.710,none
1.503738,0.152,-0.243,-0.958,2358.59,6.938,27.753,-2.686,0.263,0.189,0.946,-0.201,-0.341,-0.918,2349.96,-1.902,-12.086,32.788,0.741,0.262,0.619,-0.702,-0.579,-0.415,2517.37,-10.855,-38.496,-38.384,0.807,0.590,0.000,-0.893,-0.007,-0.449,2506.26,19.584,12.981,2.798,0.848,-0.239,0.473,0.293,-0.273,0.916,11.324,9.359,13.802,-9.664,0.512,0.009,0.859,10.612,3.542,1.069,-16.275,none
1.503895,0.196,-0.165,-0.967,2523.25,2.350,32.229,-2.014,0.272,0.205,0.940,-0.177,-0.355,-0.918,2340.97,0.448,-7.498,25.403,0.778,0.270,0.567,-0.701,-0.581,-0.413,2506.22,-3.693,-24.395,-35.922,0.816,0.575,-0.057,-0.888,0.001,-0.461,2510.04,17.569,6.714,3.469,0.860,-0.233,0.454,0.325,-0.275,0.905,11.541,5.542,10.763,-6.748,0.557,-0.019,0.830,10.469,0.260,2.885,-14.321,none
1.504029,0.193,-0.171,-0.966,2665.12,3.245,30.550,-2.910,0.245,0.225,0.943,-0.193,-0.342,-0.920,2400.77,-3.805,1.902,14.100,0.803,0.255,0.538,-0.685,-0.595,-0.420,2464.28,10.407,-11.079,-32.453,0.801,0.598,-0.043,-0.905,0.009,-0.424,2493.67,17.010,0.560,2.574,0.857,-0.233,0.460,0.352,-0.311,0.883,10.916,1.893,7.649,-5.344,0.574,-0.059,0.817,10.037,-1.679,4.855,-11.099,none
1.504153,0.166,-0.158,-0.973,2565.41,2.126,22.269,-0.895,0.226,0.185,0.956,-0.187,-0.330,-0.925,2428.32,-5.931,5.595,10.072,0.777,0.283,0.562,-0.669,-0.617,-0.414,2523.07,12.757,-9.848,-32.117,0.807,0.590,0.005,-0.910,-0.007,-0.414,2481.06,15.779,-1.231,2.350,0.860,-0.211,0.465,0.375,-0.337,0.864,10.611,1.313,5.756,-2.046,0.572,-0.090,0.815,9.689,0.489,2.183,-7.221,none
1.504273,0.134,-0.150,-0.979,2439.18,3.245,14.324,-0.560,0.211,0.198,0.957,-0.197,-0.327,-0.924,2452.38,-6.379,4.924,5.036,0.733,0.265,0.627,-0.670,-0.617,-0.413,2458.53,9.400,-9.288,-30.774,0.789,0.612,-0.055,-0.920,-0.011,-0.391,2475.68,9.848,-3.805,3.245,0.852,-0.210,0.480,0.373,-0.340,0.863,10.487,1.527,4.519,-0.198,0.574,-0.082,0.815,9.905,1.206,-1.542,-2.824,none
1.504392,0.126,-0.147,-0.981,2364.79,0.895,13.653,-5.819,0.200,0.197,0.960,-0.192,-0.326,-0.926,2458.76,-5.483,0.671,5.371,0.756,0.266,0.598,-0.646,-0.648,-0.404,2537.65,7.386,-8.952,-28.760,0.789,0.613,-0.033,-0.916,0.001,-0.401,2488.34,2.910,-2.798,3.805,0.856,-0.214,0.471,0.333,-0.318,0.888,10.586,5.863,1.710,1.099,0.534,-0.041,0.845,9.954,0.076,-3.481,-0.321,none
1.510931,0.171,-0.175,-0.970,2432.01,1.343,17.233,-11.862,0.202,0.182,0.962,-0.203,-0.330,-0.922,2426.69,-4.364,-2.574,3.469,0.761,0.236,0.604,-0.666,-0.625,-0.407,2519.31,0.783,-15.443,-32.117,0.775,0.631,-0.021,-0.909,0.028,-0.417,2515.78,-1.790,-2.910,5.260,0.875,-0.219,0.432,0.322,-0.286,0.902,11.051,6.443,1.130,-2.641,0.535,-0.015,0.845,10.225,-3.099,-4.504,-3.786,none
1.511114,0.196,-0.192,-0.962,2524.77,0.112,16.003,-6.714,0.202,0.182,0.962,-0.198,-0.328,-0.924,2443.14,-3.693,-0.783,1.343,0.775,0.238,0.585,-0.660,-0.631,-0.408,2512.33,5.371,-9.064,-24.507,0.783,0.621,-0.023,-0.902,0.051,-0.429,2534.61,3.581,-1.902,4.924,0.858,-0.233,0.458,0.323,-0.270,0.907,11.340,4.504,1.084,-4.595,0.546,-0.005,0.838,10.313,-6.092,-3.588,-5.954,none
1.511267,0.222,-0.165,-0.961,2628.65,-0.783,11.526,-0.671,0.192,0.187,0.963,-0.182,-0.317,-0.931,2435.65,-1.679,3.245,-0.336,0.721,0.232,0.653,-0.662,-0.629,-0.407,2519.61,7.162,-6.379,-22.045,0.765,0.642,-0.055,-0.900,0.040,-0.434,2530.35,8.393,-2.686,4.252,0.871,-0.207,0.445,0.358,-0.288,0.888,11.036,1.847,-0.794,-4.046,0.575,-0.025,0.817,10.122,-6.641,-3.740,-5.466,none
1.512810,0.204,-0.145,-0.968,2529.33,-1.119,6.602,0.783,0.171,0.214,0.962,-0.180,-0.313,-0.932,2463.60,-0.560,6.826,-1.902,0.750,0.253,0.611,-0.649,-0.651,-0.395,2496.14,11.191,-2.238,-22.941,0.744,0.667,-0.042,-0.909,0.028,-0.417,2515.78,9.176,-5.148,4.252,0.863,-0.204,0.462,0.375,-0.314,0.872,10.738,1.191,0.595,-1.969,0.581,-0.057,0.812,9.913,-4.198,-4.565,-3.435,none
1.534042,0.173,-0.129,-0.976,2457.19,-2.238,5.036,-0.448,0.199,0.167,0.966,-0.184,-0.310,-0.933,2461.38,-1.679,5.595,-0.112,0.744,0.235,0.625,-0.652,-0.646,-0.396,2467.53,6.491,-3.133,-22.269,0.753,0.656,-0.041,-0.915,0.028,-0.402,2508.93,3.693,-4.252,4.252,0.877,-0.197,0.439,0.363,-0.310,0.879,10.650,7.786,-0.748,-1.832,0.570,-0.047,0.820,9.850,-1.710,-6.992,-3.160,none
1.556271,0.177,-0.156,-0.972,2408.97,-1.567,6.714,-2.462,0.156,0.205,0.966,-0.191,-0.304,-0.933,2472.14,-2.462,4.252,1.679,0.767,0.240,0.595,-0.650,-0.645,-0.402,2503.48,0.112,-2.014,-14.548,0.724,0.687,-0.060,-0.910,0.059,-0.410,2533.24,1.455,-1.679,4.476,0.865,-0.232,0.446,0.364,-0.284,0.887,11.180,7.160,-0.733,-3.115,0.581,-0.016,0.814,10.462,-3.542,-7.176,-3.695,none
1.579022,0.204,-0.114,-0.972,2519.08,-3.917,7.498,-2.574,0.161,0.186,0.969,-0.168,-0.294,-0.941,2461.30,-2.686,5.595,6.379,0.742,0.259,0.618,-0.655,-0.637,-0.407,2519.10,-1.790,-3.805,-13.541,0.743,0.668,-0.041,-0.902,0.059,-0.427,2545.58,1.790,-0.671,3.581,0.867,-0.211,0.451,0.375,-0.281,0.883,11.280,5.313,-1.511,-0.214,0.591,-0.019,0.806,10.273,-3.603,-5.939,-0.824,none
1.604391,0.219,-0.135,-0.966,2572.68,-2.574,6.714,-5.036,0.183,0.220,0.958,-0.172,-0.301,-0.938,2468.64,-1.902,8.729,4.924,0.755,0.218,0.618,-0.652,-0.638,-0.410,2499.66,4.812,0.224,-12.981,0.727,0.682,-0.072,-0.909,0.051,-0.415,2528.12,3.581,-4.588,1.679,0.857,-0.244,0.454,0.327,-0.289,0.899,11.094,3.496,-0.183,1.191,0.549,-0.016,0.835,10.315,-4.947,-3.969,-0.626,none
2.009994,0.216,-0.166,-0.962,2614.88,0.112,3.469,-2.462,0.159,0.201,0.967,-0.177,-0.306,-0.935,2455.62,-0.671,9.512,3.245,0.762,0.228,0.606,-0.640,-0.653,-0.405,2485.46,8.393,3.021,-9.624,0.746,0.660,-0.092,-0.909,0.040,-0.415,2525.85,3.245,-4.252,1.231,0.863,-0.238,0.445,0.339,-0.295,0.893,10.802,1.603,-1.115,-3.969,0.547,-0.015,0.837,9.998,-10.763,-5.267,-2.015,none
2.011945,0.209,-0.156,-0.965,2414.53,-1.679,-5.260,4.141,0.160,0.185,0.970,-0.167,-0.311,-0.936,2421.46,-1.007,8.729,1.567,0.751,0.247,0.612,-0.645,-0.647,-0.407,2495.46,0.560,0.783,-9.960,0.738,0.674,-0.032,-0.908,0.036,-0.418,2530.55,3.245,-2.910,2.350,0.872,-0.224,0.435,0.358,-0.300,0.884,10.899,1.328,-1.328,-4.382,0.576,-0.041,0.816,9.895,-9.328,-6.504,-2.656,none
2.012166,0.178,-0.120,-0.977,2396.81,-4.364,-2.126,2.014,0.145,0.219,0.965,-0.169,-0.312,-0.935,2445.90,-1.790,10.072,-0.448,0.690,0.261,0.676,-0.635,-0.657,-0.406,2502.21,2.910,5.148,-5.371,0.747,0.663,-0.051,-0.916,0.036,-0.401,2518.69,4.924,-1.902,2.910,0.879,-0.211,0.428,0.383,-0.322,0.866,10.615,3.771,-3.252,-4.153,0.589,-0.059,0.806,9.884,-6.916,-7.649,-1.435,none
2.012333,0.173,-0.120,-0.978,2404.02,-4.812,0.448,-2.462,0.171,0.192,0.966,-0.169,-0.310,-0.935,2454.31,-5.595,10.295,-5.483,0.699,0.247,0.671,-0.639,-0.649,-0.413,2504.37,2.014,5.707,-3.133,0.736,0.672,-0.082,-0.916,0.032,-0.399,2505.23,1.119,-0.560,3.133,0.861,-0.210,0.463,0.404,-0.321,0.856,10.872,8.397,-6.382,-0.702,0.611,-0.060,0.789,10.116,-3.191,-10.611,2.015,none
2.012489,0.186,-0.091,-0.978,2503.44,-8.057,1.679,-6.938,0.158,0.192,0.969,-0.165,-0.307,-0.937,2449.56,-9.960,13.988,-10.743,0.721,0.227,0.655,-0.636,-0.658,-0.403,2515.80,2.798,5.819,-3.021,0.746,0.662,-0.072,-0.916,0.036,-0.399,2506.45,-5.036,-1.231,2.686,0.850,-0.221,0.479,0.403,-0.317,0.859,11.071,7.634,-8.916,5.237,0.619,-0.054,0.784,10.284,-2.290,-10.855,8.214,none
2.012664,0.188,-0.064,-0.980,2526.29,-7.722,-1.567,-12.757,0.156,0.194,0.969,-0.152,-0.289,-0.945,2469.12,-13.093,16.114,-12.645,0.717,0.252,0.649,-0.634,-0.658,-0.406,2524.45,0.783,6.155,0.560,0.732,0.680,-0.043,-0.917,0.036,-0.397,2515.62,-10.407,-3.805,0.448,0.874,-0.246,0.420,0.365,-0.308,0.879,11.021,6.244,-10.244,7.695,0.587,-0.046,0.809,10.034,-0.595,-9.740,12.916,none
2.012839,0.188,-0.147,-0.971,2421.28,-4.029,-1.679,-17.345,0.164,0.171,0.971,-0.161,-0.282,-0.946,2459.92,-14.212,17.010,-12.757,0.645,0.238,0.726,-0.627,-0.668,-0.400,2488.17,-3.245,0.783,1.119,0.720,0.689,-0.081,-0.917,0.048,-0.396,2525.13,-15.331,-6.491,-0.336,0.855,-0.223,0.468,0.349,-0.302,0.887,10.821,6.290,-9.802,8.153,0.549,-0.028,0.835,9.911,0.473,-9.756,11.282,none
2.012997,0.198,-0.174,-0.965,2394.74,-6.379,1.679,-16.786,0.163,0.163,0.973,-0.145,-0.282,-0.948,2453.81,-14.324,16.003,-10.183,0.675,0.232,0.700,-0.626,-0.671,-0.398,2477.91,-1.007,-0.560,-0.560,0.730,0.680,-0.060,-0.914,0.051,-0.402,2533.20,-13.764,-7.162,0.224,0.878,-0.219,0.425,0.337,-0.290,0.896,11.004,7.130,-7.847,4.702,0.541,-0.009,0.841,10.210,-0.992,-9.481,7.435,none
2.013135,0.217,-0.150,-0.965,2506.80,-7.610,2.126,-12.086,0.133,0.167,0.977,-0.128,-0.273,-0.953,2468.90,-13.205,13.205,-7.274,0.675,0.235,0.699,-0.634,-0.664,-0.396,2490.85,-2.350,-3.021,-3.693,0.734,0.678,-0.038,-0.910,0.063,-0.410,2533.84,-8.281,-5.707,1.119,0.872,-0.244,0.424,0.349,-0.285,0.893,11.105,5.710,-6.244,2.809,0.560,-0.013,0.828,10.205,-4.321,-7.954,4.275,none
2.013268,0.215,-0.132,-0.968,2479.37,-4.812,1.007,-7.498,0.163,0.202,0.966,-0.122,-0.281,-0.952,2434.04,-9.736,11.079,-9.624,0.710,0.239,0.662,-0.632,-0.665,-0.398,2500.13,1.567,2.910,-1.902,0.743,0.667,-0.053,-0.910,0.052,-0.411,2523.09,-3.133,-4.364,0.671,0.886,-0.229,0.404,0.373,-0.300,0.878,10.893,5.847,-6.321,2.366,0.568,-0.026,0.822,10.181,-5.252,-7.313,3.618,none
2.013408,0.206,-0.135,-0.969,2495.10,-4.476,1.007,-6.602,0.131,0.138,0.982,-0.134,-0.285,-0.949,2429.85,-8.281,11.750,-12.645,0.676,0.207,0.707,-0.629,-0.670,-0.393,2480.90,4.141,6.491,0.336,0.722,0.691,-0.041,-0.916,0.059,-0.397,2518.42,-3.357,-5.036,0.783,0.859,-0.245,0.449,0.339,-0.299,0.892,10.931,5.725,-3.863,0.962,0.554,-0.026,0.832,10.086,-7.679,-7.115,1.573,none
2.013577,0.212,-0.145,-0.966,2523.60,-2.686,-2.350,-1.455,0.139,0.168,0.976,-0.130,-0.266,-0.955,2424.55,-8.841,11.414,-12.869,0.618,0.193,0.762,-0.628,-0.670,-0.395,2469.25,1.567,6.602,0.895,0.711,0.699,-0.081,-0.913,0.055,-0.405,2538.62,-3.245,-3.581,0.783,0.864,-0.226,0.450,0.349,-0.290,0.891,11.010,2.702,-1.313,-3.832,0.559,-0.020,0.829,9.959,-9.756,-5.847,-1.115,none
2.013772,0.206,-0.145,-0.968,2398.43,-2.014,-4.700,3.133,0.122,0.174,0.977,-0.111,-0.285,-0.952,2401.98,-8.729,14.100,-18.912,0.648,0.211,0.731,-0.626,-0.667,-0.405,2508.13,2.910,9.736,0.336,0.728,0.684,-0.052,-0.911,0.047,-0.410,2531.70,2.910,-1.231,0.895,0.864,-0.251,0.436,0.358,-0.298,0.885,10.850,2.855,-0.046,-4.275,0.569,-0.026,0.822,10.045,-9.038,-5.282,-3.023,none
2.013951,0.209,-0.133,-0.969,2464.69,-3.581,-1.119,2.910,0.152,0.186,0.971,-0.102,-0.272,-0.957,2439.25,-8.729,16.338,-27.529,0.593,0.222,0.774,-0.628,-0.670,-0.395,2469.25,5.819,14.548,1.119,0.737,0.674,-0.051,-0.907,0.059,-0.416,2519.19,2.350,-1.567,0.783,0.869,-0.252,0.426,0.270,-0.247,0.931,11.809,-2.794,4.611,-12.290,0.532,0.031,0.846,10.580,-11.588,-3.481,-6.656,none
2.014077,0.287,-0.181,-0.941,2780.40,0.112,-2.798,9.512,0.139,0.191,0.972,-0.058,-0.256,-0.965,2401.31,-3.805,15.555,-22.605,0.608,0.228,0.760,-0.644,-0.662,-0.384,2438.82,6.043,20.255,3.469,0.712,0.701,-0.039,-0.881,0.107,-0.461,2594.33,3.805,-2.574,-0.895,0.862,-0.253,0.438,0.254,-0.185,0.949,12.757,-23.740,11.008,-31.649,0.517,0.114,0.848,11.641,-24.366,1.389,-13.664,none
2.014208,0.325,-0.151,-0.933,2757.38,3.021,-10.631,27.865,0.160,0.194,0.968,0.011,-0.229,-0.973,2428.65,7.050,24.507,-20.703,0.577,0.219,0.787,-0.666,-0.640,-0.384,2492.04,11.638,37.712,11.302,0.725,0.688,-0.039,-0.843,0.110,-0.527,2679.85,16.003,-6.714,-5.036,0.869,-0.252,0.426,0.328,-0.139,0.934,14.050,-36.702,22.931,-32.458,0.618,0.140,0.773,11.902,-29.344,14.107,-20.366,none
2.015533,0.410,-0.065,-0.910,3241.44,9.064,-14.212,44.315,0.173,0.164,0.971,0.180,-0.222,-0.958,2865.49,59.310,46.441,-18.800,0.557,0.247,0.793,-0.705,-0.532,-0.469,2519.31,30.438,81.244,22.605,0.705,0.707,-0.059,-0.815,0.063,-0.576,2685.56,26.522,-24.731,-18.353,0.871,-0.227,0.435,0.197,-0.077,0.977,17.402,-84.962,31.725,-20.824,0.549,0.235,0.802,14.333,-31.573,45.176,-10.336,none
2.015686,0.486,-0.090,-0.869,3843.45,49.015,-43.755,58.191,0.192,0.203,0.960,0.278,-0.494,-0.824,4300.48,138.092,54.162,-13.429,0.493,0.264,0.829,-0.651,-0.623,-0.433,2591.42,88.406,131.713,29.207,0.730,0.680,-0.060,-0.779,0.008,-0.627,2623.67,36.705,-65.017,-30.103,0.867,-0.239,0.437,0.214,-0.094,0.972,14.733,-143.191,26.458,-17.908,0.346,0.296,0.890,15.497,-61.237,69.832,0.260,none
2.015832,0.480,-0.334,-0.811,3357.07,60.877,-76.208,71.955,0.216,0.161,0.963,0.273,-0.577,-0.769,3902.88,75.648,6.826,18.576,0.559,0.370,0.742,-0.483,-0.796,-0.363,2741.01,191.359,184.757,49.015,0.703,0.710,-0.034,-0.837,-0.097,-0.539,2510.21,63.451,-94.337,-31.557,0.884,-0.226,0.409,0.198,-0.273,0.941,9.326,-153.405,14.687,-5.511,0.168,0.244,0.955,13.341,-125.023,51.389,-0.076,none
2.023066,0.399,-0.457,-0.795,3226.65,44.091,-95.120,84.489,0.260,0.212,0.942,0.122,-0.682,-0.721,2542.35,23.724,-22.381,60.541,0.489,0.358,0.796,-0.057,-0.975,-0.216,5187.61,240.598,193.933,120.411,0.687,0.723,-0.067,-0.884,-0.137,-0.447,2409.65,87.846,-115.039,-18.129,0.908,-0.193,0.372,0.034,-0.436,0.899,8.368,-127.817,-10.046,-12.046,0.188,0.068,0.980,8.713,-162.366,10.168,-2.015,none
2.050065,0.277,-0.428,-0.860,2458.82,8.952,-127.461,90.308,0.345,0.213,0.914,0.077,-0.676,-0.732,2517.57,-6.043,-20.926,53.939,0.546,0.329,0.770,-0.324,-0.898,-0.298,3337.73,90.308,115.599,230.302,0.695,0.705,-0.140,-0.902,-0.289,-0.321,2471.25,89.077,-116.718,27.305,0.872,-0.218,0.439,0.087,-0.514,0.854,8.961,-126.015,-59.954,-43.527,0.269,-0.035,0.963,9.318,-168.611,-51.893,13.542,none
2.075798,0.178,-0.490,-0.854,2511.68,-23.612,-146.820,80.460,0.374,0.191,0.908,0.078,-0.557,-0.827,2847.18,-71.955,-40.622,44.091,0.573,0.327,0.752,-0.430,-0.843,-0.323,2600.18,83.482,162.599,254.810,0.756,0.628,-0.185,-0.993,-0.016,-0.115,2283.50,43.979,-130.370,63.898,0.846,-0.248,0.472,0.240,-0.515,0.823,9.433,-128.275,-78.244,-65.084,0.310,-0.132,0.941,8.945,-199.557,-75.939,6.305,none
2.098190,-0.061,-0.333,-0.941,2017.81,-59.870,-166.516,96.463,0.572,0.156,0.805,-0.013,-0.417,-0.909,2460.78,-77.103,-93.329,82.810,0.633,0.232,0.739,-0.575,-0.545,-0.610,2115.32,0.671,99.149,227.393,0.827,0.548,-0.127,-0.999,0.001,-0.033,2327.27,37.041,-114.703,71.060,0.887,-0.248,0.390,0.397,-0.613,0.683,8.401,-140.046,-81.160,-81.511,0.592,-0.574,0.566,6.567,-195.130,-80.687,-4.840,none
2.522171,-0.375,-0.166,-0.912,1791.74,-67.367,-160.249,98.365,0.608,0.140,0.781,-0.497,-0.316,-0.808,1700.58,-79.229,-88.182,82.698,0.719,0.195,0.667,-0.717,-0.435,-0.544,2244.43,-5.260,61.324,190.016,0.879,0.448,-0.162,-1.000,0.009,-0.003,2522.11,38.831,-110.115,75.984,0.827,-0.328,0.457,0.587,-0.668,0.458,8.542,-124.656,-72.443,-83.298,0.609,-0.581,0.540,7.828,-167.176,-76.901,-11.863,none
2.522369,-0.503,-0.091,-0.859,1764.29,-65.017,-145.478,98.589,0.664,0.102,0.741,-0.672,-0.150,-0.726,1813.66,-86.279,-57.967,68.822,0.828,0.136,0.544,-0.800,-0.532,-0.278,2317.02,6.826,55.058,180.840,0.879,0.441,-0.183,-0.999,-0.029,0.016,2601.43,83.034,-79.565,82.475,0.794,-0.335,0.507,0.553,-0.689,0.468,8.330,-108.748,-60.977,-88.809,0.525,-0.638,0.564,7.543,-155.405,-73.847,-25.908,none
2.522541,-0.581,-0.183,-0.793,1898.70,-55.729,-115.151,98.813,0.746,0.033,0.666,-0.643,-0.165,-0.748,1942.10,-85.832,-24.172,59.422,0.812,0.085,0.578,-0.872,-0.449,-0.195,2239.91,-3.805,72.291,191.918,0.912,0.377,-0.161,-0.979,0.187,0.083,2628.59,74.977,-81.356,87.510,0.781,-0.332,0.530,0.586,-0.619,0.523,8.909,-97.298,-39.695,-106.824,0.602,-0.624,0.498,7.757,-147.023,-69.038,-52.580,none
2.522699,-0.540,-0.111,-0.834,1971.31,-60.541,-91.315,113.025,0.751,0.000,0.660,-0.659,-0.113,-0.743,1981.84,-90.084,12.757,58.639,0.750,0.033,0.660,-0.941,-0.260,-0.217,2064.55,10.295,111.458,201.542,0.925,0.357,-0.131,-0.972,0.219,0.085,2657.25,83.034,-65.465,88.741,0.778,-0.350,0.522,0.708,-0.569,0.418,9.870,-88.168,-19.908,-112.824,0.722,-0.553,0.416,9.046,-136.198,-58.931,-71.496,none
2.522858,-0.541,0.160,-0.826,2131.34,-64.234,-73.298,125.670,0.790,-0.020,0.613,-0.503,-0.008,-0.864,2147.06,-93.889,39.950,63.003,0.760,-0.014,0.650,-0.831,-0.146,-0.537,1982.95,30.103,144.694,195.164,0.947,0.313,-0.068,-0.961,0.261,0.094,2636.63,96.910,-49.127,81.244,0.714,-0.331,0.617,0.710,-0.535,0.458,10.549,-79.939,3.160,-109.313,0.783,-0.530,0.325,10.215,-122.992,-42.947,-79.221,none
2.523060,-0.487,0.300,-0.821,2409.02,-49.910,-53.603,129.811,0.789,-0.081,0.609,-0.243,0.103,-0.965,2594.94,-77.775,40.734,74.305,0.735,-0.055,0.676,-0.629,-0.053,-0.775,2323.02,40.958,123.880,166.963,0.963,0.253,-0.089,-0.939,0.315,0.139,2561.19,102.506,-33.572,67.591,0.660,-0.333,0.673,0.769,-0.545,0.333,11.019,-79.908,12.366,-107.679,0.806,-0.528,0.268,10.968,-112.000,-24.412,-73.176,none
2.523256,-0.485,0.378,-0.789,2558.02,-36.593,-40.846,121.418,0.825,-0.130,0.550,-0.250,0.187,-0.950,2633.88,-58.415,20.591,78.670,0.802,-0.098,0.589,-0.589,-0.031,-0.808,2433.98,40.734,97.582,139.770,0.975,0.218,-0.042,-0.960,0.262,0.099,2596.46,102.282,-23.165,55.953,0.624,-0.301,0.721,0.829,-0.519,0.210,12.161,-55.893,12.076,-80.458,0.799,-0.587,0.129,11.727,-83.786,-17.969,-61.237,none
2.523398,-0.503,0.399,-0.767,2718.77,-25.291,-26.745,97.358,0.817,-0.149,0.557,-0.312,0.256,-0.915,2616.48,-46.217,12.086,68.039,0.687,-0.133,0.714,-0.570,-0.048,-0.820,2565.08,33.348,78.894,116.270,0.982,0.191,0.014,-0.965,0.248,0.082,2654.28,74.865,-21.934,43.084,0.604,-0.320,0.730,0.775,-0.567,0.277,11.290,-41.115,12.580,-58.901,0.790,-0.555,0.258,11.547,-56.809,-12.000,-44.534,none
2.523527,-0.497,0.343,-0.797,2676.36,-12.981,-13.093,69.829,0.821,-0.183,0.540,-0.306,0.231,-0.924,2603.00,-34.803,11.750,44.203,0.724,-0.200,0.660,-0.578,-0.006,-0.816,2565.43,15.219,59.758,93.777,0.985,0.169,0.044,-0.961,0.270,0.059,2656.75,39.950,-15.443,34.131,0.573,-0.289,0.766,0.790,-0.547,0.277,11.354,-22.611,0.901,-47.328,0.781,-0.552,0.291,11.048,-44.840,-19.221,-30.611,none
2.523667,-0.456,0.315,-0.832,2634.12,-14.324,-2.350,34.467,0.823,-0.177,0.540,-0.281,0.200,-0.939,2518.77,-29.767,14.772,20.479,0.663,-0.186,0.725,-0.629,0.021,-0.777,2529.04,3.021,45.881,65.465,0.988,0.155,0.006,-0.945,0.322,0.057,2596.77,18.688,-9.400,28.424,0.551,-0.282,0.786,0.782,-0.530,0.328,11.296,-3.282,-7.115,-27.527,0.808,-0.543,0.228,11.225,-23.130,-24.260,-18.214,none
2.523787,-0.398,0.271,-0.876,2625.56,-17.793,-2.798,17.457,0.809,-0.209,0.550,-0.231,0.185,-0.955,2556.82,-28.872,20.143,1.007,0.667,-0.169,0.726,-0.651,-0.085,-0.755,2503.38,-3.805,34.579,37.712,0.987,0.141,0.078,-0.947,0.321,0.030,2633.53,7.610,-9.736,22.269,0.500,-0.265,0.825,0.784,-0.514,0.348,11.386,13.069,-8.427,-13.802,0.801,-0.559,0.212,10.793,8.168,-20.718,-11.160,none
2.523917,-0.523,0.357,-0.774,2465.20,-21.038,5.707,2.574,0.786,-0.210,0.582,-0.231,0.150,-0.961,2561.04,-21.934,22.157,-10.295,0.680,-0.207,0.703,-0.603,-0.049,-0.796,2555.64,-12.198,28.536,26.969,0.985,0.139,0.102,-0.947,0.320,0.015,2705.34,-6.714,-6.379,16.003,0.519,-0.271,0.811,0.798,-0.504,0.330,11.638,31.908,-6.214,3.710,0.812,-0.566,0.141,11.002,43.985,-18.824,-9.817,none
2.524093,-0.541,0.428,-0.724,2512.41,-24.955,33.796,-23.165,0.785,-0.226,0.576,-0.263,0.208,-0.942,2510.19,-20.255,25.626,-15.667,0.655,-0.223,0.722,-0.586,-0.052,-0.809,2564.26,-7.833,16.786,14.324,0.985,0.127,0.118,-0.950,0.312,-0.010,2677.04,-11.302,-2.686,7.833,0.521,-0.287,0.804,0.768,-0.470,0.436,11.839,44.122,-0.611,19.237,0.858,-0.452,0.246,11.594,78.794,-11.282,-3.466,none
2.524300,-0.432,0.506,-0.746,2530.28,-23.724,66.920,-55.058,0.786,-0.210,0.582,-0.237,0.304,-0.922,2362.14,-22.829,39.167,-32.676,0.615,-0.196,0.764,-0.573,-0.183,-0.799,2655.84,-1.119,9.288,14.883,0.984,0.131,0.124,-0.943,0.333,-0.022,2594.13,-18.129,-8.617,-1.455,0.530,-0.300,0.793,0.691,-0.438,0.575,11.573,37.893,-0.366,31.740,0.781,-0.246,0.574,12.355,76.321,9.832,9.725,none
2.524540,-0.248,0.338,-0.908,2597.36,2.014,92.994,-77.215,0.773,-0.247,0.585,-0.123,0.179,-0.976,2422.76,-21.486,66.024,-68.486,0.506,-0.230,0.831,-0.592,-0.197,-0.781,2668.39,-8.281,5.260,30.662,0.984,0.120,0.130,-0.932,0.362,-0.003,2549.36,-17.793,-15.331,-6.155,0.545,-0.299,0.783,0.644,-0.442,0.624,11.127,28.015,-7.221,31.466,0.702,-0.242,0.670,11.181,42.107,16.260,12.916,none
2.524725,-0.069,0.066,-0.995,2921.25,24.507,79.341,-63.115,0.721,-0.208,0.661,-0.039,0.103,-0.994,2596.80,-15.331,66.584,-67.255,0.531,-0.207,0.822,-0.723,-0.055,-0.689,2428.39,-8.952,5.483,37.153,0.987,0.091,0.133,-0.926,0.376,0.031,2585.41,-16.898,-20.591,-7.833,0.530,-0.309,0.789,0.672,-0.482,0.562,11.058,24.840,-6.061,33.023,0.732,-0.362,0.577,10.311,31.298,13.664,6.718,none
2.527588,-0.107,-0.049,-0.993,2881.09,15.331,51.365,-38.048,0.731,-0.183,0.657,0.078,-0.147,-0.986,3123.33,13.093,22.941,-19.472,0.482,-0.207,0.851,-0.725,-0.056,-0.686,2394.70,9.400,5.819,30.103,0.991,0.085,0.099,-0.954,0.297,0.046,2613.04,8.281,-17.457,-11.862,0.536,-0.301,0.789,0.643,-0.562,0.521,10.502,28.015,0.702,34.534,0.699,-0.405,0.590,10.321,30.656,13.603,2.382,none
2.527728,-0.180,0.002,-0.984,2698.14,9.176,34.019,-22.829,0.711,-0.168,0.683,-0.026,-0.082,-0.996,2719.09,13.541,-1.902,8.281,0.428,-0.199,0.882,-0.667,-0.114,-0.736,2471.22,14.548,5.148,21.934,0.990,0.085,0.111,-0.972,0.232,0.035,2544.97,26.857,-8.281,-14.772,0.513,-0.269,0.815,0.576,-0.566,0.590,10.470,17.084,5.053,24.305,0.663,-0.363,0.654,10.714,9.740,9.466,2.107,none
2.527867,-0.195,0.002,-0.981,2645.62,13.764,16.562,-10.743,0.687,-0.212,0.696,-0.051,-0.014,-0.999,2544.58,15.219,-10.407,7.050,0.462,-0.192,0.866,-0.643,-0.192,-0.741,2534.06,11.750,0.671,16.114,0.987,0.112,0.117,-0.974,0.226,0.028,2531.24,12.533,-5.371,-10.519,0.518,-0.281,0.808,0.564,-0.573,0.595,10.167,2.534,1.328,7.924,0.685,-0.388,0.616,10.053,-8.687,4.214,4.168,none
2.528018,-0.206,-0.006,-0.979,2450.64,12.533,-0.448,-2.462,0.690,-0.144,0.710,-0.033,-0.086,-0.996,2472.52,12.757,-18.688,5.819,0.461,-0.201,0.864,-0.663,-0.196,-0.723,2531.19,3.021,-4.812,12.757,0.991,0.085,0.099,-0.983,0.182,0.004,2485.65,12.086,-5.148,-7.498,0.491,-0.271,0.828,0.581,-0.557,0.594,10.379,-2.794,-0.687,2.870,0.677,-0.398,0.619,9.873,-12.824,0.427,3.573,none
2.530193,-0.231,-0.014,-0.973,2396.16,6.491,-6.379,0.895,0.680,-0.174,0.712,-0.115,-0.091,-0.989,2331.16,7.274,-20.143,9.288,0.491,-0.183,0.852,-0.710,-0.220,-0.668,2473.15,-0.448,-9.288,12.757,0.990,0.076,0.117,-0.974,0.224,0.036,2499.44,1.567,-10.519,-1.119,0.501,-0.267,0.823,0.564,-0.574,0.593,10.206,-9.053,0.473,-3.618,0.660,-0.411,0.629,9.766,-17.450,-0.031,-0.168,none
2.553371,-0.253,-0.034,-0.967,2420.35,3.805,-6.826,5.483,0.683,-0.194,0.704,-0.158,-0.096,-0.983,2315.84,2.686,-14.324,10.855,0.453,-0.190,0.871,-0.756,-0.163,-0.634,2389.94,-3.693,-3.693,18.353,0.991,0.070,0.112,-0.975,0.217,0.056,2498.24,10.855,-7.945,1.455,0.475,-0.274,0.836,0.571,-0.599,0.562,10.027,-15.191,2.504,-11.954,0.646,-0.407,0.646,9.927,-24.443,-2.794,-5.344,none
2.575707,-0.221,-0.060,-0.973,2504.71,1.007,-13.317,16.786,0.709,-0.180,0.682,-0.095,-0.120,-0.988,2511.49,-0.224,-14.436,15.779,0.544,-0.182,0.819,-0.743,-0.154,-0.651,2402.51,-2.462,2.462,19.695,0.991,0.071,0.115,-0.972,0.222,0.076,2484.18,17.681,-6.938,4.476,0.485,-0.287,0.826,0.609,-0.615,0.500,10.010,-14.718,-1.908,-17.634,0.663,-0.459,0.592,9.699,-30.947,-8.855,-7.252,none
2.596860,-0.299,0.011,-0.954,2379.84,-1.007,-17.122,20.703,0.697,-0.185,0.693,-0.159,-0.070,-0.985,2351.89,-2.014,-21.038,22.269,0.511,-0.213,0.833,-0.707,-0.174,-0.685,2454.79,-5.483,7.274,20.143,0.986,0.070,0.148,-0.978,0.197,0.067,2498.68,17.233,-4.364,8.393,0.463,-0.255,0.849,0.649,-0.618,0.443,10.220,-5.878,-7.542,-14.656,0.710,-0.513,0.482,9.748,-23.038,-16.702,-5.023,none
2.620375,-0.335,0.086,-0.938,2357.51,-9.736,-14.212,12.757,0.711,-0.167,0.683,-0.160,-0.007,-0.987,2346.22,-8.505,-19.248,13.093,0.549,-0.200,0.812,-0.704,-0.156,-0.693,2426.94,-5.036,7.274,15.891,0.995,0.064,0.073,-0.979,0.194,0.064,2487.46,5.931,-4.924,11.974,0.440,-0.239,0.865,0.628,-0.611,0.482,10.232,0.198,-10.244,-11.756,0.698,-0.477,0.534,9.939,-13.374,-18.351,-1.603,none
3.032107,-0.287,0.034,-0.957,2474.85,-11.414,-11.191,5.036,0.707,-0.191,0.681,-0.191,-0.044,-0.981,2380.06,-9.288,-17.233,7.610,0.572,-0.195,0.797,-0.722,-0.112,-0.683,2419.58,-9.064,7.833,14.883,0.991,0.035,0.130,-0.968,0.239,0.079,2514.67,-0.336,-4.476,12.981,0.438,-0.230,0.869,0.594,-0.588,0.549,10.166,-0.748,-10.137,-14.992,0.670,-0.426,0.609,10.009,-15.954,-20.504,-3.756,none
3.032302,-0.296,0.003,-0.955,2398.80,-12.198,-13.093,7.610,0.699,-0.206,0.684,-0.214,-0.041,-0.976,2301.43,-9.736,-13.429,7.945,0.559,-0.204,0.804,-0.726,-0.109,-0.679,2404.85,-8.952,9.848,12.198,0.994,0.065,0.089,-0.963,0.262,0.067,2518.56,1.455,-2.462,14.436,0.445,-0.280,0.851,0.654,-0.570,0.497,10.388,-2.137,-10.076,-21.191,0.717,-0.444,0.537,9.923,-22.031,-20.977,-7.252,none
3.032450,-0.300,0.088,-0.950,2401.61,-13.205,-9.848,11.750,0.709,-0.177,0.682,-0.133,-0.023,-0.991,2457.36,-12.533,-7.722,9.512,0.605,-0.195,0.772,-0.695,-0.119,-0.709,2428.02,-7.833,11.974,12.422,0.987,0.026,0.160,-0.964,0.257,0.063,2493.71,6.938,-1.007,14.548,0.418,-0.251,0.873,0.661,-0.568,0.490,10.504,-1.695,-8.290,-14.641,0.749,-0.473,0.463,10.108,-15.847,-18.580,-5.756,none
3.032578,-0.294,0.102,-0.950,2452.84,-13.764,-9.176,8.393,0.709,-0.177,0.682,-0.173,0.022,-0.985,2391.68,-12.869,-10.855,9.736,0.583,-0.220,0.782,-0.678,-0.129,-0.723,2474.30,-9.288,10.631,15.779,0.991,0.043,0.130,-0.962,0.263,0.071,2509.62,6.267,-3.357,13.988,0.424,-0.234,0.875,0.677,-0.572,0.462,10.381,-0.534,-10.229,-15.267,0.726,-0.457,0.514,10.079,-12.779,-19.191,-3.954,none
3.032711,-0.327,0.100,-0.940,2416.53,-13.653,-8.505,4.812,0.718,-0.227,0.658,-0.186,0.013,-0.982,2437.86,-14.324,-11.302,4.476,0.561,-0.210,0.800,-0.691,-0.063,-0.720,2443.43,-10.743,9.512,15.779,0.987,0.041,0.154,-0.959,0.276,0.070,2529.73,3.021,-4.588,14.883,0.418,-0.281,0.864,0.681,-0.567,0.464,10.341,2.198,-11.511,-13.038,0.739,-0.458,0.493,10.140,-11.710,-20.565,-3.878,none
3.032846,-0.318,0.110,-0.942,2454.09,-17.345,-6.379,2.910,0.688,-0.203,0.697,-0.186,0.021,-0.982,2447.05,-16.450,-12.086,5.036,0.610,-0.214,0.763,-0.675,-0.050,-0.736,2459.14,-12.086,8.169,11.862,0.987,0.012,0.160,-0.951,0.299,0.078,2529.09,-1.567,-3.581,15.667,0.397,-0.251,0.883,0.690,-0.554,0.466,10.468,4.626,-12.443,-13.618,0.745,-0.446,0.495,10.221,-12.718,-21.924,-3.710,none
3.032982,-0.296,0.112,-0.949,2507.53,-17.569,-7.833,3.245,0.725,-0.182,0.664,-0.189,0.045,-0.981,2450.70,-14.660,-14.436,6.267,0.607,-0.253,0.754,-0.677,-0.035,-0.735,2450.12,-12.310,6.714,8.505,0.985,0.049,0.164,-0.944,0.323,0.066,2557.88,-2.126,-2.686,15.779,0.413,-0.269,0.870,0.667,-0.529,0.524,10.553,1.664,-10.901,-16.198,0.762,-0.430,0.485,10.281,-13.420,-21.924,-4.656,none
3.033081,-0.303,0.161,-0.939,2471.43,-17.457,-9.400,5.707,0.702,-0.222,0.677,-0.162,0.052,-0.985,2488.46,-13.876,-14.772,7.833,0.644,-0.220,0.733,-0.667,-0.038,-0.744,2471.83,-10.183,5.931,8.617,0.986,0.018,0.165,-0.940,0.338,0.054,2558.66,1.007,-1.567,14.772,0.424,-0.289,0.859,0.704,-0.511,0.494,10.754,-3.634,-8.122,-21.557,0.777,-0.394,0.491,10.588,-15.527,-18.168,-5.664,none
3.033171,-0.231,0.156,-0.960,2610.58,-12.310,-8.505,7.945,0.724,-0.254,0.642,-0.153,0.087,-0.984,2511.37,-12.757,-17.122,13.429,0.633,-0.253,0.732,-0.644,-0.046,-0.763,2499.11,-7.833,6.155,12.198,0.987,0.019,0.160,-0.936,0.349,0.047,2539.20,4.029,-2.910,13.093,0.389,-0.253,0.886,0.740,-0.490,0.462,11.244,-2.687,-7.802,-12.519,0.795,-0.406,0.450,10.689,-16.641,-15.099,-3.374,none
3.033257,-0.294,0.209,-0.933,2520.51,-9.512,-15.779,11.526,0.747,-0.212,0.631,-0.131,0.096,-0.987,2574.10,-6.938,-22.493,16.450,0.599,-0.268,0.755,-0.619,-0.037,-0.784,2519.95,-5.371,2.798,14.995,0.989,0.005,0.148,-0.940,0.337,0.051,2536.91,4.029,-8.729,7.833,0.390,-0.245,0.887,0.709,-0.517,0.481,10.786,-6.534,-5.359,-8.183,0.778,-0.414,0.472,10.543,-16.748,-8.519,-0.992,none
3.033344,-0.341,0.220,-0.914,2431.42,-5.036,-13.541,8.617,0.734,-0.280,0.619,-0.289,0.141,-0.947,2312.05,-3.581,-20.926,14.548,0.681,-0.287,0.674,-0.648,-0.034,-0.761,2496.92,-4.364,-3.245,15.779,0.992,-0.009,0.125,-0.933,0.352,0.073,2566.82,3.693,-9.064,5.148,0.378,-0.272,0.885,0.711,-0.531,0.461,10.719,-7.435,-3.084,-5.878,0.767,-0.431,0.475,10.493,-17.878,-6.794,-0.534,none
3.033430,-0.288,0.136,-0.948,2571.91,-1.119,-8.952,6.714,0.752,-0.214,0.624,-0.199,0.069,-0.978,2480.44,-2.350,-6.938,6.714,0.674,-0.270,0.688,-0.678,0.009,-0.735,2433.89,-4.364,-3.245,16.338,0.994,-0.025,0.110,-0.936,0.347,0.065,2579.70,5.707,-8.617,3.805,0.388,-0.253,0.886,0.698,-0.530,0.482,10.591,-7.328,-2.458,-6.901,0.764,-0.422,0.488,10.446,-20.168,-7.069,0.351,none
3.033518,-0.292,0.163,-0.942,2503.14,1.231,-12.981,8.729,0.729,-0.253,0.636,-0.134,0.058,-0.989,2588.62,-1.790,-5.260,5.483,0.666,-0.264,0.698,-0.671,-0.035,-0.740,2456.66,1.007,-1.119,10.407,0.994,-0.009,0.110,-0.936,0.346,0.059,2527.95,6.491,-6.938,3.581,0.367,-0.263,0.892,0.686,-0.525,0.504,10.515,-12.198,-3.878,-9.756,0.756,-0.395,0.521,10.457,-24.534,-7.374,1.832,none
3.033613,-0.257,0.126,-0.958,2535.26,2.462,-16.003,9.512,0.764,-0.230,0.603,-0.227,0.073,-0.971,2343.52,-0.336,-11.302,6.938,0.655,-0.266,0.708,-0.646,-0.069,-0.761,2523.12,-0.560,-2.462,12.310,0.992,-0.009,0.124,-0.942,0.329,0.059,2540.14,6.155,-9.848,3.917,0.359,-0.228,0.905,0.709,-0.530,0.465,10.648,-12.611,-7.924,-8.473,0.745,-0.411,0.526,10.422,-34.061,-10.122,3.893,none
3.033707,-0.276,0.107,-0.955,2541.66,3.357,-22.493,13.317,0.742,-0.236,0.627,-0.184,0.045,-0.982,2469.63,-2.798,-3.245,0.895,0.698,-0.295,0.653,-0.673,-0.054,-0.738,2479.00,-1.790,-3.581,13.653,0.983,-0.035,0.178,-0.943,0.324,0.075,2519.24,12.645,-8.057,5.819,0.315,-0.214,0.925,0.690,-0.546,0.475,10.491,-13.313,-8.260,-5.756,0.743,-0.418,0.523,10.437,-42.626,-11.481,5.145,none
3.033793,-0.300,0.124,-0.946,2504.15,2.686,-27.081,15.891,0.754,-0.260,0.604,-0.221,0.054,-0.974,2407.13,-1.455,-3.581,0.000,0.732,-0.242,0.637,-0.691,-0.051,-0.721,2442.51,0.224,-0.895,14.100,0.989,-0.003,0.149,-0.945,0.321,0.066,2545.21,11.302,-10.407,5.148,0.294,-0.197,0.935,0.663,-0.553,0.505,10.298,-16.214,-9.496,-10.031,0.739,-0.429,0.520,10.235,-50.931,-11.756,5.695,none
3.041812,-0.318,0.098,-0.943,2450.02,7.162,-29.319,18.576,0.754,-0.260,0.604,-0.245,0.056,-0.968,2330.77,-1.231,2.014,-3.357,0.694,-0.271,0.667,-0.675,-0.050,-0.736,2459.14,0.671,2.462,14.436,0.995,-0.002,0.100,-0.952,0.303,0.046,2567.30,6.938,-7.274,6.267,0.281,-0.194,0.940,0.678,-0.551,0.487,10.317,-19.069,-11.603,-15.252,0.753,-0.489,0.440,9.952,-52.382,-14.458,4.519,none
3.042017,-0.365,0.137,-0.921,2403.57,3.469,-28.536,18.688,0.764,-0.256,0.592,-0.204,0.038,-0.978,2417.55,-4.588,11.191,-8.952,0.656,-0.293,0.696,-0.688,-0.070,-0.722,2466.80,2.126,4.252,14.212,0.988,-0.019,0.152,-0.949,0.307,0.066,2532.98,11.862,-10.295,8.393,0.256,-0.192,0.947,0.713,-0.546,0.440,10.577,-23.939,-7.450,-17.969,0.754,-0.508,0.417,10.107,-45.038,-13.832,3.527,none
3.042170,-0.351,0.123,-0.928,2446.14,1.455,-24.172,16.003,0.797,-0.268,0.541,-0.110,0.005,-0.994,2606.88,-6.491,10.295,-9.288,0.677,-0.293,0.675,-0.672,-0.058,-0.738,2453.44,0.000,6.714,16.786,0.989,-0.041,0.142,-0.951,0.300,0.076,2488.23,10.967,-11.191,9.400,0.241,-0.181,0.953,0.665,-0.562,0.492,10.137,-28.046,-6.534,-17.679,0.740,-0.459,0.492,10.175,-48.534,-12.443,4.580,none
3.046644,-0.331,0.103,-0.938,2441.64,-0.224,-27.417,16.226,0.791,-0.228,0.567,-0.179,0.033,-0.983,2425.52,-5.819,-2.686,-4.029,0.678,-0.290,0.676,-0.676,-0.059,-0.734,2437.98,-1.231,7.162,18.800,0.990,-0.011,0.141,-0.946,0.316,0.079,2492.79,8.729,-12.533,9.848,0.251,-0.184,0.950,0.679,-0.571,0.462,10.111,-34.046,-11.160,-25.130,0.739,-0.507,0.444,9.948,-54.153,-12.748,5.374,none
3.071326,-0.373,0.107,-0.922,2433.48,-1.007,-27.529,15.331,0.790,-0.260,0.555,-0.230,0.047,-0.972,2352.00,-7.722,2.014,-9.400,0.653,-0.298,0.696,-0.688,-0.019,-0.726,2425.25,-0.560,9.176,16.898,0.990,-0.042,0.133,-0.953,0.290,0.082,2510.79,16.450,-11.079,11.974,0.233,-0.176,0.957,0.736,-0.594,0.326,10.316,-26.656,-15.053,-22.321,0.725,-0.567,0.390,9.938,-47.832,-17.237,6.641,none
3.092399,-0.357,0.061,-0.932,2488.85,-2.798,-30.215,14.548,0.813,-0.259,0.522,-0.174,-0.003,-0.985,2500.95,-7.162,3.245,-12.757,0.658,-0.287,0.696,-0.694,0.002,-0.720,2403.87,-3.021,11.079,13.429,0.985,-0.027,0.169,-0.955,0.278,0.099,2506.84,14.212,-5.148,12.869,0.212,-0.162,0.964,0.720,-0.592,0.361,10.340,-16.183,-16.153,-15.588,0.720,-0.572,0.393,9.941,-43.557,-21.924,7.695,none
3.119639,-0.445,0.114,-0.888,2368.79,-8.281,-34.691,14.212,0.827,-0.273,0.492,-0.198,0.001,-0.980,2433.42,-5.931,-5.931,-9.960,0.680,-0.285,0.676,-0.685,-0.027,-0.728,2406.12,-0.112,11.526,6.826,0.996,-0.024,0.089,-0.957,0.271,0.104,2472.05,2.462,-6.267,12.869,0.202,-0.144,0.969,0.656,-0.613,0.440,9.930,-20.321,-16.427,-17.847,0.705,-0.536,0.465,10.040,-45.756,-21.084,10.183,none
3.549190,-0.420,0.089,-0.903,2393.58,-8.841,-30.774,6.826,0.801,-0.306,0.515,-0.200,-0.032,-0.979,2365.03,-5.931,-7.722,-12.645,0.650,-0.321,0.689,-0.658,-0.079,-0.749,2416.83,-3.133,9.512,1.231,0.981,-0.044,0.187,-0.967,0.235,0.094,2425.14,1.567,-5.036,14.436,0.186,-0.146,0.972,0.665,-0.626,0.407,9.685,-23.053,-24.656,-23.435,0.682,-0.569,0.460,9.534,-51.817,-25.405,13.344,A
3.551035,-0.417,0.019,-0.909,2315.60,-10.295,-35.027,4.812,0.822,-0.295,0.488,-0.170,-0.036,-0.985,2380.08,-9.064,-12.198,-18.576,0.635,-0.288,0.717,-0.657,-0.106,-0.746,2463.98,-14.212,4.252,-8.057,0.975,-0.060,0.212,-0.967,0.242,0.073,2435.27,-5.260,-6.602,17.122,0.186,-0.152,0.971,0.696,-0.617,0.369,9.518,-17.160,-34.824,-25.725,0.680,-0.618,0.395,9.189,-46.626,-38.366,14.031,A
3.551281,-0.442,0.033,-0.896,2271.77,-22.605,-34.131,-1.119,0.825,-0.297,0.480,-0.164,-0.082,-0.983,2345.87,-20.591,-15.107,-24.172,0.628,-0.277,0.728,-0.686,-0.157,-0.711,2477.02,-21.598,6.938,-8.057,0.983,-0.058,0.173,-0.962,0.263,0.073,2429.58,-13.093,-7.386,24.172,0.198,-0.155,0.968,0.710,-0.595,0.377,9.516,-16.076,-39.985,-30.901,0.694,-0.602,0.396,9.281,-45.221,-48.031,11.008,A
3.551470,-0.416,0.019,-0.909,2370.28,-31.557,-35.698,-0.783,0.850,-0.280,0.446,-0.215,-0.061,-0.975,2376.29,-33.124,-20.479,-22.381,0.611,-0.302,0.732,-0.677,-0.031,-0.735,2435.67,-37.488,9.512,-4.141,0.974,-0.061,0.219,-0.935,0.339,0.108,2468.18,-25.291,-10.631,33.236,0.186,-0.152,0.971,0.766,-0.570,0.298,9.921,-14.168,-45.084,-36.244,0.724,-0.613,0.316,9.721,-45.985,-57.832,8.763,A
3.551655,-0.440,0.095,-0.893,2443.04,-45.210,-42.188,2.014,0.831,-0.315,0.457,-0.240,0.045,-0.970,2459.64,-39.279,-25.291,-18.241,0.681,-0.319,0.659,-0.586,0.115,-0.802,2512.76,-36.034,8.393,-16.226,0.980,-0.080,0.181,-0.916,0.378,0.137,2519.82,-30.998,-9.288,38.608,0.196,-0.189,0.962,0.811,-0.530,0.250,10.294,-9.634,-45.450,-38.687,0.763,-0.600,0.240,10.166,-44.733,-63.573,6.351,A
3.551830,-0.445,0.200,-0.873,2523.96,-49.574,-49.798,8.841,0.857,-0.291,0.424,-0.257,0.149,-0.955,2528.10,-33.236,-26.857,-15.667,0.689,-0.323,0.649,-0.589,0.044,-0.807,2533.09,-31.893,-9.400,-27.753,0.988,-0.050,0.146,-0.889,0.436,0.138,2571.15,-28.760,-2.910,35.250,0.195,-0.224,0.955,0.840,-0.483,0.248,10.609,-5.817,-46.351,-37.053,0.804,-0.570,0.167,10.683,-41.771,-62.290,5.939,A
3.551998,-0.530,0.358,-0.769,2508.31,-47.784,-53.267,12.533,0.857,-0.324,0.401,-0.263,0.177,-0.948,2503.46,-29.543,-30.998,-13.093,0.756,-0.317,0.573,-0.578,0.119,-0.807,2581.47,-36.593,-39.838,-40.174,0.981,-0.094,0.168,-0.875,0.466,0.130,2569.23,-31.446,-3.693,32.117,0.193,-0.217,0.957,0.870,-0.449,0.201,10.930,-1.893,-44.962,-33.969,0.807,-0.583,0.094,10.749,-33.649,-54.901,5.008,A
3.552150,-0.573,0.384,-0.724,2489.13,-39.838,-43.196,8.505,0.863,-0.327,0.384,-0.275,0.167,-0.947,2540.32,-26.969,-32.117,-8.841,0.704,-0.330,0.628,-0.689,0.049,-0.723,2449.58,-29.655,-43.867,-39.503,0.994,-0.018,0.106,-0.851,0.504,0.146,2629.52,-29.096,-7.050,29.319,0.194,-0.228,0.954,0.888,-0.433,0.158,11.309,5.679,-37.634,-24.855,0.792,-0.610,0.020,11.045,-20.214,-46.092,0.076,A
3.552278,-0.625,0.400,-0.671,2567.25,-37.041,-25.962,3.917,0.857,-0.366,0.362,-0.325,0.172,-0.930,2575.28,-25.403,-35.586,2.798,0.743,-0.329,0.583,-0.715,0.123,-0.689,2415.25,-29.543,-30.774,-28.760,0.994,-0.018,0.106,-0.850,0.501,0.164,2702.57,-29.991,-3.133,25.626,0.180,-0.244,0.953,0.888,-0.441,0.127,11.393,14.122,-25.695,-16.489,0.805,-0.590,0.064,11.447,-9.847,-35.420,-3.634,A
3.552400,-0.554,0.364,-0.748,2680.81,-32.117,-11.079,1.231,0.879,-0.332,0.341,-0.436,0.253,-0.864,2569.21,-24.284,-34.579,6.602,0.754,-0.339,0.563,-0.691,0.223,-0.688,2474.53,-21.822,-24.619,-27.865,0.995,-0.032,0.091,-0.837,0.516,0.181,2721.60,-16.786,4.141,17.345,0.194,-0.270,0.943,0.892,-0.423,0.157,11.555,21.023,-12.290,-9.786,0.828,-0.540,0.152,11.368,-12.076,-26.443,-4.748,A
3.552519,-0.457,0.358,-0.814,2755.51,-19.807,-16.898,10.855,0.878,-0.351,0.326,-0.398,0.290,-0.870,2616.31,-8.393,-22.381,14.548,0.744,-0.342,0.573,-0.747,0.172,-0.643,2419.99,0.000,-8.169,-28.760,0.997,-0.024,0.075,-0.833,0.526,0.172,2688.11,-11.191,11.079,7.610,0.183,-0.238,0.954,0.864,-0.425,0.269,10.918,16.290,-4.489,-4.229,0.842,-0.513,0.165,11.248,-23.618,-16.931,-1.511,A
3.552658,-0.465,0.388,-0.796,2669.22,-7.050,-26.522,18.017,0.867,-0.363,0.341,-0.228,0.203,-0.952,2719.78,4.476,-36.034,25.738,0.755,-0.335,0.563,-0.703,0.093,-0.705,2455.17,10.743,-2.350,-26.745,0.998,-0.024,0.051,-0.843,0.519,0.143,2609.89,-10.295,10.072,-0.448,0.222,-0.275,0.936,0.852,-0.423,0.307,10.840,5.557,0.550,-5.023,0.837,-0.533,0.121,11.018,-25.603,-7.786,1.160,A
3.552819,-0.509,0.381,-0.772,2535.55,1.679,-29.096,19.584,0.880,-0.349,0.323,-0.328,0.198,-0.924,2486.07,10.855,-49.015,40.734,0.800,-0.316,0.511,-0.676,-0.010,-0.737,2496.39,16.786,-2.126,-19.024,0.993,-0.017,0.113,-0.869,0.479,0.128,2543.39,-6.155,9.064,-6.714,0.220,-0.287,0.932,0.857,-0.456,0.238,10.653,0.733,4.534,-0.779,0.807,-0.575,0.132,10.570,-20.824,0.397,2.565,A
3.552975,-0.554,0.346,-0.757,2452.98,8.952,-22.941,16.898,0.865,-0.385,0.321,-0.419,0.244,-0.874,2344.35,13.205,-43.196,42.077,0.840,-0.316,0.442,-0.732,-0.031,-0.681,2442.25,16.562,-1.343,-10.407,0.996,-0.009,0.086,-0.884,0.454,0.115,2577.49,3.245,4.700,-8.617,0.223,-0.283,0.933,0.838,-0.479,0.260,10.404,4.840,10.336,1.557,0.792,-0.574,0.208,10.298,-19.603,2.748,0.076,A
3.553108,-0.509,0.270,-0.817,2493.03,12.310,-16.450,16.674,0.873,-0.368,0.320,-0.413,0.129,-0.902,2383.01,13.317,-30.215,36.481,0.814,-0.331,0.477,-0.764,-0.060,-0.643,2403.06,22.493,9.736,-5.260,0.996,0.014,0.093,-0.895,0.433,0.107,2587.36,5.707,4.476,-9.624,0.229,-0.264,0.937,0.814,-0.478,0.331,10.331,3.710,15.710,0.168,0.795,-0.557,0.243,10.281,-26.122,5.618,-2.076,A
3.553231,-0.486,0.244,-0.839,2472.06,16.898,-19.807,24.172,0.865,-0.382,0.326,-0.320,0.086,-0.943,2424.41,7.050,-31.781,44.091,0.843,-0.312,0.439,-0.744,-0.075,-0.664,2429.76,31.893,12.645,-3.357,0.994,-0.009,0.108,-0.906,0.416,0.079,2503.76,8.952,3.133,-9.064,0.231,-0.287,0.930,0.776,-0.499,0.386,9.995,-6.260,11.023,-2.351,0.800,-0.579,0.160,10.489,-23.191,1.908,3.053,A
3.553356,-0.555,0.414,-0.721,2428.55,9.512,-16.898,12.533,0.880,-0.385,0.277,-0.683,0.600,-0.417,2145.79,-19.024,-23.165,17.122,0.845,-0.337,0.416,-0.831,-0.442,-0.337,2608.61,53.827,19.919,2.462,0.995,0.022,0.099,-0.916,0.399,0.044,2487.41,11.414,-3.805,-5.819,0.232,-0.276,0.933,0.827,-0.455,0.329,10.664,-12.305,4.122,-7.771,0.839,-0.538,0.083,11.184,-14.855,2.229,11.802,A
3.553492,-0.694,0.621,-0.364,2551.44,8.505,-0.560,-14.772,0.880,-0.356,0.314,-0.718,0.503,0.481,5889.58,-59.758,65.017,-81.356,0.841,-0.324,0.433,-0.566,-0.814,-0.130,4176.54,44.315,94.896,120.970,0.995,0.014,0.099,-0.934,0.351,-0.072,2690.60,3.357,-38.943,4.700,0.202,-0.252,0.946,0.786,-0.365,0.500,10.936,-6.580,4.382,15.053,0.833,-0.539,-0.126,11.168,42.275,29.863,16.901,A
3.553620,-0.739,0.673,0.025,2952.79,42.972,74.194,-47.560,0.870,-0.380,0.315,-0.331,0.636,0.696,5983.06,-164.390,684.976,-469.333,0.736,-0.338,0.586,-0.494,-0.843,-0.212,3216.86,-49.239,213.069,316.358,0.980,-0.013,0.199,-0.925,0.371,-0.077,2780.49,13.764,-77.103,17.345,0.213,-0.238,0.948,0.712,-0.474,0.518,10.193,-6.443,-6.382,39.298,0.730,-0.652,0.204,9.886,114.733,74.779,6.901,A
3.553752,-0.423,-0.699,-0.577,3258.65,97.134,213.740,-118.061,0.882,-0.316,0.350,0.647,-0.581,-0.494,21739.19,-171.328,364.589,-165.844,0.318,-0.415,0.852,0.091,0.606,-0.791,11519.56,-889.316,186.547,-4.700,0.967,-0.095,0.237,-0.484,0.641,0.597,2682.11,35.250,-32.453,-5.036,0.173,-0.222,0.959,0.602,-0.798,-0.034,8.931,-28.885,23.542,-25.313,0.415,-0.656,0.631,8.764,45.969,27.969,-18.550,A
3.555141,0.158,-0.096,-0.983,5873.01,-98.925,110.339,-50.917,0.833,-0.320,0.452,0.059,-0.742,-0.667,3748.98,-123.544,41.965,100.156,0.201,-0.647,0.736,-0.262,0.959,0.107,4340.02,-93.553,30.326,16.003,0.957,-0.091,0.277,-0.825,-0.421,0.378,2394.56,-21.038,1.231,-4.700,0.123,-0.182,0.976,0.788,-0.615,0.020,9.839,-16.580,-25.878,-35.847,0.808,-0.404,0.429,11.686,-15.099,-47.924,11.985,A
3.564341,-0.474,0.121,-0.872,2164.09,-2.238,-54.946,14.436,0.836,-0.314,0.450,0.061,0.475,-0.878,2692.34,-62.779,18.464,-27.193,0.164,-0.642,0.749,-0.464,0.211,-0.860,2434.72,-10.855,-6.155,21.486,0.931,-0.093,0.354,-0.878,0.460,0.132,2603.85,-19.024,-22.717,7.050,0.108,-0.159,0.981,0.765,-0.393,0.510,11.078,-43.053,-25.145,-28.366,0.769,-0.575,0.279,10.217,-25.954,-10.336,18.427,A
3.586373,-0.512,0.367,-0.777,2634.58,-4.364,-19.919,3.581,0.853,-0.318,0.413,-0.115,0.427,-0.897,2418.34,-10.407,16.338,-42.748,0.190,-0.700,0.688,-0.654,0.137,-0.744,2326.14,16.898,-6.379,36.593,0.954,-0.116,0.276,-0.867,0.472,0.159,2661.06,-7.722,-25.291,4.476,0.100,-0.152,0.983,0.824,-0.472,0.314,9.744,-65.298,-1.237,-54.595,0.752,-0.572,0.327,9.840,-35.328,4.260,2.107,A
3.608796,-0.342,0.161,-0.926,2539.11,1.790,-24.955,31.110,0.860,-0.335,0.386,0.099,0.534,-0.840,2558.94,25.738,20.367,-26.186,0.150,-0.682,0.716,-0.495,0.006,-0.869,2500.46,57.631,-4.252,63.227,0.943,-0.101,0.316,-0.890,0.427,0.160,2393.50,14.212,-15.107,2.686,0.084,-0.164,0.983,0.882,-0.431,0.191,10.471,-63.114,-1.008,-48.458,0.753,-0.537,0.380,9.793,-48.427,-0.962,0.198,A
3.632891,-0.347,0.096,-0.933,2499.01,8.169,-33.907,35.027,0.838,-0.349,0.419,-0.009,0.562,-0.827,2467.22,10.967,-6.491,-17.345,0.196,-0.680,0.706,-0.428,0.005,-0.904,2707.21,45.658,-23.388,64.905,0.937,-0.060,0.345,-0.878,0.438,0.192,2513.48,38.943,-19.919,7.162,0.038,-0.102,0.994,0.872,-0.473,0.131,10.249,-58.794,-7.634,-46.061,0.739,-0.620,0.263,10.296,-65.344,-10.397,-0.183,A
4.056426,-0.507,0.219,-0.834,2583.10,-4.252,-53.827,45.434,0.863,-0.335,0.379,-0.242,0.563,-0.791,2445.23,-31.446,-15.779,-32.117,0.157,-0.684,0.712,-0.554,0.147,-0.819,2496.43,36.146,-34.243,50.470,0.962,-0.102,0.252,-0.899,0.397,0.186,2645.15,40.510,-12.757,8.281,0.022,-0.090,0.996,0.882,-0.451,0.140,10.066,-52.809,4.855,-51.237,0.728,-0.669,0.150,10.044,-65.527,-7.145,-7.985,A
4.058834,-0.625,0.327,-0.709,2359.79,1.231,-44.091,51.253,0.860,-0.363,0.360,-0.084,0.443,-0.893,2463.56,-28.872,-6.938,-24.955,0.207,-0.692,0.692,-0.578,0.006,-0.816,2327.11,47.224,-18.800,34.579,0.950,-0.116,0.289,-0.863,0.477,0.167,2593.99,22.605,-3.133,7.386,0.003,-0.070,0.998,0.912,-0.386,0.141,10.614,-48.595,2.718,-48.595,0.796,-0.579,0.179,10.364,-61.389,-11.313,-10.885,A
4.059019,-0.448,0.308,-0.840,2507.31,-4.141,-41.853,46.441,0.867,-0.367,0.337,-0.057,0.614,-0.787,2641.31,-11.191,-9.736,-6.714,0.175,-0.712,0.680,-0.500,0.005,-0.866,2553.69,37.377,-6.043,31.893,0.969,-0.083,0.232,-0.864,0.481,0.150,2489.49,23.500,-4.252,9.848,-0.009,-0.065,0.998,0.931,-0.352,0.093,11.265,-38.916,-1.511,-32.595,0.806,-0.582,0.105,10.626,-55.985,-10.534,-5.466,A
4.059162,-0.467,0.322,-0.823,2425.21,-3.357,-42.300,39.615,0.884,-0.380,0.272,-0.055,0.598,-0.799,2529.28,-3.021,-15.779,-1.902,0.195,-0.702,0.684,-0.523,0.025,-0.852,2550.25,28.648,-1.007,38.719,0.954,-0.092,0.284,-0.873,0.464,0.147,2474.39,27.305,-7.610,11.414,-0.016,-0.057,0.998,0.907,-0.401,0.127,10.476,-30.183,-6.977,-18.305,0.783,-0.606,0.141,10.611,-49.313,-8.595,-2.443,A
4.059313,-0.526,0.325,-0.786,2489.87,-6.267,-39.838,35.250,0.875,-0.376,0.304,-0.180,0.554,-0.813,2413.58,5.595,-16.114,1.007,0.201,-0.726,0.658,-0.558,0.081,-0.826,2462.73,26.522,12.198,48.231,0.954,-0.084,0.288,-0.857,0.482,0.179,2689.27,23.053,-12.757,10.072,-0.041,-0.022,0.999,0.895,-0.419,0.149,10.414,-32.519,0.198,-24.641,0.749,-0.651,0.121,10.904,-50.656,-2.672,-7.298,A
4.059463,-0.665,0.346,-0.662,2571.90,1.343,-24.395,33.124,0.868,-0.389,0.309,-0.345,0.552,-0.759,2455.39,-1.455,-5.931,2.014,0.227,-0.696,0.681,-0.623,0.297,-0.723,2393.02,29.096,16.450,38.608,0.960,-0.085,0.268,-0.839,0.516,0.172,2796.64,21.934,0.895,4.252,-0.021,-0.037,0.999,0.924,-0.364,0.115,10.842,-41.573,19.053,-33.115,0.757,-0.653,0.008,10.771,-53.130,11.847,-14.092,A
4.059617,-0.626,0.470,-0.622,2435.70,10.855,-5.036,28.872,0.861,-0.401,0.312,-0.216,0.563,-0.798,2375.02,-5.707,2.238,4.700,0.221,-0.709,0.669,-0.435,-0.083,-0.897,2664.13,25.962,-1.343,15.779,0.955,-0.076,0.288,-0.856,0.490,0.164,2465.52,22.045,2.126,-2.462,-0.038,-0.018,0.999,0.932,-0.359,0.037,10.982,-30.366,24.107,-21.450,0.786,-0.619,-0.010,11.106,-27.160,10.443,-11.725,A
4.059750,-0.520,0.346,-0.781,2481.50,11.974,0.895,18.353,0.858,-0.408,0.311,-0.107,0.602,-0.791,2578.98,-4.476,-4.141,11.526,0.207,-0.732,0.649,-0.498,0.017,-0.867,2584.13,24.507,-7.722,5.371,0.955,-0.056,0.290,-0.864,0.475,0.168,2523.20,19.919,0.448,-5.260,-0.061,0.023,0.998,0.924,-0.379,0.054,10.586,-16.458,17.588,-7.786,0.767,-0.634,0.104,10.254,-12.855,9.130,-6.229,A
4.059968,-0.521,0.320,-0.791,2496.91,9.288,1.119,11.191,0.865,-0.407,0.293,-0.130,0.579,-0.805,2512.55,-3.357,-7.722,3.581,0.233,-0.720,0.654,-0.527,0.021,-0.850,2533.01,13.429,-14.548,0.895,0.950,-0.067,0.306,-0.899,0.414,0.144,2535.93,13.988,3.021,-4.252,-0.048,0.014,0.999,0.918,-0.397,0.019,10.489,-1.710,10.076,1.542,0.766,-0.638,0.082,10.430,-8.382,2.931,-3.069,A
4.060143,-0.509,0.305,-0.805,2494.01,5.036,-4.812,9.288,0.861,-0.390,0.327,-0.116,0.574,-0.811,2482.16,0.112,-4.700,-3.917,0.233,-0.709,0.665,-0.529,0.009,-0.848,2502.66,4.588,-9.624,3.357,0.961,-0.092,0.261,-0.926,0.369,0.080,2479.16,-3.245,-0.224,-3.693,-0.048,-0.009,0.999,0.909,-0.399,0.125,10.262,8.122,4.397,5.679,0.773,-0.623,0.122,10.390,-2.366,-1.603,0.107,A
4.060267,-0.552,0.310,-0.774,2426.43,5.148,-5.371,4.364,0.864,-0.401,0.304,-0.153,0.533,-0.832,2381.04,4.924,-1.567,-6.267,0.250,-0.707,0.661,-0.602,0.038,-0.798,2415.16,0.112,-7.050,6.155,0.951,-0.083,0.298,-0.857,0.487,0.170,2544.12,-0.112,0.448,-4.364,-0.053,0.029,0.998,0.892,-0.388,0.232,10.143,-4.076,9.817,-0.473,0.779,-0.587,0.222,10.038,-9.237,3.985,-4.321,A
4.060385,-0.512,0.260,-0.818,2402.06,7.498,0.560,8.169,0.854,-0.423,0.303,-0.078,0.506,-0.859,2410.54,4.588,1.343,2.126,0.257,-0.733,0.629,-0.603,-0.003,-0.798,2392.23,8.281,2.798,12.422,0.966,-0.083,0.244,-0.870,0.465,0.162,2493.07,10.967,-0.336,-4.364,-0.056,0.014,0.998,0.898,-0.415,0.147,10.126,-6.931,9.649,-0.046,0.769,-0.620,0.154,10.292,-12.366,5.969,-3.954,A
4.060504,-0.508,0.301,-0.807,2462.47,7.274,-0.224,7.945,0.854,-0.405,0.327,-0.065,0.511,-0.857,2461.70,2.574,-2.910,7.498,0.237,-0.708,0.666,-0.575,-0.051,-0.817,2443.48,12.198,0.112,12.869,0.968,-0.050,0.247,-0.892,0.429,0.146,2498.70,11.191,-3.917,-3.693,-0.063,0.031,0.998,0.899,-0.427,0.102,10.277,-2.031,7.191,2.718,0.746,-0.655,0.121,10.285,-6.992,2.947,-2.565,A
4.060620,-0.565,0.290,-0.773,2457.58,3.469,-0.448,4.700,0.861,-0.386,0.331,-0.113,0.527,-0.843,2446.10,2.350,-3.917,5.707,0.243,-0.695,0.677,-0.560,-0.006,-0.828,2469.36,6.826,-0.671,11.302,0.958,-0.066,0.280,-0.896,0.413,0.160,2520.33,9.512,-3.021,-2.238,-0.105,0.065,0.992,0.885,-0.452,0.113,9.846,6.244,3.634,3.435,0.740,-0.648,0.177,10.085,-2.122,-4.473,-1.099,A
4.060770,-0.534,0.233,-0.813,2469.50,0.000,-0.560,0.224,0.847,-0.401,0.348,-0.119,0.530,-0.839,2501.83,6.379,-0.448,-1.343,0.253,-0.721,0.645,-0.580,-0.011,-0.814,2452.27,2.910,-3.357,1.567,0.958,-0.085,0.275,-0.892,0.423,0.160,2531.56,0.336,2.798,1.679,-0.092,0.062,0.994,0.882,-0.440,0.170,9.692,7.267,-0.061,-4.076,0.741,-0.643,0.192,9.767,-4.214,-10.626,-3.557,A
4.060914,-0.500,0.231,-0.835,2403.51,-4.476,-1.231,1.343,0.871,-0.404,0.280,-0.099,0.510,-0.855,2410.54,3.693,-0.560,-5.260,0.247,-0.713,0.657,-0.594,-0.031,-0.804,2410.62,0.783,-3.581,-1.231,0.956,-0.114,0.269,-0.883,0.442,0.158,2489.26,0.000,5.483,5.483,-0.092,0.062,0.994,0.889,-0.423,0.178,9.921,8.336,-1.817,-5.847,0.762,-0.629,0.154,10.016,-1.725,-14.000,-4.550,A
4.062186,-0.556,0.282,-0.782,2353.43,-8.057,-2.238,2.462,0.854,-0.415,0.312,-0.099,0.507,-0.856,2406.31,-1.343,-2.014,-8.057,0.208,-0.703,0.680,-0.586,-0.015,-0.810,2427.22,0.671,-3.021,0.783,0.969,-0.075,0.234,-0.880,0.448,0.154,2497.49,1.007,4.252,7.274,-0.075,0.044,0.996,0.885,-0.426,0.191,9.915,2.763,-1.756,-10.672,0.770,-0.615,0.169,10.218,-1.618,-12.076,-5.481,A
4.062320,-0.533,0.288,-0.795,2437.73,-8.841,3.469,-1.567,0.858,-0.412,0.307,-0.113,0.542,-0.833,2450.17,-4.252,-3.693,-8.169,0.261,-0.742,0.618,-0.562,0.009,-0.827,2461.14,1.679,-3.133,-0.112,0.969,-0.127,0.213,-0.882,0.447,0.149,2504.79,1.567,3.917,7.274,-0.084,0.034,0.996,0.907,-0.406,0.110,10.587,5.588,-3.573,-9.038,0.781,-0.604,0.160,10.543,-3.878,-12.229,-2.992,A
4.062443,-0.518,0.298,-0.802,2490.52,-9.512,0.112,-1.231,0.865,-0.411,0.288,-0.118,0.522,-0.844,2427.49,-1.567,-5.260,-5.931,0.291,-0.735,0.612,-0.589,-0.018,-0.808,2434.05,5.707,-4.252,-2.238,0.953,-0.074,0.295,-0.877,0.456,0.149,2517.89,-1.902,1.231,6.267,-0.086,0.041,0.995,0.898,-0.398,0.190,10.262,5.527,-2.321,-5.206,0.787,-0.587,0.189,10.351,-5.649,-10.473,-0.427,A
4.062570,-0.495,0.302,-0.815,2486.77,-6.043,-3.021,0.112,0.865,-0.414,0.282,-0.133,0.510,-0.850,2369.33,3.133,-5.707,2.126,0.284,-0.715,0.639,-0.582,0.002,-0.813,2429.23,9.064,0.783,1.455,0.972,-0.108,0.208,-0.870,0.473,0.141,2516.24,-1.343,0.112,4.700,-0.078,0.027,0.997,0.901,-0.395,0.178,10.250,1.344,-0.656,-2.366,0.778,-0.613,0.139,10.213,-8.947,-6.794,-0.489,A
4.076625,-0.529,0.335,-0.780,2420.55,-3.805,-3.469,2.574,0.857,-0.423,0.294,-0.117,0.553,-0.825,2451.45,2.462,-10.072,6.379,0.299,-0.719,0.628,-0.569,0.009,-0.822,2451.13,11.862,1.902,0.112,0.962,-0.102,0.252,-0.884,0.442,0.152,2466.28,2.686,-2.238,5.595,-0.068,0.022,0.997,0.902,-0.421,0.092,10.097,4.092,-4.107,-0.565,0.759,-0.646,0.085,10.282,-0.489,-9.221,3.099,A
4.103337,-0.581,0.329,-0.744,2405.78,-7.945,3.917,-11.191,0.865,-0.408,0.294,-0.141,0.529,-0.837,2451.23,-4.812,-11.079,-8.841,0.266,-0.701,0.661,-0.556,-0.014,-0.831,2507.51,-0.448,0.671,-4.812,0.956,-0.066,0.284,-0.883,0.442,0.155,2534.32,-2.574,-2.686,7.833,-0.081,0.026,0.996,0.897,-0.416,0.149,9.882,10.046,-4.107,-1.328,0.742,-0.649,0.166,9.887,5.420,-12.885,0.366,A
4.119288,-0.550,0.214,-0.807,2414.77,-9.736,9.736,-13.317,0.860,-0.413,0.300,-0.184,0.506,-0.843,2409.15,-12.981,-6.267,-12.981,0.304,-0.716,0.628,-0.606,0.026,-0.795,2413.29,-3.917,8.057,-7.050,0.958,-0.116,0.261,-0.862,0.479,0.167,2585.37,-6.267,2.238,10.407,-0.089,0.028,0.996,0.904,-0.397,0.159,9.935,7.496,-1.252,-7.756,0.782,-0.590,0.200,10.070,-1.863,-15.695,-6.229,A
4.142680,-0.460,0.268,-0.846,2438.78,-12.198,5.260,-3.245,0.863,-0.414,0.291,-0.093,0.539,-0.837,2461.00,-9.624,-5.931,-3.805,0.285,-0.717,0.637,-0.577,-0.043,-0.816,2435.20,5.931,6.491,-8.729,0.951,-0.083,0.298,-0.851,0.508,0.133,2515.32,-1.119,4.141,11.079,-0.070,0.021,0.997,0.909,-0.361,0.210,10.398,5.053,-2.840,-10.015,0.813,-0.547,0.198,10.413,-9.908,-13.878,-6.183,A
4.567127,-0.468,0.343,-0.814,2502.17,-10.855,-0.671,4.476,0.870,-0.416,0.266,-0.114,0.554,-0.824,2428.26,-6.714,-12.086,2.238,0.303,-0.732,0.610,-0.572,0.026,-0.820,2436.23,6.714,1.343,-3.693,0.964,-0.041,0.263,-0.855,0.504,0.125,2516.21,6.267,-0.112,10.295,-0.102,0.045,0.994,0.912,-0.374,0.167,10.507,-1.191,-2.748,-9.420,0.793,-0.596,0.124,10.602,-13.053,-8.947,-5.374,A
4.567336,-0.539,0.346,-0.768,2484.20,-6.155,-3.693,7.722,0.855,-0.422,0.301,-0.170,0.544,-0.822,2438.10,-3.133,-16.338,10.407,0.283,-0.734,0.617,-0.554,-0.015,-0.832,2479.77,14.883,2.014,-3.357,0.968,-0.065,0.244,-0.868,0.474,0.144,2588.70,6.602,-0.224,7.610,-0.103,0.033,0.994,0.913,-0.400,0.077,10.495,2.656,0.351,-5.435,0.760,-0.648,0.061,10.699,-6.763,-8.489,-4.992,A
4.567487,-0.562,0.371,-0.739,2555.04,-3.693,2.574,2.238,0.860,-0.436,0.266,-0.193,0.557,-0.808,2503.56,-1.679,-9.624,6.938,0.335,-0.708,0.622,-0.544,0.009,-0.839,2507.56,11.302,-1.007,-11.974,0.953,-0.050,0.297,-0.868,0.472,0.151,2601.21,0.560,3.805,6.043,-0.092,0.035,0.995,0.913,-0.385,0.137,10.416,6.275,3.542,-7.099,0.783,-0.611,0.116,10.560,-0.168,-9.130,-5.496,A
4.567611,-0.512,0.330,-0.793,2518.14,-4.588,7.945,-2.574,0.849,-0.436,0.299,-0.147,0.553,-0.820,2487.61,-1.902,-6.714,4.141,0.331,-0.731,0.596,-0.562,-0.002,-0.827,2446.32,11.191,-5.819,-19.584,0.976,-0.023,0.218,-0.857,0.496,0.142,2554.43,-3.469,7.274,4.700,-0.109,0.037,0.993,0.910,-0.370,0.185,10.213,3.588,6.031,-7.832,0.804,-0.568,0.176,10.316,-2.763,-7.939,-5.527,A
4.567732,-0.453,0.307,-0.837,2479.09,-4.252,5.260,-0.448,0.853,-0.438,0.284,-0.116,0.564,-0.818,2473.23,0.224,-6.714,5.148,0.257,-0.733,0.629,-0.573,-0.075,-0.816,2434.11,13.429,-9.736,-22.269,0.956,-0.024,0.294,-0.850,0.512,0.122,2493.62,-1.231,6.938,4.141,-0.091,0.016,0.996,0.910,-0.354,0.216,10.405,-1.634,6.824,-8.595,0.812,-0.555,0.180,10.382,-8.061,-6.916,-5.420,A
4.567852,-0.506,0.301,-0.808,2433.16,0.783,-0.336,6.043,0.835,-0.447,0.321,-0.131,0.539,-0.832,2406.26,2.686,-8.729,11.414,0.308,-0.708,0.635,-0.556,-0.054,-0.829,2488.68,13.876,-4.588,-13.093,0.990,-0.037,0.140,-0.860,0.492,0.132,2535.05,5.036,2.238,4.364,-0.101,0.034,0.994,0.912,-0.385,0.143,10.287,-6.626,6.672,-5.618,0.787,-0.604,0.122,10.462,-9.893,-5.481,-5.298,A
4.568083,-0.519,0.352,-0.779,2523.68,-1.119,-0.448,6.155,0.854,-0.433,0.287,-0.155,0.551,-0.820,2476.91,1.455,-4.812,9.064,0.328,-0.715,0.618,-0.556,-0.085,-0.827,2508.75,11.526,2.014,-6.379,0.966,-0.014,0.259,-0.866,0.481,0.135,2550.82,6.043,2.014,3.805,-0.087,0.015,0.996,0.915,-0.390,0.108,10.286,-0.580,6.916,-4.977,0.777,-0.621,0.104,10.408,-6.092,-4.229,-5.328,A
4.568254,-0.540,0.339,-0.770,2478.47,-1.567,2.574,3.357,0.845,-0.440,0.304,-0.159,0.570,-0.806,2483.19,0.895,-1.902,5.036,0.342,-0.720,0.604,-0.542,-0.057,-0.838,2498.26,2.686,4.029,-4.029,0.980,-0.030,0.198,-0.863,0.482,0.148,2525.90,2.686,4.812,2.798,-0.093,0.030,0.995,0.917,-0.378,0.125,10.355,2.916,5.878,-4.595,0.793,-0.599,0.109,10.455,-3.252,-5.145,-4.931,A
4.568402,-0.509,0.343,-0.790,2477.55,-1.902,3.469,1.007,0.849,-0.432,0.304,-0.154,0.544,-0.825,2440.03,3.469,1.343,1.007,0.257,-0.712,0.654,-0.560,-0.042,-0.827,2470.67,-1.119,3.357,-3.245,0.965,-0.041,0.259,-0.859,0.494,0.136,2527.80,-1.567,5.595,1.679,-0.106,0.049,0.993,0.914,-0.384,0.133,10.190,5.878,4.641,-3.771,0.789,-0.593,0.159,10.285,-2.397,-5.573,-4.809,A
4.570158,-0.485,0.312,-0.817,2538.21,-5.036,1.343,1.679,0.847,-0.431,0.311,-0.142,0.536,-0.832,2439.86,4.364,0.783,2.686,0.263,-0.737,0.622,-0.566,-0.066,-0.822,2463.00,-0.895,4.252,-3.133,0.967,-0.014,0.255,-0.856,0.496,0.144,2534.91,-2.014,4.364,1.679,-0.089,0.028,0.996,0.911,-0.378,0.167,10.061,5.588,1.832,-5.740,0.802,-0.572,0.173,10.212,-7.908,-7.115,-3.481,A
4.570318,-0.497,0.307,-0.812,2420.85,-0.895,-4.924,7.498,0.854,-0.415,0.312,-0.127,0.530,-0.839,2412.35,5.260,-0.671,3.245,0.311,-0.733,0.605,-0.559,-0.082,-0.825,2476.73,0.112,5.819,-2.462,0.951,-0.016,0.309,-0.855,0.504,0.125,2516.21,-0.783,4.141,2.574,-0.095,0.025,0.995,0.904,-0.375,0.204,10.021,0.229,0.840,-9.359,0.797,-0.585,0.149,10.216,-11.557,-6.824,-3.817,A
4.570465,-0.503,0.355,-0.788,2446.98,-3.693,-5.819,7.833,0.846,-0.436,0.308,-0.130,0.544,-0.829,2439.11,1.902,-3.133,2.686,0.320,-0.702,0.636,-0.560,-0.066,-0.826,2452.56,0.336,5.595,-1.790,0.967,-0.031,0.252,-0.861,0.493,0.125,2510.34,1.007,2.910,4.029,-0.106,0.053,0.993,0.919,-0.380,0.107,10.383,3.542,-1.145,-7.985,0.787,-0.609,0.099,10.465,-9.176,-6.641,-2.687,A
4.570607,-0.533,0.351,-0.770,2476.97,-5.819,-4.812,5.148,0.847,-0.427,0.317,-0.146,0.556,-0.818,2493.15,4.252,-4.924,0.000,0.306,-0.712,0.632,-0.558,-0.063,-0.828,2446.33,0.000,2.350,-1.902,0.945,-0.024,0.325,-0.864,0.485,0.137,2513.12,-1.567,2.126,2.910,-0.103,0.041,0.994,0.910,-0.387,0.151,10.218,7.053,0.626,-5.756,0.779,-0.618,0.109,10.380,-4.107,-6.534,-2.305,A
4.570748,-0.575,0.336,-0.746,2413.76,-4.812,-1.343,2.014,0.847,-0.427,0.317,-0.194,0.538,-0.820,2392.23,3.805,-2.574,-2.462,0.347,-0.703,0.621,-0.576,-0.002,-0.818,2404.30,-1.119,1.455,-5.819,0.954,-0.016,0.301,-0.862,0.488,0.141,2518.51,-4.029,4.141,1.902,-0.117,0.046,0.992,0.917,-0.378,0.124,10.319,7.176,2.458,-3.191,0.782,-0.616,0.098,10.331,-0.198,-5.496,-1.481,A
4.570904,-0.508,0.332,-0.795,2499.20,-9.064,0.560,-0.112,0.860,-0.449,0.244,-0.160,0.605,-0.780,2580.58,1.679,-0.783,-1.119,0.331,-0.731,0.596,-0.479,-0.083,-0.874,2562.83,7.722,0.783,-14.995,0.973,0.004,0.230,-0.862,0.483,0.156,2461.67,-3.805,4.812,1.231,-0.075,0.024,0.997,0.915,-0.388,0.115,10.010,10.046,1.557,-0.382,0.797,-0.588,0.138,10.183,1.969,-8.382,2.519,A
4.571052,-0.481,0.355,-0.802,2477.44,-7.162,-5.483,-1.567,0.841,-0.464,0.278,-0.143,0.485,-0.863,2352.32,11.974,-2.238,-8.505,0.342,-0.720,0.604,-0.622,-0.109,-0.775,2397.93,1.231,-13.093,-24.507,0.964,-0.007,0.266,-0.848,0.512,0.136,2535.36,-8.057,1.455,0.671,-0.101,0.022,0.995,0.894,-0.363,0.262,10.094,7.588,3.771,-0.489,0.794,-0.568,0.217,9.983,-3.298,-4.748,-0.855,A
4.571199,-0.517,0.310,-0.798,2418.69,-0.895,-5.595,8.057,0.855,-0.429,0.292,-0.166,0.472,-0.866,2313.12,8.393,-2.238,0.224,0.361,-0.707,0.608,-0.630,-0.077,-0.773,2367.44,-3.133,0.336,-8.393,0.966,0.027,0.258,-0.854,0.501,0.136,2527.83,2.462,2.238,0.671,-0.097,0.026,0.995,0.908,-0.384,0.166,10.132,0.672,5.939,-3.267,0.781,-0.610,0.136,10.148,-7.267,-1.145,-5.237,A
4.574294,-0.544,0.329,-0.772,2407.29,0.336,-2.238,9.736,0.824,-0.458,0.334,-0.184,0.536,-0.824,2418.97,3.021,2.238,8.952,0.352,-0.712,0.608,-0.570,0.002,-0.822,2393.66,2.126,18.017,5.371,0.946,-0.033,0.322,-0.867,0.478,0.142,2504.02,5.371,3.357,1.119,-0.095,0.019,0.995,0.910,-0.402,0.105,9.996,3.679,5.679,-2.611,0.774,-0.622,0.114,10.278,-5.405,-2.000,-5.252,A
4.574457,-0.560,0.334,-0.758,2426.08,-2.462,-2.686,8.952,0.831,-0.461,0.312,-0.155,0.549,-0.821,2485.93,9.512,2.910,7.274,0.303,-0.724,0.620,-0.536,-0.062,-0.842,2452.09,8.393,21.374,-1.567,0.970,-0.005,0.241,-0.869,0.476,0.138,2499.20,2.126,4.476,1.343,-0.087,0.010,0.996,0.909,-0.387,0.155,9.919,7.847,3.069,-6.168,0.783,-0.606,0.144,10.110,-3.191,-5.008,-4.198,A
4.574604,-0.530,0.322,-0.784,2395.41,-2.014,-3.693,8.729,0.838,-0.466,0.285,-0.124,0.534,-0.836,2464.92,5.819,2.462,4.029,0.298,-0.713,0.635,-0.509,-0.197,-0.838,2567.64,10.519,17.905,-8.169,0.948,-0.009,0.317,-0.866,0.484,0.122,2494.44,-4.364,4.588,3.693,-0.084,-0.008,0.996,0.915,-0.375,0.146,10.226,7.756,-1.817,-8.550,0.793,-0.597,0.125,10.342,-2.382,-11.328,-3.817,A
4.598719,-0.532,0.365,-0.764,2460.15,-13.093,-0.560,1.567,0.836,-0.463,0.295,-0.131,0.510,-0.850,2484.03,0.448,5.931,-3.357,0.315,-0.719,0.619,-0.520,-0.127,-0.845,2512.15,-1.007,19.248,-3.245,0.954,0.002,0.301,-0.856,0.502,0.124,2546.05,-4.588,4.364,5.707,-0.092,0.001,0.996,0.917,-0.345,0.199,10.475,8.947,-0.641,-6.534,0.823,-0.540,0.177,10.522,-3.878,-9.832,-3.115,A
4.623244,-0.435,0.339,-0.834,2534.46,-8.281,-2.350,3.581,0.839,-0.462,0.288,-0.135,0.519,-0.844,2405.98,4.364,3.245,1.231,0.321,-0.717,0.619,-0.541,-0.087,-0.837,2431.32,4.252,15.891,-0.224,0.935,0.016,0.354,-0.840,0.531,0.109,2534.72,-1.790,1.790,3.581,-0.074,-0.025,0.997,0.918,-0.349,0.186,10.518,2.489,1.603,-4.061,0.804,-0.584,0.116,10.523,-7.374,-2.626,-3.298,A
4.649243,-0.547,0.405,-0.733,2483.67,-2.462,-5.483,9.064,0.832,-0.482,0.275,-0.197,0.558,-0.806,2447.85,2.126,3.357,7.274,0.304,-0.706,0.640,-0.524,-0.018,-0.852,2435.50,7.945,18.017,3.245,0.955,-0.007,0.298,-0.858,0.498,0.126,2585.72,4.252,0.783,0.895,-0.092,-0.013,0.996,0.925,-0.366,0.099,10.409,6.061,4.366,-1.527,0.782,-0.618,0.076,10.582,-1.939,-2.504,-3.313,A
5.082947,-0.538,0.379,-0.753,2523.14,-2.350,0.671,4.252,0.839,-0.459,0.291,-0.165,0.572,-0.804,2577.11,4.364,10.743,2.574,0.303,-0.724,0.620,-0.485,0.006,-0.875,2472.64,10.183,21.598,-0.560,0.928,0.007,0.373,-0.855,0.501,0.131,2549.45,-1.902,5.371,-0.448,-0.077,-0.012,0.997,0.927,-0.341,0.153,10.404,11.130,1.282,-2.763,0.821,-0.556,0.133,10.592,-0.061,-6.198,-0.916,A
5.096112,-0.493,0.390,-0.778,2478.53,-2.574,-2.014,1.567,0.831,-0.471,0.296,-0.116,0.564,-0.817,2558.44,16.898,8.729,-0.783,0.256,-0.699,0.668,-0.479,-0.069,-0.875,2517.93,21.262,25.738,-6.379,0.940,-0.009,0.342,-0.835,0.537,0.117,2539.58,-6.714,3.021,-1.007,-0.085,0.004,0.996,0.923,-0.334,0.192,10.521,7.893,0.931,-0.183,0.819,-0.560,0.126,10.601,-0.947,-3.725,0.397,A
5.096293,-0.511,0.421,-0.750,2505.66,-1.231,2.126,-2.238,0.829,-0.480,0.288,-0.157,0.510,-0.846,2447.58,20.255,8.841,4.029,0.265,-0.693,0.671,-0.526,-0.088,-0.846,2405.17,15.555,21.374,-1.902,0.922,0.016,0.386,-0.838,0.529,0.133,2600.39,-1.231,2.462,-3.693,-0.084,0.004,0.996,0.917,-0.353,0.186,10.415,5.557,6.366,-0.076,0.798,-0.589,0.126,10.439,-1.573,1.664,-1.664,A
5.096459,-0.538,0.370,-0.757,2506.67,4.029,6.155,-0.895,0.836,-0.472,0.280,-0.179,0.510,-0.841,2426.25,11.526,13.541,4.924,0.273,-0.687,0.674,-0.508,-0.086,-0.857,2455.80,16.786,20.591,-0.112,0.927,0.033,0.372,-0.851,0.512,0.117,2607.19,4.476,6.379,-6.602,-0.101,0.004,0.995,0.919,-0.350,0.179,10.571,2.305,14.229,-0.947,0.803,-0.582,0.128,10.573,-0.748,7.649,-5.618,A
5.096602,-0.510,0.378,-0.773,2509.35,7.833,9.176,2.574,0.844,-0.448,0.295,-0.112,0.507,-0.855,2480.66,10.631,17.010,9.960,0.248,-0.694,0.676,-0.483,-0.131,-0.866,2520.14,19.807,18.353,0.112,0.928,0.016,0.372,-0.862,0.497,0.105,2531.32,8.281,8.617,-9.288,-0.099,0.022,0.995,0.921,-0.354,0.160,10.523,3.130,16.870,1.511,0.807,-0.570,0.152,10.442,0.168,9.588,-6.382,A
5.096763,-0.494,0.351,-0.795,2472.87,14.100,10.072,4.364,0.823,-0.472,0.315,-0.114,0.502,-0.857,2427.60,12.086,16.114,12.533,0.283,-0.682,0.674,-0.486,-0.118,-0.866,2463.53,18.241,15.555,1.679,0.917,-0.011,0.398,-0.857,0.504,0.108,2553.41,3.581,7.945,-11.638,-0.076,0.012,0.997,0.914,-0.366,0.178,10.258,4.672,19.160,3.725,0.796,-0.585,0.156,10.216,-0.382,11.023,-7.908,A
5.096972,-0.514,0.349,-0.784,2434.39,16.338,10.072,7.274,0.823,-0.472,0.315,-0.114,0.502,-0.857,2427.60,15.555,17.681,17.793,0.232,-0.688,0.688,-0.480,-0.110,-0.870,2473.90,20.031,18.129,4.476,0.901,0.033,0.432,-0.864,0.493,0.105,2532.90,11.302,12.981,-11.862,-0.076,0.007,0.997,0.912,-0.367,0.182,10.236,5.634,20.061,2.779,0.806,-0.566,0.173,10.256,-1.008,9.847,-9.313,A
5.097127,-0.457,0.342,-0.821,2480.70,15.667,10.631,7.722,0.854,-0.420,0.309,-0.036,0.486,-0.873,2507.18,28.760,16.562,19.584,0.214,-0.670,0.710,-0.489,-0.164,-0.857,2431.63,25.067,23.836,8.281,0.908,0.032,0.418,-0.860,0.501,0.094,2510.34,3.805,9.736,-11.974,-0.087,0.042,0.995,0.891,-0.368,0.266,9.949,2.733,19.084,0.153,0.806,-0.551,0.214,10.169,-3.496,9.084,-8.947,A
5.097274,-0.470,0.302,-0.830,2455.47,16.450,6.714,10.183,0.841,-0.447,0.303,-0.045,0.434,-0.900,2422.16,32.453,9.848,24.619,0.247,-0.651,0.718,-0.528,-0.201,-0.825,2418.55,34.467,25.179,2.574,0.900,0.057,0.432,-0.860,0.502,0.097,2546.26,8.952,9.064,-11.079,-0.079,0.023,0.997,0.902,-0.367,0.228,10.237,-3.863,22.229,-2.885,0.801,-0.563,0.206,10.150,-10.412,12.046,-11.130,A
5.097442,-0.514,0.302,-0.802,2354.10,15.667,4.141,16.338,0.823,-0.463,0.330,-0.020,0.478,-0.878,2570.43,23.836,-2.686,32.005,0.168,-0.674,0.720,-0.438,-0.217,-0.872,2512.35,32.900,19.136,-3.133,0.908,0.060,0.416,-0.887,0.452,0.092,2477.32,11.302,7.162,-9.064,-0.083,0.069,0.994,0.904,-0.400,0.152,10.103,-1.771,19.481,-2.000,0.786,-0.604,0.132,10.253,-8.855,10.061,-9.282,A
5.097604,-0.501,0.330,-0.800,2457.75,6.267,2.462,12.198,0.836,-0.463,0.295,-0.103,0.511,-0.853,2403.01,27.641,-9.288,27.976,0.189,-0.659,0.728,-0.375,-0.260,-0.890,2695.43,13.653,4.252,-5.707,0.911,0.042,0.410,-0.901,0.425,0.092,2474.79,12.981,7.610,-6.938,-0.089,0.058,0.994,0.903,-0.412,0.125,10.104,7.344,13.740,0.824,0.771,-0.617,0.156,10.174,-2.962,3.863,-6.183,A
5.097755,-0.540,0.345,-0.767,2460.00,3.133,0.783,7.945,0.823,-0.474,0.313,-0.132,0.464,-0.876,2396.70,18.464,2.574,8.952,0.199,-0.654,0.729,-0.431,-0.141,-0.891,2482.75,-7.833,-7.945,-9.624,0.930,0.044,0.366,-0.897,0.431,0.102,2507.51,6.043,9.176,-5.707,-0.088,0.051,0.995,0.896,-0.414,0.159,9.878,14.763,13.130,-0.779,0.766,-0.624,0.154,10.135,-1.756,0.840,-6.611,A
5.097909,-0.559,0.313,-0.768,2396.36,2.014,0.560,7.833,0.833,-0.473,0.286,-0.135,0.399,-0.907,2338.99,11.191,8.841,-5.260,0.147,-0.648,0.747,-0.514,-0.135,-0.847,2368.02,-10.631,-11.862,-19.919,0.893,0.067,0.445,-0.892,0.441,0.096,2562.87,-3.245,12.310,-3.917,-0.074,0.028,0.997,0.883,-0.405,0.236,9.786,16.550,16.641,-6.595,0.771,-0.602,0.207,9.777,-0.809,-0.885,-11.115,A
5.098053,-0.526,0.298,-0.797,2358.71,-0.336,5.819,8.617,0.837,-0.453,0.309,-0.017,0.448,-0.894,2481.94,7.050,10.407,-0.448,0.175,-0.639,0.749,-0.482,-0.215,-0.849,2442.51,-10.631,-12.310,-26.410,0.905,0.050,0.422,-0.884,0.461,0.076,2474.33,-2.910,18.800,-1.119,-0.098,0.057,0.994,0.888,-0.376,0.264,10.113,16.504,13.313,-9.863,0.811,-0.536,0.233,10.113,-0.122,-5.542,-12.443,A
5.098207,-0.427,0.323,-0.844,2445.80,-7.945,7.722,6.267,0.817,-0.492,0.301,0.011,0.395,-0.919,2392.29,19.248,14.772,0.783,0.162,-0.628,0.761,-0.469,-0.226,-0.854,2452.15,-11.638,-7.274,-15.779,0.905,0.059,0.421,-0.880,0.472,0.057,2456.12,-0.112,16.898,1.007,-0.078,0.055,0.995,0.879,-0.354,0.318,10.434,10.473,9.878,-7.557,0.824,-0.518,0.228,10.361,-1.053,-5.176,-9.771,A
5.098349,-0.433,0.366,-0.824,2482.75,-6.155,5.483,6.379,0.823,-0.469,0.321,-0.018,0.408,-0.913,2386.24,2.238,9.624,-4.588,0.168,-0.655,0.736,-0.507,-0.177,-0.844,2365.15,-11.414,-3.245,-8.281,0.913,0.078,0.400,-0.878,0.477,0.048,2493.91,3.133,9.848,1.231,-0.078,0.074,0.994,0.891,-0.358,0.279,10.459,3.695,10.366,-7.252,0.823,-0.517,0.236,10.424,-4.763,-1.695,-8.229,A
5.098492,-0.431,0.308,-0.848,2469.87,1.567,4.029,6.938,0.830,-0.470,0.302,-0.038,0.438,-0.898,2402.49,3.021,7.945,4.812,0.160,-0.632,0.758,-0.477,-0.160,-0.864,2425.14,-1.455,4.812,-0.671,0.899,0.074,0.431,-0.881,0.471,0.047,2542.14,2.350,5.036,-1.007,-0.041,-0.008,0.999,0.898,-0.361,0.249,10.561,4.687,9.527,-3.893,0.814,-0.543,0.207,10.509,-7.191,-0.763,-8.321,A
5.101579,-0.464,0.359,-0.810,2503.43,2.686,1.790,10.072,0.816,-0.459,0.352,-0.040,0.439,-0.897,2482.79,4.924,9.400,9.512,0.129,-0.622,0.772,-0.448,-0.163,-0.879,2495.57,3.469,8.505,2.798,0.905,0.050,0.422,-0.882,0.468,0.050,2581.70,5.931,6.602,-2.014,-0.047,0.013,0.999,0.895,-0.356,0.269,10.508,4.870,11.573,-2.336,0.819,-0.541,0.192,10.564,-7.282,1.969,-7.863,A
5.101763,-0.457,0.360,-0.814,2524.44,3.805,2.350,9.848,0.835,-0.439,0.330,-0.033,0.449,-0.893,2473.08,5.036,9.400,9.736,0.139,-0.607,0.782,-0.444,-0.169,-0.880,2479.96,5.036,6.714,0.895,0.890,0.068,0.451,-0.877,0.479,0.046,2565.18,7.274,6.938,-3.917,-0.063,0.057,0.996,0.896,-0.344,0.282,10.500,1.878,14.366,-1.511,0.827,-0.524,0.205,10.464,-6.290,5.328,-7.924,A
5.101934,-0.450,0.364,-0.816,2472.09,8.169,5.036,8.729,0.805,-0.472,0.358,-0.046,0.441,-0.896,2407.68,5.819,9.400,10.743,0.148,-0.623,0.768,-0.462,-0.152,-0.873,2420.19,9.064,3.357,2.462,0.906,0.042,0.422,-0.870,0.490,0.055,2526.49,9.064,5.931,-6.491,-0.061,0.044,0.997,0.893,-0.352,0.282,10.237,-4.153,18.076,-2.656,0.820,-0.535,0.203,10.297,-9.389,9.557,-8.809,A
5.102082,-0.458,0.355,-0.815,2473.98,10.295,4.141,11.862,0.795,-0.495,0.351,-0.041,0.443,-0.896,2443.86,8.617,10.967,16.003,0.106,-0.627,0.772,-0.463,-0.147,-0.874,2439.05,10.967,3.245,3.581,0.892,0.094,0.443,-0.869,0.491,0.059,2540.66,10.967,5.931,-7.498,-0.071,0.093,0.993,0.909,-0.343,0.238,10.589,-4.611,18.198,-2.718,0.829,-0.531,0.176,10.569,-10.550,9.893,-9.206,A
5.595496,-0.451,0.381,-0.807,2487.55,10.631,3.469,13.317,0.812,-0.483,0.328,-0.017,0.454,-0.891,2511.08,8.393,9.512,15.779,0.121,-0.627,0.769,-0.437,-0.168,-0.884,2493.20,13.205,2.574,4.476,0.896,0.041,0.443,-0.873,0.485,0.047,2551.62,13.093,4.588,-8.729,-0.063,0.082,0.995,0.908,-0.344,0.239,10.593,-1.924,16.565,3.557,0.830,-0.536,0.155,10.662,-6.336,11.221,-5.588,A
5.661864,-0.449,0.414,-0.792,2547.11,14.324,2.686,10.183,0.830,-0.448,0.331,-0.029,0.462,-0.887,2469.08,8.505,5.931,17.457,0.069,-0.620,0.782,-0.436,-0.157,-0.886,2475.27,16.226,-0.560,5.595,0.890,0.083,0.448,-0.878,0.475,0.056,2502.85,11.974,3.245,-11.079,-0.048,0.064,0.997,0.899,-0.362,0.247,10.131,-4.107,16.366,4.519,0.809,-0.556,0.193,10.205,-5.893,13.191,-3.725,A
5.662187,-0.486,0.349,-0.801,2432.39,16.786,3.469,7.162,0.824,-0.465,0.323,-0.079,0.422,-0.903,2378.16,8.617,6.826,14.995,0.063,-0.611,0.789,-0.463,-0.140,-0.875,2436.32,15.219,1.007,5.036,0.907,0.069,0.416,-0.883,0.465,0.062,2556.80,11.079,2.798,-11.079,-0.063,0.075,0.995,0.901,-0.370,0.226,10.132,-2.015,14.672,0.870,0.804,-0.567,0.180,10.200,-6.153,9.374,-5.466,A
5.662389,-0.468,0.366,-0.804,2481.68,10.072,3.469,7.498,0.830,-0.449,0.331,0.003,0.451,-0.892,2505.77,2.350,9.624,7.945,0.081,-0.626,0.776,-0.426,-0.174,-0.888,2512.79,12.533,3.357,0.895,0.912,0.078,0.403,-0.894,0.447,0.036,2504.23,6.379,5.148,-7.498,-0.065,0.096,0.993,0.903,-0.361,0.231,10.349,0.534,10.183,-0.412,0.816,-0.544,0.196,10.309,-4.397,3.328,-2.305,A
5.662581,-0.442,0.347,-0.827,2474.86,6.938,3.133,1.231,0.804,-0.458,0.379,0.007,0.451,-0.892,2506.71,2.350,7.162,3.021,0.113,-0.611,0.783,-0.423,-0.192,-0.886,2530.64,8.505,1.007,-1.119,0.895,0.075,0.440,-0.890,0.455,0.028,2526.48,0.112,3.917,-5.483,-0.048,0.088,0.995,0.896,-0.361,0.260,10.374,3.405,7.008,2.565,0.819,-0.538,0.201,10.343,-3.573,0.427,-0.824,A
5.662765,-0.449,0.359,-0.818,2476.64,5.260,2.462,0.671,0.818,-0.445,0.364,-0.009,0.438,-0.899,2468.84,1.567,6.043,1.007,0.062,-0.604,0.795,-0.442,-0.189,-0.877,2465.85,4.364,-0.224,-1.902,0.897,0.073,0.436,-0.887,0.461,0.035,2536.27,0.895,3.021,-4.588,-0.059,0.101,0.993,0.889,-0.362,0.280,10.400,4.153,7.542,2.885,0.817,-0.535,0.215,10.370,-3.176,0.550,-1.221,A
5.662945,-0.453,0.347,-0.821,2478.77,4.924,3.245,0.336,0.812,-0.459,0.361,-0.017,0.444,-0.896,2455.13,2.910,6.043,1.567,0.076,-0.626,0.776,-0.443,-0.174,-0.879,2458.77,3.581,-0.895,-2.910,0.899,0.083,0.431,-0.888,0.459,0.027,2565.97,0.224,4.141,-5.483,-0.071,0.093,0.993,0.884,-0.356,0.302,10.582,3.344,8.824,2.183,0.823,-0.521,0.225,10.577,-3.695,1.282,-1.710,A
5.663114,-0.421,0.352,-0.836,2528.12,5.483,3.581,0.560,0.821,-0.454,0.347,0.011,0.462,-0.887,2512.92,2.462,7.050,1.679,0.062,-0.604,0.795,-0.417,-0.199,-0.887,2539.02,4.700,-0.448,-4.364,0.887,0.125,0.444,-0.890,0.456,0.008,2561.41,1.119,4.252,-6.155,-0.058,0.115,0.992,0.885,-0.355,0.301,10.518,1.878,7.511,1.817,0.832,-0.497,0.245,10.641,-5.832,1.740,-0.092,A
5.663270,-0.386,0.348,-0.854,2554.14,7.833,0.783,0.336,0.799,-0.470,0.375,0.038,0.437,-0.899,2521.15,4.364,5.819,1.231,0.065,-0.599,0.798,-0.427,-0.231,-0.874,2530.13,5.148,-2.462,-3.469,0.890,0.116,0.441,-0.885,0.466,-0.011,2530.60,1.455,2.238,-7.162,-0.056,0.093,0.994,0.878,-0.350,0.326,10.572,0.611,4.534,2.519,0.829,-0.497,0.257,10.498,-8.656,2.183,1.893,A
6.148419,-0.403,0.345,-0.848,2517.80,7.386,-2.462,0.783,0.810,-0.461,0.363,0.027,0.438,-0.898,2488.84,6.602,2.462,2.798,0.027,-0.607,0.794,-0.445,-0.213,-0.870,2473.41,4.029,-4.252,1.119,0.926,0.084,0.368,-0.888,0.460,0.000,2542.66,2.574,-1.007,-7.498,-0.054,0.081,0.995,0.884,-0.360,0.298,10.679,-1.282,4.351,4.076,0.821,-0.530,0.212,10.549,-8.031,4.412,2.672,A
6.148641,-0.449,0.359,-0.818,2501.09,10.072,-1.679,0.671,0.819,-0.448,0.358,0.011,0.425,-0.905,2450.72,6.826,1.902,4.700,0.072,-0.605,0.793,-0.446,-0.194,-0.874,2464.33,6.379,-3.917,3.805,0.907,0.074,0.415,-0.897,0.441,0.023,2560.61,3.805,-1.119,-9.064,-0.078,0.132,0.988,0.892,-0.380,0.245,10.513,1.160,5.527,7.863,0.804,-0.563,0.189,10.472,-3.725,5.435,2.809,A
6.148811,-0.471,0.354,-0.808,2509.22,10.631,1.455,-2.014,0.803,-0.467,0.369,-0.017,0.446,-0.895,2490.89,4.924,5.595,1.902,0.117,-0.589,0.800,-0.446,-0.181,-0.877,2466.59,7.162,-4.700,2.686,0.900,0.057,0.432,-0.902,0.430,0.035,2557.41,3.133,0.560,-10.631,-0.062,0.110,0.992,0.880,-0.386,0.279,10.219,4.321,6.534,8.305,0.804,-0.546,0.236,10.314,-1.908,4.122,3.435,A
6.149112,-0.454,0.312,-0.835,2473.82,10.743,2.910,-3.693,0.821,-0.446,0.356,0.015,0.424,-0.906,2481.35,7.833,6.491,1.007,0.077,-0.616,0.784,-0.452,-0.200,-0.869,2475.74,7.386,-5.819,-1.455,0.900,0.065,0.431,-0.900,0.435,0.032,2509.03,1.902,1.902,-9.736,-0.068,0.125,0.990,0.867,-0.381,0.323,10.108,1.695,5.435,4.794,0.805,-0.532,0.263,10.069,-4.473,2.015,2.779,A
6.149322,-0.423,0.286,-0.860,2423.62,7.162,-0.224,-1.902,0.826,-0.427,0.369,0.043,0.396,-0.917,2459.52,8.393,5.148,1.007,0.065,-0.614,0.786,-0.471,-0.242,-0.848,2457.85,5.819,-6.379,-1.567,0.900,0.100,0.425,-0.900,0.436,0.016,2499.99,-0.224,0.000,-7.050,-0.078,0.131,0.988,0.874,-0.389,0.290,10.308,-0.458,2.977,4.611,0.803,-0.536,0.261,10.176,-6.855,1.023,3.496,A
6.149494,-0.431,0.299,-0.852,2447.41,5.931,-2.798,-1.790,0.811,-0.455,0.367,0.015,0.400,-0.916,2409.55,6.491,-0.224,2.350,0.029,-0.586,0.810,-0.467,-0.225,-0.855,2461.55,3.133,-5.483,1.343,0.900,0.072,0.430,-0.907,0.420,0.028,2500.66,1.455,-2.126,-6.155,-0.071,0.136,0.988,0.876,-0.410,0.255,10.230,2.321,0.916,5.573,0.793,-0.570,0.214,10.270,-5.969,0.595,4.183,A
6.149686,-0.486,0.329,-0.809,2430.27,5.931,-2.126,-2.574,0.810,-0.446,0.382,-0.001,0.391,-0.920,2388.21,7.162,-0.560,2.574,0.036,-0.581,0.813,-0.491,-0.199,-0.848,2398.41,3.133,-5.483,2.238,0.913,0.116,0.390,-0.911,0.411,0.043,2510.52,1.902,-2.126,-7.050,-0.067,0.119,0.991,0.866,-0.415,0.280,10.172,3.603,3.481,5.695,0.782,-0.576,0.237,10.149,-3.328,1.802,3.191,A
6.149833,-0.501,0.295,-0.814,2416.32,7.162,0.336,-3.581,0.801,-0.465,0.377,-0.009,0.379,-0.925,2387.30,6.602,3.357,3.917,0.047,-0.577,0.816,-0.495,-0.186,-0.848,2398.41,5.707,-4.588,0.112,0.903,0.118,0.412,-0.912,0.408,0.040,2529.28,0.671,0.224,-7.610,-0.064,0.150,0.987,0.859,-0.411,0.305,10.042,2.321,5.176,2.611,0.784,-0.558,0.271,9.983,-4.702,1.893,1.191,A
6.621163,-0.462,0.270,-0.845,2386.55,5.371,0.671,-0.112,0.821,-0.451,0.352,0.020,0.376,-0.926,2406.17,6.267,4.252,4.476,0.083,-0.589,0.804,-0.476,-0.237,-0.847,2472.80,7.050,-2.798,-1.455,0.918,0.076,0.390,-0.913,0.407,0.028,2485.44,0.448,0.895,-5.371,-0.062,0.145,0.987,0.869,-0.414,0.272,10.100,1.725,2.550,1.634,0.789,-0.559,0.254,10.051,-5.191,-0.733,1.160,A
6.621427,-0.443,0.275,-0.853,2444.42,3.357,-0.112,-1.455,0.807,-0.467,0.361,0.019,0.396,-0.918,2436.32,3.133,1.231,1.567,0.054,-0.594,0.803,-0.471,-0.230,-0.852,2459.51,3.581,-2.126,-0.112,0.895,0.105,0.433,-0.915,0.402,0.032,2468.00,1.902,-0.224,-3.245,-0.062,0.143,0.988,0.869,-0.421,0.259,9.982,5.344,-0.794,1.939,0.780,-0.573,0.251,9.938,-5.328,-4.855,2.031,A
6.621605,-0.466,0.275,-0.841,2409.43,1.790,-1.679,-1.679,0.832,-0.424,0.359,0.015,0.385,-0.923,2424.44,4.364,0.112,0.112,0.020,-0.613,0.790,-0.479,-0.220,-0.850,2440.73,-0.224,-3.133,0.671,0.901,0.107,0.419,-0.914,0.404,0.040,2482.41,-1.679,-1.119,-1.231,-0.077,0.154,0.985,0.860,-0.418,0.293,10.033,6.718,-1.557,-0.031,0.780,-0.576,0.243,10.031,-4.763,-6.656,0.901,A
6.621760,-0.488,0.292,-0.823,2402.28,-1.231,-1.790,-1.790,0.807,-0.460,0.372,0.007,0.369,-0.929,2397.39,3.133,-1.119,-2.462,0.025,-0.585,0.810,-0.503,-0.213,-0.837,2417.42,-3.021,-2.574,-0.336,0.916,0.077,0.394,-0.914,0.405,0.036,2523.93,-2.126,-1.231,-0.560,-0.078,0.150,0.986,0.862,-0.413,0.295,10.222,5.893,-0.031,-2.122,0.786,-0.559,0.263,10.141,-4.733,-5.954,-0.748,A
6.621955,-0.462,0.269,-0.845,2431.17,-1.679,0.671,-0.560,0.804,-0.474,0.359,0.015,0.390,-0.921,2420.94,0.336,-0.448,-0.895,0.056,-0.588,0.807,-0.487,-0.216,-0.846,2439.72,-2.350,-0.895,-0.895,0.910,0.084,0.405,-0.910,0.412,0.036,2502.48,-1.119,0.671,0.671,-0.090,0.171,0.981,0.864,-0.407,0.297,10.249,3.832,0.718,-2.473,0.795,-0.552,0.253,10.202,-6.977,-5.008,-1.160,A
6.622121,-0.458,0.297,-0.838,2430.09,-1.790,-0.448,0.336,0.826,-0.442,0.351,0.020,0.373,-0.928,2402.43,1.343,-0.448,-0.336,0.072,-0.574,0.816,-0.490,-0.217,-0.844,2422.82,-1.007,-0.448,-0.112,0.902,0.099,0.420,-0.907,0.419,0.040,2489.75,2.462,-0.112,0.671,-0.090,0.171,0.981,0.873,-0.411,0.261,10.257,3.847,0.534,-1.237,0.789,-0.561,0.249,10.152,-6.992,-4.916,-0.779,A
6.622304,-0.445,0.290,-0.847,2459.03,-2.126,-0.783,0.448,0.826,-0.439,0.354,0.019,0.415,-0.910,2512.72,5.819,-0.112,4.029,0.062,-0.615,0.786,-0.491,-0.209,-0.845,2417.71,-0.112,-0.336,1.567,0.904,0.109,0.413,-0.915,0.402,0.044,2491.93,0.783,-0.112,0.112,-0.058,0.129,0.990,0.873,-0.413,0.261,10.152,6.260,-0.076,-0.336,0.785,-0.579,0.219,10.126,-5.527,-6.031,-0.336,A
6.622488,-0.499,0.308,-0.810,2407.07,-1.455,-0.560,-0.560,0.802,-0.483,0.352,0.003,0.396,-0.918,2406.21,2.238,-0.783,0.560,0.068,-0.572,0.817,-0.480,-0.206,-0.853,2455.31,-0.783,-0.671,1.455,0.931,0.085,0.354,-0.909,0.412,0.055,2526.12,-1.679,-0.112,1.231,-0.071,0.133,0.989,0.872,-0.414,0.260,9.953,7.344,-0.183,-3.130,0.783,-0.578,0.231,9.978,-4.473,-7.405,-2.519,A
6.688827,-0.482,0.293,-0.826,2393.90,-4.252,1.567,-0.448,0.819,-0.456,0.348,-0.014,0.379,-0.925,2364.19,0.336,0.560,-1.790,0.045,-0.560,0.827,-0.491,-0.189,-0.850,2417.27,-3.917,0.224,-0.560,0.900,0.123,0.417,-0.908,0.417,0.048,2499.66,-2.238,1.902,3.021,-0.056,0.128,0.990,0.872,-0.401,0.279,9.998,7.802,-0.336,-5.725,0.788,-0.559,0.257,9.932,-4.824,-8.565,-3.237,A
6.689153,-0.447,0.308,-0.840,2469.25,-5.371,-0.112,2.014,0.805,-0.472,0.358,-0.001,0.386,-0.922,2394.85,-1.007,0.895,-2.238,0.058,-0.589,0.806,-0.485,-0.190,-0.853,2406.66,-4.812,2.014,-1.790,0.919,0.104,0.380,-0.898,0.439,0.040,2504.70,-2.462,3.245,3.917,-0.073,0.155,0.985,0.883,-0.384,0.269,10.342,6.931,-0.427,-6.779,0.804,-0.553,0.216,10.308,-5.847,-8.198,-4.229,A
6.689328,-0.467,0.336,-0.818,2467.10,-5.036,-0.112,2.238,0.816,-0.431,0.385,0.007,0.400,-0.916,2432.57,-2.686,0.560,-0.671,0.029,-0.586,0.810,-0.478,-0.191,-0.857,2443.63,-3.805,3.021,-1.231,0.903,0.118,0.412,-0.897,0.439,0.043,2528.31,-0.112,2.798,4.476,-0.071,0.166,0.984,0.881,-0.386,0.274,10.382,7.802,-0.336,-6.260,0.811,-0.532,0.243,10.403,-7.527,-9.328,-3.527,A
6.689508,-0.416,0.293,-0.861,2534.29,-5.483,-0.224,2.462,0.798,-0.482,0.361,0.007,0.422,-0.906,2467.84,-1.902,0.448,-0.112,0.020,-0.586,0.810,-0.454,-0.196,-0.869,2488.05,-3.021,2.910,-1.231,0.923,0.077,0.378,-0.896,0.442,0.028,2531.34,1.902,2.462,4.252,-0.064,0.133,0.989,0.876,-0.379,0.300,10.530,6.580,-0.656,-5.420,0.808,-0.541,0.232,10.405,-9.069,-8.962,-2.748,A
6.689698,-0.458,0.360,-0.812,2493.86,-5.260,-5.371,5.595,0.809,-0.465,0.360,0.015,0.400,-0.917,2462.45,0.560,0.112,1.343,0.056,-0.582,0.811,-0.462,-0.179,-0.869,2443.23,-3.693,2.462,-0.224,0.897,0.109,0.428,-0.899,0.437,0.020,2541.75,-0.112,1.567,3.469,-0.079,0.141,0.987,0.885,-0.388,0.257,10.537,7.115,0.519,-3.771,0.804,-0.561,0.199,10.491,-6.366,-7.099,-2.672,A
6.689897,-0.476,0.357,-0.803,2459.84,-4.029,-0.224,1.679,0.801,-0.460,0.382,-0.001,0.416,-0.909,2458.91,-0.224,1.119,0.560,0.075,-0.594,0.801,-0.455,-0.186,-0.871,2459.51,-1.567,2.462,-0.560,0.906,0.083,0.415,-0.902,0.430,0.031,2557.08,-0.112,2.350,2.014,-0.071,0.147,0.987,0.881,-0.394,0.261,10.423,10.305,2.000,-1.939,0.798,-0.566,0.204,10.415,-1.466,-6.000,-2.840,A
6.690071,-0.491,0.339,-0.803,2449.26,-3.021,3.693,-0.671,0.828,-0.447,0.339,-0.013,0.419,-0.908,2443.67,0.336,3.805,-1.231,0.063,-0.571,0.818,-0.463,-0.186,-0.867,2460.87,-0.783,1.567,-3.581,0.906,0.091,0.413,-0.898,0.438,0.031,2555.86,-1.679,4.588,0.671,-0.064,0.148,0.987,0.875,-0.376,0.305,10.542,9.924,3.786,-2.122,0.811,-0.516,0.277,10.367,-3.649,-6.626,-3.237,A
6.690220,-0.389,0.283,-0.877,2511.64,-2.350,-1.679,4.812,0.819,-0.452,0.354,0.035,0.399,-0.916,2463.68,2.462,5.371,0.671,0.038,-0.571,0.820,-0.462,-0.213,-0.861,2465.13,0.560,1.455,-5.260,0.885,0.085,0.457,-0.893,0.449,0.000,2493.67,-1.007,3.917,0.336,-0.067,0.140,0.988,0.856,-0.371,0.359,10.512,3.603,3.695,-1.664,0.820,-0.500,0.278,10.507,-10.351,-5.313,-1.511,A
7.167073,-0.388,0.315,-0.866,2541.85,-2.686,-11.191,9.736,0.819,-0.456,0.348,0.039,0.403,-0.914,2489.06,5.595,1.343,2.350,0.033,-0.593,0.804,-0.438,-0.239,-0.866,2529.74,-2.350,-1.343,0.448,0.892,0.091,0.443,-0.897,0.441,0.004,2517.00,2.014,0.783,-0.112,-0.061,0.140,0.988,0.875,-0.388,0.290,10.451,-0.153,1.878,-0.275,0.808,-0.548,0.215,10.403,-12.443,-2.550,-0.198,A
7.167319,-0.482,0.367,-0.795,2450.29,-1.231,-8.169,6.491,0.830,-0.456,0.321,0.011,0.376,-0.926,2404.94,6.267,-0.112,4.364,0.028,-0.591,0.806,-0.482,-0.199,-0.853,2442.93,1.119,-0.336,1.790,0.901,0.082,0.426,-0.907,0.421,0.020,2565.43,3.693,-0.448,-1.119,-0.055,0.122,0.991,0.875,-0.411,0.256,10.198,3.649,3.115,-1.145,0.791,-0.583,0.187,10.280,-5.099,-1.817,-1.405,A
7.167501,-0.503,0.352,-0.790,2468.57,-0.336,-2.014,3.693,0.809,-0.483,0.335,-0.013,0.396,-0.918,2406.41,3.805,3.133,4.364,0.038,-0.571,0.820,-0.465,-0.180,-0.867,2428.48,2.798,0.560,-1.679,0.908,0.099,0.408,-0.910,0.414,0.032,2536.39,1.119,2.126,-1.567,-0.100,0.173,0.980,0.884,-0.399,0.243,10.344,10.626,2.626,-0.794,0.795,-0.567,0.216,10.284,-0.550,-4.244,-2.427,A
7.167663,-0.481,0.321,-0.816,2434.70,0.560,1.231,1.902,0.818,-0.472,0.328,0.019,0.396,-0.918,2457.73,2.126,4.924,0.000,0.049,-0.571,0.820,-0.455,-0.212,-0.865,2478.66,1.231,0.224,-4.924,0.900,0.091,0.426,-0.906,0.422,0.024,2514.59,-1.790,4.141,-1.231,-0.092,0.173,0.981,0.875,-0.387,0.291,10.262,12.183,1.863,0.748,0.808,-0.530,0.255,10.292,-1.725,-5.115,-1.695,A
7.167850,-0.413,0.291,-0.863,2484.54,-2.462,-1.455,2.686,0.819,-0.441,0.367,0.023,0.398,-0.917,2449.66,3.357,4.252,-1.119,0.031,-0.576,0.817,-0.470,-0.221,-0.854,2462.68,-0.336,-0.560,-3.917,0.883,0.107,0.457,-0.895,0.446,0.020,2490.61,-1.790,3.469,-0.671,-0.064,0.147,0.987,0.852,-0.377,0.363,10.233,7.359,1.740,-1.924,0.812,-0.512,0.282,10.221,-6.916,-4.504,-1.450,A
7.168051,-0.443,0.322,-0.836,2423.26,-3.021,-9.400,8.952,0.816,-0.463,0.347,0.035,0.374,-0.927,2423.00,3.805,1.902,2.238,0.028,-0.591,0.806,-0.479,-0.220,-0.850,2440.73,0.671,0.560,0.560,0.923,0.102,0.371,-0.893,0.449,0.008,2516.12,0.112,0.783,0.112,-0.054,0.134,0.989,0.869,-0.387,0.308,10.362,2.718,1.466,-2.962,0.806,-0.536,0.253,10.259,-11.160,-3.374,-1.969,A
7.168204,-0.460,0.333,-0.823,2461.86,-2.014,-10.072,10.967,0.833,-0.441,0.333,0.019,0.381,-0.924,2429.48,3.021,-0.112,4.588,0.016,-0.574,0.819,-0.469,-0.203,-0.860,2448.93,0.895,1.343,2.798,0.901,0.065,0.428,-0.906,0.422,0.024,2535.12,5.260,0.448,0.336,-0.077,0.126,0.989,0.877,-0.404,0.261,10.268,3.344,2.305,-2.260,0.791,-0.580,0.194,10.282,-9.603,-2.336,-2.229,A
7.168365,-0.518,0.344,-0.783,2412.93,1.119,-8.057,10.407,0.816,-0.489,0.309,-0.005,0.389,-0.921,2428.05,0.671,0.671,2.574,0.004,-0.551,0.834,-0.471,-0.183,-0.863,2439.47,-0.224,1.231,0.000,0.928,0.077,0.364,-0.910,0.413,0.040,2523.37,5.260,1.679,0.112,-0.076,0.148,0.986,0.879,-0.407,0.250,10.057,6.870,3.832,-3.786,0.785,-0.582,0.211,10.021,-6.260,-3.405,-4.244,A
7.622423,-0.501,0.333,-0.799,2401.53,0.112,-4.364,10.519,0.830,-0.463,0.312,0.011,0.379,-0.925,2438.42,0.448,3.917,0.560,0.037,-0.581,0.813,-0.481,-0.200,-0.854,2430.44,-0.895,1.455,-4.364,0.926,0.113,0.361,-0.906,0.422,0.036,2514.58,-0.336,4.029,0.671,-0.063,0.160,0.985,0.871,-0.394,0.295,10.112,9.008,3.924,-5.496,0.803,-0.542,0.247,10.121,-6.153,-6.321,-5.481,A
7.622743,-0.430,0.303,-0.850,2475.30,-1.790,-2.798,10.519,0.810,-0.468,0.354,0.023,0.389,-0.921,2427.75,2.126,5.260,2.238,0.026,-0.608,0.794,-0.451,-0.212,-0.867,2482.79,-0.112,3.133,-4.252,0.921,0.124,0.369,-0.899,0.438,0.016,2512.02,-0.336,4.476,3.021,-0.038,0.093,0.995,0.874,-0.373,0.312,10.485,8.565,0.885,-6.336,0.818,-0.510,0.265,10.421,-11.374,-8.763,-4.198,A
7.623081,-0.411,0.337,-0.847,2519.97,-6.491,-12.310,15.891,0.811,-0.480,0.334,0.054,0.408,-0.911,2508.10,3.805,4.141,2.686,0.026,-0.580,0.814,-0.428,-0.224,-0.876,2525.58,-1.902,2.574,-1.567,0.913,0.109,0.394,-0.898,0.440,0.000,2525.06,2.350,1.902,2.574,-0.053,0.119,0.992,0.878,-0.367,0.307,10.683,7.191,-1.298,-2.962,0.826,-0.526,0.206,10.679,-12.336,-7.420,-1.832,A
7.623324,-0.466,0.392,-0.793,2516.30,-7.386,-18.353,17.233,0.808,-0.510,0.295,0.023,0.400,-0.916,2462.81,4.141,0.448,0.448,0.008,-0.568,0.823,-0.452,-0.199,-0.869,2452.03,-2.798,-0.671,0.448,0.910,0.109,0.399,-0.899,0.438,0.008,2554.69,1.455,0.448,1.567,-0.060,0.139,0.988,0.878,-0.379,0.291,10.587,5.603,1.618,-1.328,0.808,-0.553,0.201,10.444,-8.031,-3.496,-1.053,A
7.623491,-0.505,0.398,-0.766,2478.22,-2.686,-15.443,14.772,0.823,-0.480,0.303,-0.018,0.384,-0.923,2381.22,4.252,1.231,1.231,0.030,-0.581,0.813,-0.465,-0.164,-0.870,2429.41,-0.336,-0.560,-0.112,0.902,0.084,0.424,-0.901,0.434,0.012,2581.79,-0.560,1.902,-1.231,-0.062,0.149,0.987,0.874,-0.390,0.291,10.343,6.168,5.023,-1.298,0.806,-0.551,0.214,10.416,-5.496,-2.412,-2.840,A
7.623646,-0.469,0.360,-0.807,2500.01,1.231,-9.512,13.429,0.812,-0.483,0.328,0.015,0.401,-0.916,2452.37,0.560,5.595,0.560,0.012,-0.541,0.841,-0.448,-0.193,-0.873,2477.09,2.126,1.007,-4.252,0.912,0.092,0.399,-0.903,0.429,0.008,2543.02,0.224,4.252,-1.790,-0.053,0.099,0.994,0.875,-0.383,0.297,10.330,7.527,5.191,-2.458,0.808,-0.538,0.239,10.318,-6.015,-3.802,-2.763,A
7.623819,-0.470,0.378,-0.797,2452.86,-1.567,-7.833,11.302,0.818,-0.491,0.299,0.046,0.392,-0.919,2487.51,1.455,7.498,-0.783,-0.004,-0.561,0.828,-0.448,-0.226,-0.865,2499.99,1.455,0.895,-6.379,0.920,0.035,0.389,-0.902,0.432,-0.007,2525.84,-0.112,5.260,-1.231,-0.055,0.120,0.991,0.874,-0.381,0.303,10.411,5.160,3.557,-3.725,0.818,-0.520,0.247,10.326,-8.336,-5.740,-1.893,A
7.623984,-0.440,0.361,-0.822,2489.03,-1.455,-6.826,8.393,0.809,-0.503,0.304,0.051,0.383,-0.923,2467.17,1.902,5.595,-2.126,-0.014,-0.556,0.831,-0.452,-0.228,-0.862,2473.22,-0.448,-0.336,-5.931,0.893,0.091,0.441,-0.897,0.443,-0.011,2529.63,-3.357,3.805,-0.448,-0.055,0.119,0.991,0.870,-0.373,0.323,10.513,4.382,2.870,-2.427,0.821,-0.518,0.240,10.468,-9.145,-6.275,-0.550,A
7.624343,-0.441,0.367,-0.819,2499.09,0.448,-9.064,9.176,0.830,-0.466,0.307,0.035,0.399,-0.916,2441.36,3.245,4.141,0.560,-0.022,-0.576,0.817,-0.442,-0.205,-0.873,2464.80,0.224,-0.336,-3.469,0.903,0.118,0.412,-0.898,0.440,-0.003,2525.07,-1.567,2.014,-0.895,-0.049,0.146,0.988,0.866,-0.375,0.330,10.533,3.481,2.321,-1.679,0.817,-0.517,0.253,10.498,-10.534,-4.748,0.382,A
7.624541,-0.457,0.331,-0.826,2478.35,2.462,-10.072,7.833,0.819,-0.496,0.288,0.039,0.376,-0.926,2436.39,5.036,3.469,1.455,0.056,-0.582,0.811,-0.461,-0.217,-0.860,2468.15,1.119,-1.119,-2.014,0.892,0.074,0.447,-0.900,0.437,0.000,2542.14,0.224,1.679,-2.238,-0.078,0.147,0.986,0.866,-0.383,0.321,10.404,1.969,3.115,-0.015,0.804,-0.543,0.242,10.224,-12.473,-3.191,0.015,A
7.624708,-0.491,0.378,-0.785,2429.83,1.231,-11.079,10.072,0.820,-0.494,0.289,0.035,0.368,-0.929,2429.50,6.267,3.917,3.581,-0.004,-0.588,0.809,-0.473,-0.217,-0.854,2428.65,2.014,-0.336,-0.671,0.919,0.113,0.377,-0.906,0.423,0.000,2533.51,2.238,1.455,-2.686,-0.035,0.120,0.992,0.864,-0.399,0.307,10.135,1.053,3.695,-1.740,0.805,-0.549,0.225,10.252,-11.282,-2.198,-0.870,A
7.624869,-0.501,0.375,-0.780,2397.12,2.350,-7.498,7.833,0.818,-0.490,0.301,0.040,0.370,-0.928,2419.66,5.148,3.917,4.141,0.047,-0.571,0.819,-0.466,-0.223,-0.856,2446.09,2.686,0.112,-0.895,0.905,0.059,0.421,-0.909,0.418,-0.003,2516.04,1.119,2.126,-2.238,-0.073,0.137,0.988,0.872,-0.401,0.282,10.150,4.229,2.031,-2.656,0.798,-0.560,0.223,10.169,-8.504,-3.374,-1.527,A
7.625038,-0.478,0.342,-0.809,2454.26,1.007,-2.350,4.364,0.815,-0.512,0.270,0.035,0.367,-0.930,2438.79,0.448,2.798,1.343,-0.020,-0.561,0.828,-0.458,-0.218,-0.862,2462.69,0.895,0.336,-1.343,0.911,0.101,0.399,-0.909,0.416,0.016,2506.25,1.119,1.679,-0.783,-0.074,0.161,0.984,0.867,-0.391,0.308,10.264,5.084,0.382,-4.366,0.802,-0.553,0.226,10.183,-7.450,-6.122,-1.023,A
7.625187,-0.487,0.375,-0.788,2445.56,-2.574,-3.805,3.693,0.801,-0.525,0.287,0.031,0.379,-0.925,2439.45,0.671,1.790,-0.783,-0.002,-0.579,0.815,-0.456,-0.210,-0.865,2454.70,-1.455,-0.224,-1.790,0.913,0.111,0.391,-0.907,0.420,0.012,2500.78,-1.007,1.007,0.112,-0.036,0.126,0.991,0.879,-0.389,0.276,10.348,5.374,-0.260,-2.137,0.810,-0.542,0.222,10.378,-7.313,-7.374,0.198,A
7.625333,-0.452,0.348,-0.821,2525.98,-0.895,-3.133,0.895,0.808,-0.510,0.295,0.015,0.382,-0.924,2441.98,2.238,1.343,-2.014,-0.020,-0.588,0.809,-0.469,-0.192,-0.862,2429.04,-2.126,-1.119,-1.902,0.904,0.109,0.413,-0.903,0.428,0.024,2499.84,-2.238,0.895,-0.336,-0.076,0.166,0.983,0.874,-0.383,0.297,10.305,5.710,0.855,-1.298,0.805,-0.537,0.253,10.228,-10.977,-6.794,0.412,A
7.625480,-0.465,0.339,-0.818,2478.66,2.014,-9.064,4.700,0.807,-0.507,0.302,0.016,0.356,-0.934,2374.15,8.057,3.917,0.224,-0.041,-0.538,0.842,-0.480,-0.204,-0.853,2432.26,-1.679,-1.231,-1.790,0.904,0.092,0.418,-0.900,0.436,0.020,2521.20,-0.895,2.350,-1.567,-0.056,0.132,0.990,0.865,-0.388,0.319,10.161,3.176,1.924,-3.786,0.804,-0.550,0.227,10.171,-16.305,-5.298,-0.916,A
7.625627,-0.536,0.374,-0.757,2352.06,4.364,-12.310,9.064,0.820,-0.500,0.279,0.032,0.363,-0.931,2411.98,6.267,5.260,1.902,-0.023,-0.554,0.832,-0.470,-0.211,-0.857,2444.48,-0.895,0.895,-1.119,0.910,0.109,0.399,-0.901,0.434,0.016,2537.22,-1.679,3.133,-1.343,-0.061,0.140,0.988,0.873,-0.390,0.293,10.190,2.321,2.122,-6.015,0.802,-0.564,0.199,10.242,-15.084,-5.863,-2.351,A
7.627131,-0.490,0.367,-0.791,2452.09,0.448,-7.722,9.624,0.822,-0.498,0.276,0.023,0.381,-0.924,2429.67,1.231,4.700,0.000,-0.030,-0.553,0.833,-0.438,-0.199,-0.877,2489.02,-0.783,1.567,-2.238,0.899,0.143,0.414,-0.905,0.426,0.000,2538.66,1.231,3.581,0.336,-0.043,0.128,0.991,0.878,-0.381,0.290,10.350,4.565,0.916,-6.840,0.811,-0.542,0.221,10.393,-14.305,-6.718,-1.924,A
7.627324,-0.461,0.360,-0.811,2498.46,-1.790,-10.407,10.631,0.823,-0.483,0.299,0.047,0.374,-0.926,2447.39,1.007,5.260,-2.910,-0.030,-0.564,0.825,-0.458,-0.207,-0.865,2445.69,-3.021,0.448,-3.917,0.905,0.103,0.413,-0.902,0.432,0.000,2503.42,-2.574,3.021,-0.560,-0.049,0.128,0.991,0.872,-0.373,0.318,10.363,3.908,0.046,-6.489,0.813,-0.540,0.216,10.296,-15.664,-6.763,-1.069,A
7.627490,-0.494,0.395,-0.775,2451.08,-2.238,-14.548,12.422,0.807,-0.527,0.265,0.047,0.376,-0.925,2460.40,3.805,4.924,-1.567,-0.030,-0.560,0.828,-0.448,-0.208,-0.869,2476.20,-1.455,-0.112,-2.014,0.916,0.075,0.393,-0.901,0.435,-0.003,2530.59,-3.245,2.126,-0.671,-0.049,0.146,0.988,0.884,-0.375,0.280,10.491,3.969,0.000,-5.588,0.810,-0.556,0.185,10.401,-12.702,-7.969,-0.916,A
7.627646,-0.489,0.391,-0.780,2474.40,-2.238,-11.191,10.072,0.818,-0.500,0.285,0.035,0.386,-0.922,2469.35,3.581,4.029,-2.126,-0.032,-0.543,0.839,-0.446,-0.201,-0.872,2468.08,-3.021,-0.895,-2.574,0.916,0.110,0.386,-0.906,0.423,0.000,2555.86,-3.133,2.462,-1.007,-0.041,0.158,0.987,0.876,-0.374,0.305,10.496,5.939,1.145,-3.740,0.813,-0.547,0.198,10.532,-8.718,-8.183,-0.076,A
7.628270,-0.479,0.381,-0.791,2511.74,-3.805,-7.274,5.148,0.805,-0.517,0.292,0.039,0.368,-0.929,2460.50,5.595,4.812,-1.902,-0.055,-0.530,0.846,-0.449,-0.197,-0.871,2469.44,-0.783,-1.790,-4.476,0.910,0.109,0.399,-0.905,0.426,-0.007,2561.07,-2.910,2.910,-1.455,-0.048,0.137,0.989,0.871,-0.371,0.321,10.492,3.679,2.015,-4.336,0.815,-0.529,0.238,10.443,-10.779,-6.962,0.214,A
7.628441,-0.467,0.378,-0.799,2509.25,-1.007,-7.162,4.364,0.815,-0.509,0.277,0.043,0.373,-0.927,2456.21,7.050,6.043,-1.455,-0.006,-0.533,0.846,-0.461,-0.207,-0.863,2450.29,0.671,-1.902,-4.924,0.925,0.102,0.366,-0.901,0.434,-0.015,2537.17,-3.021,3.805,-2.574,-0.020,0.113,0.993,0.869,-0.373,0.325,10.329,1.603,2.519,-5.740,0.819,-0.524,0.233,10.407,-14.931,-5.420,0.092,A
7.628598,-0.469,0.357,-0.808,2459.72,1.119,-9.848,6.714,0.813,-0.512,0.276,0.067,0.364,-0.929,2461.36,9.064,7.722,2.910,-0.014,-0.530,0.848,-0.452,-0.236,-0.860,2477.86,2.686,-1.567,-3.581,0.936,0.121,0.330,-0.904,0.427,-0.019,2530.07,-2.350,3.245,-3.805,-0.017,0.125,0.992,0.878,-0.373,0.299,10.396,2.244,1.511,-5.374,0.811,-0.539,0.227,10.242,-18.336,-4.550,0.443,A
7.628768,-0.481,0.374,-0.793,2456.53,-0.895,-13.205,9.736,0.813,-0.510,0.281,0.075,0.359,-0.931,2468.46,12.086,7.274,4.812,-0.058,-0.545,0.836,-0.453,-0.238,-0.859,2493.12,1.343,-1.790,-2.574,0.915,0.099,0.391,-0.908,0.419,-0.007,2530.27,-1.790,1.790,-2.686,-0.029,0.104,0.994,0.870,-0.379,0.314,10.316,2.229,0.687,-5.573,0.802,-0.565,0.193,10.217,-19.954,-6.672,0.183,A
7.629059,-0.519,0.403,-0.754,2427.14,-2.910,-14.212,10.519,0.808,-0.536,0.243,0.043,0.358,-0.933,2419.72,11.526,5.595,3.357,-0.051,-0.540,0.840,-0.458,-0.203,-0.866,2443.65,-2.126,-3.021,-3.245,0.910,0.129,0.394,-0.911,0.413,-0.003,2522.31,0.448,1.119,-1.790,-0.032,0.153,0.988,0.882,-0.378,0.282,10.423,0.046,0.809,-6.351,0.801,-0.574,0.169,10.325,-18.718,-9.802,-0.519,A
7.629223,-0.516,0.402,-0.757,2481.79,-3.693,-10.967,8.169,0.812,-0.537,0.229,0.020,0.342,-0.940,2391.38,9.736,4.924,0.112,0.002,-0.545,0.838,-0.478,-0.182,-0.859,2403.39,-1.455,-2.686,-4.812,0.900,0.100,0.425,-0.910,0.415,0.008,2535.21,-2.350,1.007,-2.238,-0.032,0.130,0.991,0.885,-0.376,0.276,10.396,0.977,3.160,-5.725,0.799,-0.571,0.192,10.235,-19.405,-11.618,-0.672,A
7.629373,-0.481,0.349,-0.804,2458.36,-4.141,-17.122,12.533,0.838,-0.502,0.214,0.067,0.339,-0.938,2436.52,14.548,9.736,2.014,-0.067,-0.510,0.857,-0.461,-0.224,-0.859,2472.34,2.574,-3.693,-8.169,0.890,0.124,0.438,-0.900,0.437,-0.011,2542.29,-6.714,4.252,-4.700,-0.018,0.110,0.994,0.873,-0.364,0.323,10.253,-3.725,5.878,-7.969,0.807,-0.541,0.236,9.976,-37.328,-27.985,-6.794,A
7.629521,-0.480,0.339,-0.809,2419.19,-8.952,-22.605,17.569,0.821,-0.526,0.222,0.085,0.351,-0.932,2494.60,15.779,10.519,6.714,-0.020,-0.526,0.851,-0.460,-0.244,-0.854,2476.97,2.462,-3.133,-4.700,0.913,0.136,0.385,-0.901,0.433,0.000,2495.31,-2.910,3.469,-4.812,-0.027,0.134,0.991,0.873,-0.377,0.309,10.079,-4.168,1.863,-10.672,0.817,-0.539,0.206,10.287,-42.901,-27.374,-5.160,A
7.629646,-0.508,0.413,-0.756,2460.31,-12.422,-28.648,22.381,0.825,-0.507,0.248,0.046,0.372,-0.927,2487.26,20.926,9.176,8.057,-0.113,-0.500,0.859,-0.437,-0.205,-0.876,2470.02,-4.029,-2.910,-4.476,0.902,0.118,0.416,-0.911,0.411,0.004,2509.09,-1.119,1.679,-2.350,-0.046,0.171,0.984,0.885,-0.386,0.261,10.198,-5.603,-0.458,-15.267,0.781,-0.611,0.126,9.992,-50.519,-29.969,-7.099,A
7.629765,-0.571,0.461,-0.679,2479.74,-11.414,-27.529,20.703,0.825,-0.518,0.227,0.032,0.321,-0.947,2393.82,29.655,10.519,8.057,-0.086,-0.504,0.859,-0.489,-0.186,-0.852,2409.65,-4.812,-5.707,-10.967,0.900,0.123,0.417,-0.919,0.394,0.016,2594.15,-4.252,1.902,-2.910,-0.025,0.149,0.989,0.893,-0.375,0.250,10.464,-7.298,4.137,-17.863,0.789,-0.614,0.030,10.564,-48.427,-31.588,-11.084,A
7.629902,-0.569,0.397,-0.720,2458.73,-8.841,-22.829,19.024,0.801,-0.554,0.228,0.011,0.293,-0.956,2349.46,37.712,17.122,13.317,-0.084,-0.484,0.871,-0.501,-0.164,-0.850,2372.96,0.000,-7.162,-21.486,0.906,0.117,0.407,-0.918,0.396,0.020,2578.72,-9.400,6.155,-4.252,-0.025,0.149,0.989,0.880,-0.370,0.298,10.132,-8.061,9.115,-20.244,0.824,-0.561,0.083,10.496,-40.718,-29.344,-12.595,A
7.631584,-0.533,0.441,-0.722,2438.59,-9.400,-22.829,23.053,0.828,-0.519,0.211,0.045,0.273,-0.961,2348.33,28.872,21.486,7.610,-0.089,-0.506,0.858,-0.502,-0.200,-0.841,2385.54,4.476,-2.910,-22.381,0.910,0.137,0.391,-0.911,0.413,0.004,2500.89,-13.205,12.869,-4.924,-0.006,0.112,0.994,0.889,-0.345,0.302,10.412,-8.137,7.466,-20.977,0.835,-0.526,0.158,10.332,-43.176,-26.000,-9.939,A
7.631752,-0.455,0.409,-0.791,2511.43,-7.498,-25.626,25.403,0.818,-0.542,0.196,0.134,0.318,-0.939,2477.74,14.100,18.912,2.014,-0.101,-0.473,0.875,-0.441,-0.260,-0.859,2516.06,4.141,-1.343,-18.688,0.909,0.099,0.404,-0.876,0.476,0.072,2476.01,1.567,6.938,-5.036,0.012,0.123,0.992,0.888,-0.338,0.312,10.405,-8.779,-1.389,-17.985,0.850,-0.516,0.110,10.648,-49.405,-29.267,-5.206,A
7.631914,-0.519,0.464,-0.718,2465.77,-9.176,-35.698,27.529,0.811,-0.555,0.186,0.107,0.282,-0.953,2440.96,8.617,9.400,-4.364,-0.111,-0.458,0.882,-0.486,-0.235,-0.841,2442.33,2.798,-4.141,-9.736,0.917,0.134,0.377,-0.914,0.405,-0.019,2523.70,-7.945,3.917,-5.819,0.012,0.082,0.997,0.886,-0.349,0.307,10.303,-10.107,-5.634,-16.366,0.814,-0.577,0.071,10.000,-52.382,-31.450,0.168,A
