0.016887,BNO0_UnitAccX,BNO0_UnitAccY,BNO0_UnitAccZ,BNO0_RawAccMag,BNO0_GyrX,BNO0_GyrY,BNO0_GyrZ,BNO0_MagX,BNO0_MagY,BNO0_MagZ,BNO1_UnitAccX,BNO1_UnitAccY,BNO1_UnitAccZ,BNO1_RawAccMag,BNO1_GyrX,BNO1_GyrY,BNO1_GyrZ,BNO1_MagX,BNO1_MagY,BNO1_MagZ,BNO2_UnitAccX,BNO2_UnitAccY,BNO2_UnitAccZ,BNO2_RawAccMag,BNO2_GyrX,BNO2_GyrY,BNO2_GyrZ,BNO2_MagX,BNO2_MagY,BNO2_MagZ,BNO3_UnitAccX,BNO3_UnitAccY,BNO3_UnitAccZ,BNO3_RawAccMag,BNO3_GyrX,BNO3_GyrY,BNO3_GyrZ,BNO3_MagX,BNO3_MagY,BNO3_MagZ,MPU0_UnitAccX,MPU0_UnitAccY,MPU0_UnitAccZ,MPU0_RawAccMag,MPU0_GyrX,MPU0_GyrY,MPU0_GyrZ,MPU1_UnitAccX,MPU1_UnitAccY,MPU1_UnitAccZ,MPU1_RawAccMag,MPU1_GyrX,MPU1_GyrY,MPU1_GyrZ,none
0.062622,0.519,-0.237,-0.821,2448.60,0.112,0.000,0.336,-0.595,0.047,0.802,0.732,-0.128,-0.669,2462.31,0.000,0.224,0.448,-0.673,0.201,0.712,0.278,-0.408,-0.869,2455.48,0.336,0.000,0.336,-0.268,0.448,0.853,-0.250,0.233,-0.940,2439.54,0.112,-0.448,0.000,-0.157,-0.614,-0.774,0.491,0.251,0.834,10.830,5.130,0.641,-1.878,0.751,0.376,0.542,10.142,-5.939,-4.519,-1.206,none
0.063494,0.519,-0.241,-0.820,2450.99,0.448,0.112,0.448,-0.593,0.062,0.803,0.730,-0.128,-0.672,2469.01,0.224,0.112,0.448,-0.676,0.279,0.682,0.281,-0.408,-0.868,2458.27,0.336,0.112,0.560,-0.317,0.379,0.869,-0.249,0.232,-0.940,2448.94,0.112,-0.224,0.000,-0.153,-0.622,-0.768,0.492,0.251,0.833,10.834,5.267,0.626,-1.786,0.751,0.377,0.542,10.164,-5.863,-4.550,-1.053,none
0.064332,0.519,-0.241,-0.820,2450.99,0.224,0.000,0.224,-0.632,0.026,0.775,0.730,-0.128,-0.672,2469.01,0.336,0.000,0.336,-0.661,0.207,0.721,0.277,-0.407,-0.870,2464.17,0.112,0.112,0.112,-0.332,0.413,0.848,-0.250,0.233,-0.940,2439.54,0.000,-0.336,0.000,-0.139,-0.638,-0.758,0.493,0.249,0.834,10.843,5.344,0.504,-1.649,0.753,0.375,0.540,10.139,-5.832,-4.626,-1.008,none
0.081641,0.517,-0.238,-0.822,2443.94,0.000,-0.224,0.112,-0.613,0.045,0.789,0.730,-0.132,-0.671,2456.17,0.112,0.112,0.336,-0.664,0.304,0.684,0.278,-0.408,-0.869,2455.48,0.448,0.000,0.224,-0.301,0.422,0.855,-0.250,0.233,-0.940,2439.54,0.000,0.000,-0.112,-0.145,-0.635,-0.759,0.493,0.249,0.834,10.839,5.313,0.580,-1.725,0.751,0.378,0.542,10.145,-5.802,-4.489,-1.084,none
0.103926,0.514,-0.241,-0.823,2455.38,0.224,-0.112,0.448,-0.638,0.053,0.769,0.730,-0.132,-0.671,2470.18,0.336,0.112,0.560,-0.665,0.241,0.707,0.278,-0.408,-0.869,2455.48,0.671,0.112,0.224,-0.312,0.401,0.861,-0.253,0.233,-0.939,2442.06,0.336,-0.112,-0.112,-0.104,-0.647,-0.755,0.493,0.247,0.835,10.858,5.450,0.809,-2.031,0.751,0.375,0.543,10.160,-5.817,-4.305,-1.389,none
0.125810,0.516,-0.242,-0.822,2446.33,0.224,0.112,0.448,-0.601,0.058,0.797,0.732,-0.128,-0.669,2462.31,0.224,0.336,0.783,-0.669,0.221,0.710,0.278,-0.408,-0.869,2455.48,0.671,0.224,0.448,-0.314,0.410,0.856,-0.249,0.237,-0.939,2441.89,0.336,-0.112,-0.224,-0.098,-0.640,-0.762,0.491,0.250,0.835,10.838,5.634,1.038,-2.321,0.749,0.376,0.545,10.141,-5.771,-4.198,-1.725,none
0.147419,0.519,-0.241,-0.820,2450.99,0.560,0.448,0.783,-0.638,0.045,0.769,0.731,-0.132,-0.669,2463.48,0.671,0.783,0.671,-0.681,0.260,0.684,0.281,-0.411,-0.867,2462.37,1.119,0.560,0.336,-0.302,0.457,0.837,-0.249,0.228,-0.941,2445.70,0.336,-0.112,-0.112,-0.119,-0.647,-0.753,0.491,0.250,0.835,10.860,5.725,0.962,-2.290,0.749,0.378,0.545,10.161,-5.695,-4.321,-1.634,none
0.170214,0.518,-0.245,-0.819,2454.24,0.448,0.336,0.671,-0.655,0.043,0.754,0.733,-0.132,-0.667,2470.80,0.448,0.448,0.560,-0.678,0.277,0.681,0.281,-0.408,-0.868,2458.27,0.671,0.224,0.224,-0.308,0.423,0.852,-0.250,0.233,-0.940,2439.54,0.112,-0.112,-0.112,-0.127,-0.622,-0.772,0.491,0.251,0.834,10.856,5.573,0.718,-1.985,0.750,0.376,0.544,10.154,-5.725,-4.458,-1.298,none
0.190819,0.518,-0.245,-0.819,2454.24,0.336,0.112,0.112,-0.633,0.023,0.773,0.731,-0.131,-0.669,2477.49,0.224,0.112,0.336,-0.654,0.247,0.715,0.281,-0.408,-0.868,2458.27,0.336,0.112,0.224,-0.333,0.431,0.839,-0.250,0.233,-0.940,2439.54,0.224,-0.112,-0.224,-0.126,-0.628,-0.768,0.491,0.250,0.835,10.864,5.450,0.458,-1.634,0.749,0.378,0.544,10.163,-5.771,-4.656,-0.977,none
0.212155,0.519,-0.241,-0.820,2450.99,0.448,-0.112,0.112,-0.620,0.012,0.785,0.731,-0.131,-0.669,2477.49,0.000,0.000,0.112,-0.672,0.267,0.691,0.281,-0.411,-0.867,2462.37,0.000,-0.112,0.112,-0.312,0.385,0.868,-0.245,0.228,-0.942,2443.23,0.112,0.000,0.000,-0.155,-0.608,-0.779,0.490,0.250,0.835,10.838,5.176,0.015,-1.191,0.751,0.377,0.542,10.157,-5.832,-4.977,-0.489,none
0.233700,0.524,-0.241,-0.817,2448.02,-0.336,-0.560,0.000,-0.615,0.033,0.788,0.731,-0.136,-0.669,2464.82,-0.224,-0.560,0.000,-0.642,0.305,0.703,0.281,-0.408,-0.868,2458.27,-0.336,-0.448,0.224,-0.287,0.430,0.856,-0.250,0.233,-0.940,2439.54,-0.112,-0.112,0.000,-0.158,-0.631,-0.760,0.492,0.250,0.834,10.839,4.962,-0.015,-1.145,0.750,0.374,0.545,10.192,-5.985,-4.855,-0.382,none
0.256640,0.516,-0.245,-0.821,2449.59,0.112,-0.448,0.112,-0.606,0.017,0.796,0.731,-0.132,-0.669,2463.48,-0.112,-0.560,0.336,-0.668,0.230,0.708,0.278,-0.408,-0.869,2455.48,-0.560,-0.560,0.224,-0.295,0.429,0.854,-0.253,0.232,-0.939,2451.45,-0.224,-0.336,0.000,-0.174,-0.625,-0.761,0.491,0.250,0.834,10.853,5.359,-0.061,-1.450,0.750,0.376,0.544,10.151,-5.725,-4.947,-0.702,none
0.278540,0.521,-0.242,-0.819,2442.80,-0.448,-0.560,0.112,-0.606,0.017,0.796,0.731,-0.132,-0.669,2463.48,-0.112,-0.224,-0.112,-0.642,0.256,0.723,0.278,-0.408,-0.869,2455.48,-0.224,-0.112,0.112,-0.311,0.405,0.860,-0.248,0.236,-0.940,2451.28,0.000,0.000,0.000,-0.135,-0.634,-0.762,0.493,0.250,0.834,10.849,5.802,0.015,-1.863,0.749,0.375,0.546,10.171,-5.450,-4.748,-1.176,none
0.300018,0.517,-0.244,-0.821,2461.62,0.224,-0.224,0.000,-0.601,0.058,0.797,0.728,-0.132,-0.673,2462.90,-0.112,-0.112,0.000,-0.617,0.186,0.764,0.278,-0.408,-0.869,2455.48,0.224,0.336,0.112,-0.321,0.356,0.877,-0.250,0.233,-0.940,2439.54,-0.224,0.000,-0.112,-0.130,-0.641,-0.757,0.492,0.251,0.834,10.847,5.939,0.137,-2.076,0.751,0.376,0.542,10.161,-5.450,-4.748,-1.420,none
0.321788,0.517,-0.240,-0.822,2460.02,-0.336,0.224,0.000,-0.630,0.052,0.775,0.731,-0.132,-0.669,2463.48,-0.336,0.000,0.112,-0.679,0.224,0.699,0.279,-0.410,-0.868,2445.92,0.000,0.224,0.112,-0.332,0.352,0.875,-0.250,0.233,-0.940,2439.54,0.224,0.112,-0.112,-0.097,-0.630,-0.771,0.491,0.250,0.835,10.857,5.832,0.336,-1.908,0.751,0.376,0.542,10.125,-5.527,-4.672,-1.328,none
0.342936,0.519,-0.241,-0.820,2450.99,0.224,0.112,0.112,-0.639,0.039,0.768,0.730,-0.128,-0.672,2469.01,-0.336,0.112,0.112,-0.607,0.239,0.758,0.281,-0.408,-0.868,2458.27,0.112,0.000,0.000,-0.340,0.451,0.825,-0.249,0.232,-0.940,2448.94,-0.336,0.000,0.112,-0.130,-0.648,-0.751,0.491,0.251,0.834,10.870,5.634,0.336,-1.740,0.750,0.377,0.544,10.149,-5.542,-4.595,-1.084,none
0.366331,0.520,-0.246,-0.818,2446.06,-0.112,0.224,0.224,-0.619,0.045,0.784,0.730,-0.132,-0.671,2470.18,0.000,0.112,-0.112,-0.621,0.269,0.737,0.277,-0.412,-0.868,2459.58,0.112,-0.112,0.224,-0.325,0.486,0.811,-0.253,0.233,-0.939,2442.06,0.112,0.112,0.000,-0.095,-0.655,-0.750,0.492,0.252,0.834,10.852,5.664,0.290,-1.649,0.750,0.376,0.544,10.155,-5.496,-4.611,-0.962,none
0.387993,0.518,-0.245,-0.819,2454.24,0.224,-0.112,0.112,-0.607,0.072,0.792,0.729,-0.136,-0.671,2471.52,0.000,0.000,0.336,-0.626,0.192,0.756,0.277,-0.412,-0.868,2459.58,0.000,-0.112,0.000,-0.349,0.400,0.848,-0.250,0.233,-0.940,2439.54,0.112,0.000,0.000,-0.119,-0.647,-0.753,0.491,0.252,0.834,10.842,5.542,0.275,-1.542,0.749,0.377,0.544,10.148,-5.527,-4.779,-0.962,none
0.409277,0.516,-0.242,-0.822,2446.33,-0.224,-0.112,0.112,-0.613,0.028,0.790,0.729,-0.136,-0.671,2471.52,0.224,-0.112,0.000,-0.647,0.236,0.725,0.278,-0.408,-0.869,2455.48,0.000,0.000,0.112,-0.311,0.403,0.861,-0.249,0.237,-0.939,2441.89,0.224,0.000,-0.112,-0.154,-0.629,-0.762,0.492,0.250,0.834,10.840,5.450,0.275,-1.450,0.751,0.377,0.542,10.151,-5.649,-4.733,-0.809,none
0.433024,0.518,-0.245,-0.819,2454.24,0.224,0.112,0.112,-0.586,0.059,0.808,0.731,-0.132,-0.669,2463.48,0.000,-0.112,0.112,-0.690,0.264,0.674,0.277,-0.412,-0.868,2459.58,0.336,-0.112,0.112,-0.293,0.466,0.834,-0.250,0.233,-0.940,2439.54,0.112,0.000,-0.112,-0.146,-0.636,-0.758,0.492,0.249,0.834,10.830,5.466,0.244,-1.466,0.751,0.377,0.543,10.173,-5.618,-4.687,-0.870,none
0.457240,0.518,-0.245,-0.819,2454.24,0.224,0.112,0.000,-0.618,0.006,0.787,0.732,-0.128,-0.669,2462.31,0.000,-0.112,0.224,-0.642,0.152,0.751,0.278,-0.408,-0.869,2455.48,-0.112,0.000,0.000,-0.315,0.435,0.844,-0.248,0.236,-0.940,2451.28,0.112,0.112,0.000,-0.116,-0.656,-0.746,0.490,0.252,0.835,10.850,5.740,0.305,-1.649,0.750,0.377,0.543,10.151,-5.450,-4.748,-1.038,none
0.478171,0.518,-0.245,-0.819,2454.24,-0.336,0.000,0.112,-0.623,0.025,0.781,0.731,-0.132,-0.669,2463.48,-0.224,0.000,-0.112,-0.696,0.244,0.676,0.278,-0.408,-0.869,2455.48,-0.112,0.112,-0.112,-0.338,0.449,0.827,-0.250,0.233,-0.940,2439.54,-0.112,0.000,0.000,-0.148,-0.632,-0.761,0.490,0.250,0.835,10.845,5.649,0.290,-1.664,0.751,0.377,0.542,10.150,-5.481,-4.672,-1.008,none
0.500480,0.521,-0.242,-0.819,2442.80,0.000,0.224,-0.112,-0.603,0.054,0.796,0.731,-0.132,-0.669,2463.48,0.112,0.112,-0.112,-0.661,0.207,0.721,0.274,-0.409,-0.870,2452.72,0.000,0.224,0.000,-0.302,0.411,0.860,-0.250,0.233,-0.940,2439.54,0.000,0.112,0.000,-0.143,-0.639,-0.756,0.490,0.252,0.835,10.873,5.573,0.229,-1.618,0.749,0.377,0.544,10.184,-5.542,-4.702,-0.962,none
0.520796,0.519,-0.241,-0.820,2450.99,0.336,0.224,0.000,-0.615,0.048,0.787,0.733,-0.132,-0.667,2470.80,0.224,0.224,-0.112,-0.623,0.211,0.753,0.278,-0.408,-0.869,2455.48,-0.112,0.112,0.112,-0.292,0.423,0.858,-0.253,0.232,-0.939,2451.45,0.112,-0.112,0.000,-0.127,-0.658,-0.742,0.491,0.251,0.834,10.852,5.695,0.198,-1.603,0.750,0.377,0.544,10.164,-5.481,-4.656,-0.931,none
0.542120,0.518,-0.245,-0.819,2454.24,0.224,0.224,0.000,-0.621,0.002,0.784,0.731,-0.132,-0.669,2463.48,0.000,0.000,-0.112,-0.651,0.210,0.729,0.281,-0.408,-0.868,2458.27,-0.112,-0.112,0.000,-0.338,0.445,0.829,-0.252,0.236,-0.939,2453.78,-0.224,0.224,0.224,-0.152,-0.622,-0.768,0.492,0.252,0.834,10.842,5.924,0.092,-1.664,0.751,0.375,0.544,10.162,-5.313,-4.794,-1.053,none
0.562743,0.518,-0.245,-0.819,2454.24,0.000,0.112,-0.112,-0.587,0.027,0.809,0.731,-0.132,-0.669,2463.48,-0.336,0.112,-0.224,-0.646,0.191,0.739,0.276,-0.410,-0.869,2468.26,0.224,0.000,-0.112,-0.303,0.444,0.843,-0.250,0.233,-0.940,2439.54,0.000,0.224,0.224,-0.133,-0.639,-0.758,0.490,0.250,0.835,10.842,5.878,0.061,-1.634,0.751,0.378,0.541,10.140,-5.328,-4.763,-0.992,none
0.585805,0.518,-0.245,-0.819,2454.24,0.000,0.448,-0.112,-0.599,0.017,0.800,0.729,-0.136,-0.671,2471.52,-0.112,0.000,-0.112,-0.696,0.167,0.699,0.278,-0.408,-0.869,2455.48,0.000,-0.112,0.000,-0.321,0.411,0.853,-0.246,0.233,-0.941,2437.06,0.000,0.112,0.000,-0.140,-0.655,-0.743,0.490,0.250,0.835,10.838,5.710,0.122,-1.511,0.751,0.376,0.542,10.167,-5.435,-4.901,-0.901,none
0.609253,0.518,-0.245,-0.819,2454.24,0.000,-0.112,-0.112,-0.609,0.072,0.790,0.731,-0.132,-0.669,2463.48,0.112,-0.112,-0.224,-0.693,0.188,0.696,0.278,-0.408,-0.869,2455.48,-0.224,0.000,-0.224,-0.277,0.449,0.850,-0.250,0.233,-0.940,2439.54,0.000,0.000,0.112,-0.153,-0.623,-0.767,0.490,0.251,0.835,10.852,5.740,0.153,-1.603,0.751,0.376,0.543,10.141,-5.374,-4.748,-0.992,none
0.632142,0.516,-0.242,-0.822,2446.33,-0.112,0.000,0.000,-0.643,-0.013,0.766,0.731,-0.132,-0.669,2463.48,-0.112,0.112,-0.112,-0.667,0.172,0.725,0.278,-0.408,-0.869,2455.48,-0.112,0.112,-0.112,-0.299,0.472,0.829,-0.253,0.233,-0.939,2442.06,0.000,0.112,0.000,-0.137,-0.629,-0.765,0.492,0.251,0.834,10.864,5.863,0.229,-1.679,0.751,0.378,0.542,10.159,-5.374,-4.870,-1.115,none
0.651744,0.516,-0.242,-0.822,2446.33,-0.112,0.224,-0.224,-0.622,0.052,0.781,0.731,-0.132,-0.669,2463.48,-0.224,0.112,-0.448,-0.680,0.351,0.644,0.281,-0.407,-0.869,2466.96,-0.112,0.000,-0.224,-0.315,0.372,0.873,-0.248,0.236,-0.940,2451.28,-0.112,0.112,-0.112,-0.138,-0.624,-0.769,0.492,0.253,0.833,10.843,5.939,0.260,-1.649,0.751,0.377,0.543,10.177,-5.344,-4.840,-1.115,none
0.673641,0.518,-0.245,-0.819,2454.24,-0.112,0.448,-0.112,-0.614,0.017,0.789,0.733,-0.132,-0.667,2470.80,-0.448,0.224,-0.336,-0.681,0.307,0.665,0.282,-0.413,-0.866,2452.84,0.000,0.336,-0.224,-0.308,0.434,0.846,-0.250,0.233,-0.940,2439.54,0.000,0.000,-0.112,-0.120,-0.636,-0.762,0.492,0.250,0.834,10.848,5.740,0.153,-1.496,0.751,0.378,0.542,10.147,-5.359,-4.824,-0.885,none
0.697921,0.519,-0.241,-0.820,2450.99,0.112,0.000,-0.224,-0.603,0.038,0.797,0.732,-0.128,-0.669,2462.31,0.000,-0.112,-0.560,-0.647,0.240,0.723,0.278,-0.408,-0.869,2455.48,-0.224,-0.336,0.000,-0.287,0.458,0.841,-0.246,0.233,-0.941,2437.06,-0.112,0.000,0.000,-0.159,-0.633,-0.758,0.491,0.251,0.834,10.843,5.313,-0.122,-1.130,0.749,0.378,0.544,10.144,-5.634,-4.885,-0.427,none
0.720629,0.521,-0.242,-0.819,2442.80,-0.112,-0.224,-0.112,-0.595,0.047,0.802,0.734,-0.132,-0.667,2457.53,-0.112,-0.560,-0.112,-0.706,0.284,0.649,0.281,-0.408,-0.868,2458.27,-0.336,-0.448,0.000,-0.342,0.397,0.852,-0.247,0.234,-0.940,2427.66,0.560,0.000,0.000,-0.105,-0.654,-0.749,0.491,0.252,0.834,10.835,5.099,-0.198,-0.962,0.751,0.378,0.542,10.166,-5.756,-4.855,-0.260,none
0.743716,0.517,-0.240,-0.822,2460.02,-0.112,-0.448,0.000,-0.620,-0.021,0.784,0.731,-0.132,-0.669,2463.48,0.000,-0.448,-0.112,-0.650,0.212,0.730,0.278,-0.408,-0.869,2455.48,-0.448,-0.560,0.112,-0.321,0.411,0.853,-0.249,0.232,-0.940,2448.94,-0.224,0.000,0.112,-0.158,-0.631,-0.760,0.493,0.250,0.833,10.862,5.176,-0.382,-0.916,0.751,0.374,0.544,10.150,-5.634,-5.023,-0.198,none
0.766319,0.520,-0.246,-0.818,2446.06,-0.448,-0.448,-0.336,-0.632,0.033,0.774,0.730,-0.132,-0.671,2470.18,-0.224,-0.224,-0.448,-0.683,0.244,0.689,0.278,-0.408,-0.869,2455.48,-0.336,-0.560,0.000,-0.335,0.395,0.856,-0.249,0.228,-0.941,2445.70,0.112,0.000,0.224,-0.138,-0.643,-0.753,0.492,0.251,0.834,10.832,5.420,-0.366,-1.038,0.749,0.378,0.544,10.155,-5.511,-5.038,-0.458,none
0.788616,0.518,-0.242,-0.820,2438.12,-0.448,-0.560,-0.336,-0.629,0.038,0.777,0.731,-0.132,-0.669,2463.48,-0.224,-0.448,-0.448,-0.672,0.206,0.712,0.281,-0.408,-0.868,2458.27,-0.448,-0.336,0.000,-0.337,0.404,0.851,-0.249,0.237,-0.939,2441.89,0.000,0.000,0.336,-0.120,-0.655,-0.747,0.492,0.250,0.834,10.837,5.160,-0.351,-0.992,0.751,0.375,0.544,10.154,-5.649,-4.870,-0.244,none
0.812380,0.521,-0.242,-0.819,2442.80,-0.224,-0.336,-0.224,-0.610,0.064,0.790,0.730,-0.132,-0.671,2470.18,0.000,-0.224,-0.224,-0.663,0.202,0.721,0.277,-0.407,-0.870,2464.17,-0.224,-0.336,0.112,-0.300,0.441,0.846,-0.250,0.233,-0.940,2439.54,0.112,0.112,0.112,-0.139,-0.631,-0.763,0.492,0.250,0.834,10.834,5.038,-0.351,-0.824,0.750,0.374,0.546,10.164,-5.710,-4.916,-0.122,none
0.831291,0.516,-0.242,-0.822,2446.33,-0.336,-0.671,-0.112,-0.596,0.046,0.802,0.729,-0.136,-0.671,2471.52,0.000,-0.671,-0.112,-0.660,0.215,0.720,0.277,-0.412,-0.868,2459.58,-0.336,-0.671,0.000,-0.317,0.416,0.853,-0.250,0.233,-0.940,2439.54,0.224,0.112,0.000,-0.135,-0.634,-0.761,0.493,0.248,0.834,10.845,5.206,-0.580,-0.656,0.750,0.374,0.545,10.165,-5.481,-5.084,0.000,none
0.853450,0.517,-0.240,-0.822,2460.02,-0.336,-0.783,-0.560,-0.620,0.044,0.783,0.731,-0.132,-0.669,2463.48,-0.224,-0.671,-0.560,-0.654,0.298,0.695,0.278,-0.408,-0.869,2455.48,-0.783,-0.783,-0.336,-0.299,0.408,0.863,-0.252,0.231,-0.940,2460.84,0.112,0.112,0.000,-0.169,-0.634,-0.755,0.493,0.250,0.833,10.853,5.679,-0.824,-0.687,0.749,0.377,0.544,10.175,-5.069,-5.481,-0.137,none
0.875286,0.519,-0.241,-0.820,2450.99,-0.783,-0.224,-0.671,-0.571,0.037,0.820,0.730,-0.128,-0.672,2469.01,-0.560,-0.448,-1.231,-0.671,0.217,0.709,0.278,-0.408,-0.869,2455.48,-0.895,-0.560,-0.336,-0.298,0.445,0.844,-0.248,0.236,-0.940,2451.28,0.112,0.224,0.224,-0.140,-0.654,-0.744,0.493,0.248,0.834,10.859,5.450,-0.626,-0.794,0.751,0.376,0.542,10.164,-5.344,-5.344,-0.198,none
0.897517,0.519,-0.241,-0.820,2450.99,-0.448,-0.560,-0.560,-0.595,0.038,0.803,0.730,-0.132,-0.671,2470.18,-0.112,-0.448,-0.671,-0.648,0.286,0.706,0.278,-0.405,-0.871,2451.81,-0.895,-0.224,-0.336,-0.348,0.422,0.837,-0.250,0.233,-0.940,2439.54,-0.336,0.112,0.224,-0.118,-0.653,-0.748,0.493,0.247,0.834,10.859,5.328,-0.611,-0.916,0.752,0.376,0.542,10.154,-5.542,-5.252,-0.305,none
0.918675,0.514,-0.241,-0.823,2455.38,-0.224,-0.560,-0.448,-0.647,0.035,0.762,0.730,-0.128,-0.672,2469.01,-0.336,-0.783,-0.560,-0.665,0.244,0.705,0.274,-0.406,-0.872,2449.05,-0.895,-0.560,-0.112,-0.335,0.415,0.846,-0.250,0.233,-0.940,2439.54,-0.224,0.000,0.336,-0.113,-0.653,-0.749,0.493,0.248,0.834,10.844,5.511,-0.641,-1.099,0.752,0.375,0.542,10.136,-5.359,-5.557,-0.489,none
0.940769,0.518,-0.236,-0.822,2457.64,-0.783,-0.560,-0.336,-0.603,0.054,0.796,0.731,-0.131,-0.669,2477.49,-0.783,-0.783,-0.671,-0.683,0.244,0.689,0.277,-0.404,-0.872,2460.53,-1.343,-0.224,-0.112,-0.296,0.373,0.879,-0.252,0.236,-0.939,2453.78,-0.336,-0.224,0.224,-0.135,-0.628,-0.766,0.493,0.248,0.834,10.850,5.710,-0.641,-1.252,0.753,0.375,0.541,10.132,-5.191,-5.450,-0.672,none
0.965690,0.517,-0.238,-0.822,2443.94,-0.448,-0.112,-0.448,-0.609,0.017,0.793,0.730,-0.132,-0.671,2470.18,-0.336,-0.336,-0.671,-0.672,0.218,0.708,0.279,-0.402,-0.872,2447.78,-1.119,-0.112,-0.224,-0.315,0.449,0.836,-0.250,0.233,-0.940,2439.54,-0.336,0.224,0.000,-0.134,-0.640,-0.756,0.495,0.249,0.833,10.824,5.511,-0.351,-1.389,0.752,0.373,0.543,10.172,-5.435,-5.527,-0.855,none
0.985981,0.515,-0.237,-0.824,2452.99,-1.007,0.112,-0.448,-0.623,0.026,0.782,0.728,-0.128,-0.674,2461.72,-0.783,-0.224,-0.448,-0.658,0.173,0.733,0.272,-0.406,-0.872,2470.15,-1.007,0.224,0.000,-0.323,0.418,0.849,-0.249,0.237,-0.939,2441.89,-0.895,-0.336,0.560,-0.181,-0.617,-0.766,0.494,0.247,0.834,10.835,5.023,-0.321,-1.237,0.752,0.374,0.543,10.158,-5.557,-5.573,-0.718,none
1.009652,0.519,-0.241,-0.820,2450.99,-0.671,-0.112,-0.448,-0.602,0.030,0.798,0.731,-0.121,-0.672,2452.51,-0.783,-0.224,-0.895,-0.680,0.215,0.701,0.278,-0.405,-0.871,2451.81,-0.336,0.448,0.000,-0.337,0.404,0.851,-0.250,0.233,-0.940,2439.54,0.000,0.000,0.224,-0.136,-0.640,-0.756,0.495,0.249,0.832,10.819,5.802,-0.122,-1.099,0.752,0.375,0.543,10.139,-5.221,-5.160,-0.626,none
1.030436,0.519,-0.241,-0.820,2450.99,0.000,-0.112,-0.448,-0.603,0.054,0.796,0.731,-0.131,-0.669,2477.49,-0.112,-0.448,-0.560,-0.682,0.316,0.660,0.277,-0.404,-0.872,2460.53,-0.560,-0.112,-0.224,-0.326,0.430,0.842,-0.253,0.233,-0.939,2442.06,-0.448,0.000,0.112,-0.150,-0.626,-0.765,0.495,0.250,0.832,10.862,5.618,0.015,-1.344,0.752,0.374,0.542,10.180,-5.405,-5.130,-0.885,none
1.053277,0.518,-0.236,-0.822,2457.64,-0.224,0.112,-0.224,-0.594,0.054,0.802,0.730,-0.128,-0.672,2469.01,-0.112,0.112,-0.224,-0.672,0.267,0.691,0.279,-0.402,-0.872,2447.78,-0.112,0.224,-0.336,-0.289,0.471,0.833,-0.248,0.240,-0.939,2452.72,-0.448,0.112,0.112,-0.165,-0.620,-0.767,0.495,0.248,0.833,10.855,5.695,0.580,-1.832,0.754,0.374,0.540,10.153,-5.573,-4.473,-1.191,none
1.074923,0.517,-0.238,-0.822,2443.94,0.336,0.224,0.224,-0.608,0.022,0.794,0.730,-0.128,-0.672,2469.01,0.336,0.224,0.448,-0.679,0.153,0.718,0.274,-0.406,-0.872,2449.05,0.560,0.224,0.112,-0.301,0.452,0.840,-0.251,0.234,-0.939,2430.14,0.112,0.000,0.000,-0.152,-0.661,-0.735,0.494,0.249,0.833,10.835,5.634,0.489,-1.786,0.752,0.376,0.541,10.135,-5.481,-4.977,-1.389,none
1.096836,0.519,-0.241,-0.820,2450.99,-0.224,0.448,-0.112,-0.638,0.045,0.769,0.730,-0.128,-0.672,2469.01,-0.336,0.224,-0.224,-0.661,0.207,0.721,0.281,-0.408,-0.868,2458.27,0.000,0.336,-0.224,-0.324,0.480,0.815,-0.246,0.233,-0.941,2437.06,-0.336,-0.224,0.224,-0.130,-0.648,-0.751,0.494,0.250,0.833,10.845,5.771,-0.031,-1.176,0.752,0.375,0.541,10.177,-5.313,-5.221,-0.855,none
1.118670,0.519,-0.237,-0.821,2448.60,-0.336,0.000,-0.560,-0.606,0.025,0.795,0.730,-0.128,-0.672,2469.01,-0.336,-0.112,-0.671,-0.677,0.228,0.700,0.277,-0.404,-0.872,2460.53,-0.783,-0.336,-0.448,-0.343,0.440,0.830,-0.246,0.237,-0.940,2439.41,-0.224,0.000,0.000,-0.136,-0.624,-0.770,0.496,0.249,0.832,10.836,5.237,0.092,-1.298,0.754,0.376,0.538,10.174,-5.664,-4.931,-0.748,none
1.141123,0.514,-0.238,-0.824,2438.78,-0.112,-0.112,-0.112,-0.623,0.017,0.782,0.730,-0.129,-0.671,2455.00,0.112,-0.336,-0.112,-0.671,0.275,0.689,0.275,-0.402,-0.873,2445.01,0.000,0.000,0.224,-0.306,0.409,0.860,-0.245,0.241,-0.939,2440.86,0.000,-0.112,0.112,-0.111,-0.635,-0.764,0.497,0.249,0.831,10.840,5.008,0.565,-1.664,0.754,0.374,0.540,10.168,-6.122,-4.397,-0.931,none
1.163482,0.517,-0.238,-0.822,2443.94,0.671,-0.336,0.560,-0.598,0.025,0.801,0.728,-0.128,-0.674,2476.47,0.560,0.112,0.783,-0.634,0.200,0.747,0.277,-0.404,-0.872,2460.53,0.448,-0.112,0.560,-0.334,0.395,0.856,-0.254,0.237,-0.938,2435.02,0.224,-0.224,0.000,-0.137,-0.630,-0.764,0.496,0.248,0.832,10.856,4.992,0.656,-1.771,0.753,0.375,0.540,10.148,-6.107,-4.366,-1.023,none
1.185384,0.517,-0.240,-0.822,2460.02,0.448,0.000,0.448,-0.592,0.032,0.805,0.732,-0.128,-0.669,2462.31,0.224,0.000,0.560,-0.614,0.191,0.766,0.280,-0.402,-0.872,2472.03,0.560,0.224,0.560,-0.321,0.393,0.862,-0.249,0.232,-0.940,2448.94,0.224,-0.224,0.000,-0.139,-0.665,-0.733,0.491,0.249,0.835,10.862,5.069,0.244,-1.573,0.750,0.375,0.544,10.158,-5.969,-4.458,-0.702,none
1.208554,0.517,-0.240,-0.822,2460.02,0.336,-0.112,0.448,-0.586,0.046,0.809,0.730,-0.132,-0.671,2470.18,0.336,-0.112,0.448,-0.665,0.241,0.707,0.279,-0.410,-0.868,2445.92,0.112,-0.112,0.448,-0.334,0.417,0.845,-0.250,0.233,-0.940,2439.54,0.448,0.000,0.000,-0.133,-0.651,-0.748,0.492,0.247,0.835,10.847,5.084,0.000,-1.237,0.753,0.373,0.543,10.147,-5.817,-4.550,-0.443,none
1.231335,0.517,-0.240,-0.822,2460.02,0.336,-0.560,0.224,-0.627,-0.021,0.778,0.730,-0.128,-0.672,2469.01,0.336,-0.448,0.336,-0.690,0.264,0.674,0.278,-0.408,-0.869,2455.48,0.000,-0.560,0.224,-0.326,0.406,0.854,-0.249,0.237,-0.939,2441.89,0.224,0.000,0.000,-0.155,-0.608,-0.779,0.496,0.247,0.833,10.821,5.023,0.305,-1.496,0.753,0.375,0.541,10.170,-5.939,-4.519,-0.733,none
1.253986,0.517,-0.238,-0.822,2443.94,0.336,-0.112,0.448,-0.595,0.046,0.803,0.730,-0.128,-0.672,2469.01,0.448,0.000,0.560,-0.662,0.271,0.699,0.273,-0.404,-0.873,2457.77,0.448,0.112,0.336,-0.307,0.370,0.877,-0.253,0.236,-0.938,2444.40,0.336,-0.112,0.000,-0.134,-0.628,-0.767,0.495,0.250,0.832,10.841,5.282,0.901,-2.275,0.753,0.375,0.541,10.161,-6.015,-4.366,-1.618,none
1.277824,0.518,-0.236,-0.822,2457.64,0.560,0.224,0.671,-0.609,0.014,0.793,0.730,-0.128,-0.672,2469.01,0.224,0.560,0.895,-0.678,0.277,0.681,0.278,-0.405,-0.871,2451.81,1.119,0.560,0.448,-0.304,0.449,0.841,-0.249,0.241,-0.938,2443.34,0.224,-0.560,0.000,-0.165,-0.620,-0.767,0.497,0.251,0.831,10.822,4.901,1.649,-2.947,0.752,0.375,0.541,10.166,-6.489,-3.893,-2.031,none
1.299626,0.519,-0.241,-0.820,2450.99,0.783,0.671,1.343,-0.601,0.039,0.799,0.731,-0.132,-0.669,2463.48,0.448,0.895,1.567,-0.710,0.278,0.647,0.278,-0.408,-0.869,2455.48,1.679,0.560,1.119,-0.314,0.472,0.824,-0.247,0.234,-0.940,2427.66,0.224,-0.783,-0.224,-0.138,-0.620,-0.772,0.491,0.246,0.835,10.853,4.061,1.756,-2.550,0.751,0.375,0.544,10.147,-7.115,-3.985,-1.634,none
1.324787,0.516,-0.242,-0.822,2446.33,1.119,0.224,1.567,-0.613,0.080,0.786,0.730,-0.132,-0.671,2456.17,0.783,0.560,2.126,-0.702,0.192,0.686,0.276,-0.410,-0.869,2468.26,0.895,0.000,1.455,-0.341,0.378,0.861,-0.250,0.233,-0.940,2439.54,0.224,-0.671,-0.224,-0.110,-0.633,-0.766,0.492,0.247,0.835,10.848,3.603,1.710,-2.092,0.753,0.375,0.541,10.157,-7.282,-4.489,-1.359,none
1.344736,0.519,-0.239,-0.821,2435.72,0.895,-0.783,1.567,-0.608,0.006,0.794,0.730,-0.128,-0.672,2469.01,0.224,-0.560,2.014,-0.654,0.247,0.715,0.274,-0.406,-0.872,2449.05,0.448,-0.895,1.567,-0.326,0.434,0.840,-0.254,0.237,-0.938,2435.02,0.560,-1.119,-0.224,-0.113,-0.632,-0.767,0.493,0.248,0.834,10.819,2.977,2.137,-2.031,0.753,0.373,0.542,10.139,-7.847,-4.137,-1.023,none
1.369482,0.516,-0.242,-0.822,2446.33,1.790,-0.783,2.014,-0.569,0.045,0.821,0.730,-0.132,-0.671,2470.18,1.119,-0.895,2.350,-0.680,0.212,0.702,0.274,-0.412,-0.869,2456.82,1.007,-1.343,1.567,-0.351,0.410,0.842,-0.253,0.232,-0.939,2451.45,1.231,-1.231,-0.336,-0.120,-0.641,-0.758,0.490,0.245,0.837,10.845,3.191,1.771,-1.924,0.752,0.372,0.545,10.155,-7.481,-4.351,-1.023,none
1.393013,0.518,-0.245,-0.819,2454.24,1.231,-1.119,1.790,-0.622,0.034,0.782,0.730,-0.132,-0.671,2470.18,1.007,-0.783,1.902,-0.667,0.229,0.708,0.280,-0.413,-0.867,2475.16,0.783,-0.783,1.343,-0.333,0.404,0.852,-0.249,0.225,-0.942,2444.60,0.895,-1.231,-0.112,-0.096,-0.642,-0.761,0.487,0.246,0.838,10.859,3.466,0.519,-1.221,0.750,0.373,0.547,10.157,-6.870,-5.649,-0.443,none
1.413703,0.515,-0.249,-0.820,2452.06,-0.448,-0.783,0.112,-0.576,0.016,0.817,0.731,-0.135,-0.669,2478.82,-0.671,-1.119,-0.336,-0.635,0.242,0.733,0.281,-0.411,-0.867,2462.37,-1.119,-1.007,0.336,-0.298,0.416,0.859,-0.249,0.225,-0.942,2444.60,0.000,-1.231,0.336,-0.134,-0.640,-0.756,0.490,0.246,0.836,10.870,3.573,-0.626,-0.061,0.751,0.375,0.544,10.180,-6.397,-6.137,0.641,none
1.437078,0.516,-0.242,-0.822,2446.33,-1.007,-1.455,-0.560,-0.584,0.006,0.812,0.730,-0.132,-0.671,2470.18,-0.560,-1.455,-0.671,-0.623,0.211,0.753,0.281,-0.408,-0.868,2458.27,-1.790,-1.455,0.448,-0.335,0.415,0.846,-0.249,0.232,-0.940,2448.94,-0.336,-0.336,0.336,-0.105,-0.654,-0.749,0.492,0.246,0.835,10.890,4.046,-1.145,0.321,0.755,0.374,0.539,10.187,-5.985,-5.878,1.053,none
1.461528,0.513,-0.242,-0.823,2441.19,-0.895,-1.790,-0.671,-0.598,0.019,0.801,0.727,-0.135,-0.673,2478.96,-0.336,-1.455,-1.007,-0.642,0.256,0.723,0.274,-0.406,-0.872,2449.05,-1.790,-1.567,0.336,-0.319,0.386,0.866,-0.254,0.238,-0.937,2467.81,-0.112,0.112,0.224,-0.110,-0.641,-0.760,0.493,0.241,0.836,10.888,5.038,-0.351,-0.763,0.756,0.369,0.541,10.174,-5.695,-4.824,-0.076,none
1.482796,0.510,-0.237,-0.827,2456.12,-0.112,-0.783,-0.112,-0.629,0.046,0.776,0.726,-0.128,-0.676,2469.20,-0.112,-0.560,-0.224,-0.684,0.301,0.664,0.270,-0.409,-0.871,2450.00,-0.112,-0.560,-0.112,-0.270,0.393,0.879,-0.255,0.235,-0.938,2464.51,-0.112,0.336,0.000,-0.164,-0.646,-0.746,0.493,0.239,0.836,10.866,6.473,0.534,-1.924,0.755,0.367,0.544,10.153,-5.053,-3.985,-1.481,none
1.502337,0.511,-0.241,-0.825,2450.25,0.560,0.783,0.112,-0.578,0.046,0.815,0.726,-0.132,-0.675,2470.36,0.560,1.119,0.224,-0.669,0.225,0.709,0.269,-0.411,-0.871,2462.81,0.895,0.112,-0.448,-0.302,0.395,0.868,-0.256,0.232,-0.939,2452.80,0.112,0.560,-0.224,-0.169,-0.633,-0.756,0.494,0.242,0.835,10.866,7.649,1.069,-2.718,0.755,0.368,0.543,10.170,-4.489,-3.756,-2.580,none
1.524030,0.511,-0.245,-0.824,2451.86,0.671,1.679,0.000,-0.573,0.052,0.818,0.726,-0.132,-0.675,2470.36,0.783,1.567,0.112,-0.638,0.223,0.737,0.268,-0.406,-0.873,2467.44,0.783,0.895,-1.119,-0.313,0.407,0.858,-0.256,0.235,-0.938,2455.13,0.000,0.671,-0.336,-0.145,-0.645,-0.751,0.495,0.244,0.834,10.829,8.733,1.771,-3.863,0.753,0.373,0.542,10.170,-4.122,-3.527,-3.756,none
1.546288,0.517,-0.238,-0.822,2443.94,0.671,2.798,0.000,-0.622,0.034,0.782,0.728,-0.128,-0.674,2461.72,0.448,2.574,0.448,-0.674,0.247,0.696,0.273,-0.407,-0.871,2461.43,1.343,1.790,-1.343,-0.324,0.379,0.867,-0.253,0.240,-0.937,2445.85,-0.224,0.783,-0.448,-0.155,-0.608,-0.779,0.493,0.247,0.834,10.854,8.855,2.489,-4.702,0.752,0.372,0.544,10.168,-4.321,-2.458,-4.351,none
1.569662,0.516,-0.242,-0.822,2446.33,1.790,2.798,0.895,-0.596,0.011,0.803,0.729,-0.136,-0.671,2471.52,1.455,3.133,1.567,-0.638,0.324,0.699,0.277,-0.407,-0.870,2464.17,2.126,2.014,-0.895,-0.349,0.444,0.825,-0.246,0.229,-0.942,2433.81,0.000,0.671,-0.671,-0.136,-0.640,-0.756,0.488,0.251,0.836,10.802,9.069,2.061,-4.733,0.747,0.378,0.547,10.154,-4.244,-2.916,-4.244,none
1.591401,0.518,-0.245,-0.819,2454.24,1.679,2.798,0.783,-0.657,0.040,0.753,0.733,-0.136,-0.667,2472.14,1.231,2.910,1.231,-0.642,0.256,0.723,0.284,-0.411,-0.866,2464.91,1.343,1.902,-1.231,-0.318,0.422,0.849,-0.246,0.229,-0.942,2433.81,-0.112,0.448,-0.671,-0.117,-0.645,-0.755,0.486,0.252,0.836,10.828,8.977,1.023,-3.740,0.747,0.380,0.545,10.155,-3.969,-3.466,-3.267,none
1.613030,0.523,-0.245,-0.816,2451.27,0.783,1.902,-0.224,-0.634,-0.002,0.774,0.735,-0.136,-0.664,2466.22,0.112,1.567,0.000,-0.629,0.220,0.745,0.285,-0.408,-0.868,2460.82,0.336,0.560,-1.231,-0.341,0.415,0.844,-0.242,0.226,-0.943,2429.32,-0.112,0.671,-0.783,-0.166,-0.647,-0.744,0.487,0.255,0.836,10.843,7.924,-0.305,-2.183,0.746,0.379,0.548,10.145,-4.153,-4.519,-1.511,none
1.636122,0.523,-0.245,-0.816,2451.27,-0.448,0.112,-0.895,-0.613,0.033,0.790,0.736,-0.132,-0.665,2464.88,-0.336,0.224,-1.007,-0.639,0.227,0.735,0.281,-0.411,-0.867,2462.37,-0.448,-0.336,-1.119,-0.342,0.361,0.868,-0.244,0.235,-0.941,2414.86,-0.448,0.560,0.000,-0.148,-0.632,-0.761,0.489,0.255,0.834,10.852,6.153,-1.130,-0.687,0.749,0.380,0.544,10.162,-4.901,-5.221,0.076,none
1.658834,0.521,-0.242,-0.819,2442.80,-0.783,-0.671,-0.783,-0.589,0.002,0.808,0.731,-0.132,-0.669,2463.48,-0.336,-0.895,-0.895,-0.694,0.220,0.685,0.278,-0.405,-0.871,2451.81,-1.343,-1.119,-0.448,-0.307,0.427,0.851,-0.247,0.238,-0.940,2430.02,0.000,0.448,0.000,-0.139,-0.625,-0.768,0.490,0.251,0.835,10.856,4.580,-1.282,0.107,0.751,0.378,0.541,10.163,-5.863,-5.176,1.008,none
1.682197,0.519,-0.241,-0.820,2450.99,-0.671,-1.567,-0.448,-0.648,0.015,0.761,0.731,-0.132,-0.669,2463.48,0.000,-1.455,-0.448,-0.687,0.281,0.670,0.278,-0.408,-0.869,2455.48,-1.007,-1.343,0.448,-0.306,0.418,0.855,-0.250,0.233,-0.940,2439.54,0.112,-0.112,0.336,-0.143,-0.645,-0.751,0.491,0.248,0.835,10.830,3.969,-1.435,0.397,0.751,0.376,0.542,10.153,-6.000,-5.405,1.328,none
1.703626,0.514,-0.241,-0.823,2455.38,-0.895,-1.902,-0.336,-0.630,0.034,0.776,0.728,-0.132,-0.673,2462.90,-0.671,-1.455,-0.783,-0.664,0.288,0.689,0.274,-0.412,-0.869,2456.82,-1.119,-1.119,0.112,-0.292,0.423,0.858,-0.253,0.232,-0.939,2451.45,-0.336,0.112,0.336,-0.122,-0.637,-0.761,0.491,0.247,0.835,10.847,4.351,-1.679,0.504,0.750,0.373,0.546,10.196,-5.679,-5.710,1.298,none
1.724622,0.514,-0.241,-0.823,2455.38,-1.231,-1.231,-0.560,-0.595,0.019,0.803,0.728,-0.132,-0.673,2462.90,-0.671,-1.231,-1.455,-0.640,0.270,0.720,0.273,-0.404,-0.873,2457.77,-1.231,-0.671,-0.336,-0.300,0.427,0.853,-0.253,0.232,-0.939,2451.45,-0.224,0.336,0.448,-0.161,-0.628,-0.762,0.494,0.247,0.834,10.835,4.779,-1.344,0.015,0.751,0.372,0.546,10.154,-5.496,-5.573,0.656,none
1.747499,0.513,-0.242,-0.823,2441.19,-0.671,-0.783,-0.671,-0.612,0.060,0.789,0.730,-0.132,-0.671,2456.17,-0.783,-0.783,-0.895,-0.671,0.217,0.709,0.270,-0.405,-0.874,2455.06,-1.007,-0.448,-0.560,-0.337,0.463,0.820,-0.253,0.236,-0.938,2444.40,-0.336,0.336,0.224,-0.142,-0.650,-0.747,0.493,0.247,0.835,10.838,5.389,-0.229,-0.962,0.750,0.372,0.546,10.152,-5.420,-5.084,-0.504,none
1.770009,0.516,-0.242,-0.822,2446.33,0.000,-0.448,-0.448,-0.647,0.050,0.761,0.728,-0.132,-0.673,2462.90,-0.112,-0.112,-0.336,-0.714,0.277,0.643,0.274,-0.409,-0.870,2452.72,-0.560,-0.112,-0.448,-0.330,0.464,0.822,-0.252,0.236,-0.939,2453.78,-0.448,0.112,0.112,-0.129,-0.625,-0.770,0.491,0.247,0.836,10.893,6.153,0.748,-2.260,0.751,0.377,0.542,10.182,-5.328,-4.489,-1.863,none
1.792290,0.516,-0.242,-0.822,2446.33,0.000,0.560,0.000,-0.589,0.019,0.808,0.731,-0.132,-0.669,2463.48,0.671,1.007,0.448,-0.659,0.223,0.718,0.277,-0.404,-0.872,2460.53,0.783,0.783,-0.224,-0.335,0.415,0.846,-0.252,0.236,-0.939,2453.78,0.000,0.000,0.000,-0.093,-0.651,-0.754,0.491,0.249,0.835,10.854,6.229,1.298,-2.931,0.750,0.377,0.543,10.151,-5.450,-4.061,-2.458,none
1.813341,0.518,-0.245,-0.819,2454.24,0.560,1.007,0.560,-0.600,0.008,0.800,0.730,-0.132,-0.671,2470.18,0.448,1.343,0.783,-0.640,0.276,0.717,0.281,-0.407,-0.869,2466.96,1.343,1.231,-0.112,-0.353,0.395,0.848,-0.247,0.230,-0.941,2424.39,0.112,0.000,-0.112,-0.134,-0.646,-0.751,0.490,0.249,0.835,10.830,6.122,1.084,-2.550,0.750,0.376,0.545,10.148,-5.420,-4.275,-1.985,none
1.837468,0.522,-0.247,-0.817,2437.06,0.336,0.783,0.224,-0.626,0.014,0.779,0.736,-0.132,-0.665,2464.88,0.224,0.783,0.448,-0.662,0.206,0.721,0.281,-0.407,-0.869,2466.96,0.671,0.336,-0.112,-0.312,0.491,0.814,-0.246,0.229,-0.942,2433.81,0.112,0.000,-0.112,-0.137,-0.635,-0.760,0.492,0.249,0.834,10.833,5.908,0.229,-1.511,0.749,0.376,0.545,10.143,-5.405,-4.763,-0.947,none
1.857940,0.521,-0.244,-0.818,2459.44,-0.336,-0.224,-0.112,-0.589,0.034,0.807,0.733,-0.132,-0.667,2470.80,-0.224,-0.448,-0.448,-0.632,0.216,0.745,0.281,-0.407,-0.869,2466.96,-0.336,-0.448,0.000,-0.291,0.460,0.839,-0.249,0.232,-0.940,2448.94,-0.112,0.112,0.000,-0.131,-0.637,-0.760,0.491,0.249,0.835,10.841,5.786,-0.534,-1.053,0.751,0.377,0.542,10.152,-5.237,-5.038,-0.443,none
1.880421,0.518,-0.236,-0.822,2457.64,-0.336,-0.112,-0.448,-0.622,0.036,0.782,0.730,-0.129,-0.671,2455.00,-0.336,-0.448,-0.671,-0.675,0.297,0.675,0.273,-0.404,-0.873,2457.77,-0.671,-0.671,-0.336,-0.338,0.449,0.827,-0.254,0.237,-0.938,2435.02,-0.448,0.112,0.224,-0.130,-0.614,-0.778,0.492,0.250,0.834,10.841,5.405,-0.321,-1.160,0.752,0.375,0.542,10.176,-5.496,-4.718,-0.366,none
1.903044,0.516,-0.242,-0.822,2446.33,-0.224,-0.112,0.000,-0.606,0.017,0.796,0.728,-0.132,-0.673,2462.90,0.224,-0.112,0.336,-0.635,0.205,0.745,0.275,-0.402,-0.873,2445.01,-0.112,-0.448,0.112,-0.279,0.365,0.888,-0.253,0.236,-0.938,2444.40,0.112,0.112,-0.112,-0.157,-0.614,-0.774,0.495,0.248,0.833,10.830,5.160,0.046,-1.603,0.751,0.377,0.542,10.158,-5.863,-4.336,-0.641,none
1.924651,0.516,-0.242,-0.822,2446.33,0.224,-0.224,0.560,-0.595,0.038,0.803,0.730,-0.132,-0.671,2470.18,0.224,-0.112,0.671,-0.634,0.201,0.747,0.274,-0.406,-0.872,2449.05,0.448,0.000,0.336,-0.295,0.411,0.863,-0.249,0.232,-0.940,2448.94,0.224,0.000,0.000,-0.128,-0.652,-0.748,0.492,0.248,0.835,10.831,5.450,0.229,-1.786,0.751,0.373,0.545,10.148,-5.740,-4.351,-0.947,none
1.945983,0.517,-0.246,-0.820,2441.39,0.000,0.000,0.448,-0.581,0.060,0.811,0.733,-0.136,-0.667,2472.14,0.112,0.112,0.448,-0.695,0.248,0.675,0.278,-0.408,-0.869,2455.48,0.448,0.112,0.224,-0.348,0.434,0.831,-0.253,0.228,-0.940,2448.21,0.224,0.000,0.000,-0.104,-0.654,-0.749,0.490,0.247,0.836,10.836,5.740,0.076,-1.450,0.751,0.375,0.544,10.168,-5.435,-4.855,-0.855,none
1.968386,0.518,-0.245,-0.819,2454.24,-0.112,0.224,-0.112,-0.622,0.034,0.782,0.729,-0.136,-0.671,2471.52,-0.112,0.112,-0.224,-0.627,0.287,0.724,0.278,-0.408,-0.869,2455.48,-0.448,-0.112,-0.224,-0.348,0.459,0.818,-0.249,0.232,-0.940,2448.94,-0.224,0.224,0.000,-0.145,-0.634,-0.760,0.491,0.251,0.834,10.860,6.031,-0.168,-1.298,0.750,0.376,0.544,10.185,-5.053,-5.053,-0.870,none
1.990272,0.519,-0.241,-0.820,2450.99,-0.112,0.000,-0.671,-0.622,0.049,0.781,0.731,-0.132,-0.669,2463.48,-0.560,0.000,-0.671,-0.659,0.219,0.720,0.278,-0.405,-0.871,2451.81,-0.224,-0.112,-0.671,-0.306,0.418,0.855,-0.249,0.237,-0.939,2441.89,-0.336,0.112,0.112,-0.132,-0.644,-0.754,0.493,0.251,0.833,10.837,5.908,0.015,-1.450,0.750,0.377,0.543,10.168,-5.221,-4.779,-0.855,none
2.012223,0.521,-0.242,-0.819,2442.80,0.224,0.112,-0.224,-0.608,0.040,0.793,0.731,-0.132,-0.669,2463.48,-0.224,0.000,-0.448,-0.669,0.221,0.710,0.278,-0.405,-0.871,2451.81,0.224,0.112,-0.671,-0.311,0.403,0.861,-0.245,0.232,-0.941,2446.47,0.000,0.448,0.000,-0.134,-0.628,-0.767,0.494,0.250,0.833,10.838,5.588,0.000,-1.282,0.751,0.377,0.542,10.146,-5.435,-4.641,-0.733,none
2.033204,0.518,-0.236,-0.822,2457.64,-0.336,-0.112,0.000,-0.567,0.032,0.823,0.730,-0.132,-0.671,2470.18,0.000,-0.224,0.000,-0.654,0.296,0.696,0.273,-0.407,-0.871,2461.43,0.000,-0.224,-0.112,-0.332,0.426,0.842,-0.248,0.236,-0.940,2451.28,0.224,0.112,-0.112,-0.124,-0.638,-0.760,0.492,0.248,0.834,10.839,5.542,0.046,-1.267,0.751,0.376,0.543,10.185,-5.511,-4.718,-0.641,none
2.055935,0.514,-0.241,-0.823,2455.38,0.112,-0.224,-0.112,-0.553,0.051,0.831,0.730,-0.132,-0.671,2470.18,-0.112,-0.112,-0.112,-0.686,0.221,0.693,0.277,-0.404,-0.872,2460.53,0.000,-0.336,-0.112,-0.296,0.401,0.867,-0.253,0.232,-0.939,2451.45,0.224,0.000,0.000,-0.150,-0.632,-0.760,0.493,0.247,0.834,10.820,5.740,0.260,-1.588,0.751,0.373,0.545,10.147,-5.450,-4.626,-1.069,none
2.077595,0.516,-0.242,-0.822,2446.33,0.000,0.112,-0.112,-0.605,0.043,0.795,0.728,-0.132,-0.673,2462.90,0.224,0.224,0.112,-0.638,0.223,0.737,0.273,-0.407,-0.871,2461.43,-0.112,0.000,-0.112,-0.303,0.430,0.851,-0.253,0.233,-0.939,2442.06,0.224,0.000,-0.112,-0.170,-0.611,-0.774,0.492,0.247,0.835,10.843,5.832,0.427,-1.863,0.751,0.374,0.544,10.162,-5.405,-4.641,-1.267,none
2.098619,0.516,-0.245,-0.821,2449.59,0.000,0.336,0.000,-0.619,0.045,0.784,0.730,-0.132,-0.671,2470.18,0.112,0.448,0.000,-0.672,0.311,0.672,0.278,-0.405,-0.871,2451.81,-0.112,0.224,-0.336,-0.299,0.453,0.840,-0.249,0.232,-0.940,2448.94,0.000,-0.112,0.224,-0.173,-0.624,-0.762,0.490,0.250,0.835,10.855,5.893,0.244,-1.695,0.752,0.372,0.544,10.149,-5.359,-4.733,-1.115,none
2.121210,0.519,-0.241,-0.820,2450.99,0.336,0.224,0.000,-0.626,0.062,0.777,0.730,-0.132,-0.671,2470.18,-0.224,0.336,-0.112,-0.641,0.206,0.739,0.278,-0.408,-0.869,2455.48,-0.224,-0.112,-0.336,-0.330,0.442,0.834,-0.249,0.232,-0.940,2448.94,-0.112,0.000,0.224,-0.131,-0.643,-0.755,0.491,0.250,0.834,10.840,5.847,0.092,-1.450,0.750,0.377,0.544,10.147,-5.344,-4.595,-0.947,none
2.144469,0.516,-0.242,-0.822,2446.33,0.112,0.224,-0.336,-0.606,0.036,0.795,0.731,-0.132,-0.669,2463.48,0.000,0.000,-0.112,-0.687,0.238,0.687,0.277,-0.404,-0.872,2460.53,-0.224,-0.336,-0.112,-0.290,0.466,0.836,-0.249,0.232,-0.940,2448.94,-0.112,0.000,0.000,-0.127,-0.658,-0.742,0.491,0.249,0.835,10.852,5.863,-0.107,-1.298,0.752,0.378,0.540,10.145,-5.176,-4.809,-0.702,none
2.168774,0.519,-0.241,-0.820,2450.99,-0.224,0.000,-0.224,-0.609,0.061,0.791,0.731,-0.132,-0.669,2463.48,-0.224,0.112,-0.336,-0.656,0.282,0.700,0.278,-0.405,-0.871,2451.81,-0.671,-0.336,-0.224,-0.316,0.453,0.834,-0.246,0.233,-0.941,2437.06,-0.336,0.112,0.112,-0.155,-0.652,-0.742,0.491,0.251,0.834,10.858,5.664,-0.214,-1.145,0.751,0.378,0.541,10.154,-5.359,-4.962,-0.580,none
2.191512,0.519,-0.237,-0.821,2448.60,-0.336,-0.112,-0.448,-0.611,0.055,0.790,0.731,-0.132,-0.669,2463.48,-0.112,-0.224,-0.448,-0.708,0.218,0.672,0.278,-0.401,-0.873,2456.50,-0.224,-0.112,-0.448,-0.312,0.385,0.868,-0.246,0.237,-0.940,2439.41,0.000,0.224,0.224,-0.095,-0.641,-0.762,0.492,0.250,0.834,10.850,5.527,-0.260,-1.267,0.751,0.375,0.543,10.144,-5.511,-4.870,-0.626,none
2.213454,0.516,-0.242,-0.822,2446.33,-0.224,-0.112,-0.112,-0.587,0.027,0.809,0.733,-0.132,-0.667,2470.80,-0.560,-0.224,-0.336,-0.638,0.237,0.732,0.277,-0.404,-0.872,2460.53,-0.448,0.000,-0.448,-0.323,0.442,0.837,-0.250,0.233,-0.940,2439.54,0.000,-0.112,-0.112,-0.105,-0.656,-0.747,0.492,0.250,0.834,10.837,5.664,-0.550,-1.206,0.750,0.373,0.545,10.151,-5.282,-5.053,-0.550,none
2.234463,0.517,-0.240,-0.822,2460.02,-0.783,-0.224,-0.224,-0.600,0.014,0.800,0.730,-0.132,-0.671,2456.17,-0.224,-0.560,-0.336,-0.657,0.237,0.715,0.274,-0.409,-0.870,2452.72,-0.671,-0.224,-0.112,-0.332,0.444,0.832,-0.250,0.233,-0.940,2439.54,-0.224,0.224,0.112,-0.103,-0.658,-0.746,0.491,0.251,0.834,10.847,5.771,-0.595,-1.359,0.752,0.375,0.542,10.148,-5.282,-5.160,-0.656,none
2.256952,0.516,-0.245,-0.821,2449.59,-0.560,-0.112,-0.336,-0.596,0.035,0.802,0.728,-0.131,-0.673,2477.63,-0.783,-0.224,-0.560,-0.650,0.217,0.728,0.278,-0.405,-0.871,2451.81,-0.560,-0.112,-0.224,-0.309,0.441,0.843,-0.249,0.237,-0.939,2441.89,-0.112,0.112,0.336,-0.125,-0.639,-0.759,0.493,0.250,0.834,10.831,5.679,-0.366,-1.573,0.752,0.375,0.541,10.149,-5.435,-4.855,-0.733,none
2.279476,0.518,-0.242,-0.820,2438.12,-0.336,0.000,0.000,-0.614,0.017,0.789,0.730,-0.128,-0.672,2469.01,-0.560,0.000,-0.224,-0.680,0.208,0.703,0.278,-0.405,-0.871,2451.81,0.000,0.112,0.112,-0.321,0.411,0.853,-0.250,0.233,-0.940,2439.54,0.336,-0.224,0.000,-0.126,-0.628,-0.768,0.492,0.249,0.834,10.836,5.389,-0.015,-1.557,0.752,0.375,0.543,10.163,-5.634,-4.611,-0.779,none
2.301421,0.519,-0.241,-0.820,2450.99,-0.336,-0.448,0.112,-0.602,0.047,0.797,0.732,-0.128,-0.669,2462.31,-0.112,0.000,0.112,-0.658,0.276,0.700,0.277,-0.404,-0.872,2460.53,0.112,-0.112,0.112,-0.319,0.386,0.866,-0.249,0.232,-0.940,2448.94,-0.112,-0.112,0.000,-0.146,-0.636,-0.758,0.492,0.251,0.834,10.826,5.511,-0.122,-1.374,0.751,0.375,0.543,10.151,-5.450,-4.809,-0.748,none
2.323295,0.521,-0.242,-0.819,2442.80,-0.448,-0.224,-0.224,-0.615,0.025,0.788,0.731,-0.132,-0.669,2463.48,-0.224,0.000,-0.224,-0.612,0.314,0.726,0.282,-0.402,-0.871,2450.58,-0.224,0.000,-0.224,-0.306,0.409,0.860,-0.249,0.232,-0.940,2448.94,0.112,0.000,0.224,-0.156,-0.636,-0.756,0.495,0.250,0.832,10.833,5.679,0.000,-1.313,0.750,0.376,0.544,10.156,-5.374,-4.916,-0.809,none
2.343701,0.519,-0.241,-0.820,2450.99,-0.448,0.000,-0.224,-0.628,0.012,0.778,0.733,-0.132,-0.667,2470.80,0.000,0.112,-0.448,-0.658,0.278,0.699,0.282,-0.405,-0.870,2454.61,-0.224,0.000,-0.448,-0.332,0.444,0.832,-0.247,0.234,-0.940,2427.66,-0.336,0.000,0.224,-0.121,-0.642,-0.757,0.493,0.250,0.833,10.839,5.450,-0.290,-1.069,0.750,0.377,0.543,10.156,-5.435,-4.916,-0.473,none
2.365852,0.518,-0.236,-0.822,2457.64,-0.336,-0.224,-0.112,-0.615,0.041,0.787,0.730,-0.129,-0.671,2455.00,0.000,-0.112,-0.336,-0.624,0.258,0.737,0.278,-0.405,-0.871,2451.81,-0.224,0.000,-0.448,-0.321,0.393,0.862,-0.249,0.237,-0.939,2441.89,-0.224,0.224,0.000,-0.141,-0.649,-0.748,0.495,0.248,0.833,10.827,5.237,-0.107,-1.206,0.751,0.376,0.543,10.145,-5.634,-4.809,-0.443,none
2.388373,0.519,-0.241,-0.820,2450.99,-0.224,-0.112,-0.112,-0.567,0.055,0.822,0.731,-0.132,-0.669,2463.48,0.224,-0.112,-0.336,-0.664,0.247,0.706,0.277,-0.404,-0.872,2460.53,-0.224,-0.112,0.000,-0.326,0.430,0.842,-0.250,0.233,-0.940,2439.54,0.112,-0.112,0.000,-0.135,-0.635,-0.760,0.495,0.250,0.832,10.837,4.947,-0.168,-1.282,0.752,0.375,0.543,10.166,-5.863,-4.626,-0.519,none
2.411412,0.516,-0.242,-0.822,2446.33,0.000,0.336,0.000,-0.592,0.000,0.806,0.730,-0.132,-0.671,2470.18,0.000,-0.112,0.112,-0.631,0.263,0.730,0.277,-0.404,-0.872,2460.53,0.112,0.000,0.000,-0.297,0.400,0.867,-0.252,0.236,-0.939,2453.78,0.000,0.112,0.000,-0.136,-0.640,-0.756,0.495,0.247,0.833,10.840,5.496,-0.107,-1.206,0.750,0.374,0.545,10.146,-5.389,-4.916,-0.687,none
2.433620,0.514,-0.241,-0.823,2455.38,0.000,0.224,-0.783,-0.585,0.022,0.811,0.730,-0.132,-0.671,2470.18,-0.112,0.112,-0.895,-0.660,0.158,0.735,0.278,-0.408,-0.869,2455.48,-0.448,0.112,-0.560,-0.303,0.375,0.876,-0.250,0.233,-0.940,2439.54,-0.336,0.112,0.000,-0.171,-0.634,-0.754,0.495,0.250,0.832,10.840,6.137,0.092,-0.962,0.752,0.376,0.542,10.175,-5.267,-5.344,-0.641,none
2.455634,0.519,-0.239,-0.821,2435.72,-0.336,-0.224,-0.560,-0.576,0.016,0.817,0.730,-0.128,-0.672,2469.01,-0.336,-0.224,-0.783,-0.671,0.217,0.709,0.278,-0.401,-0.873,2456.50,-0.895,-0.112,-0.448,-0.320,0.449,0.834,-0.246,0.237,-0.940,2439.41,-0.560,0.000,0.336,-0.158,-0.631,-0.760,0.494,0.247,0.833,10.848,5.771,-0.015,-1.344,0.753,0.373,0.542,10.174,-5.252,-5.099,-1.282,none
2.477820,0.519,-0.241,-0.820,2450.99,-0.112,0.224,-0.112,-0.613,0.036,0.789,0.731,-0.132,-0.669,2463.48,0.000,0.112,-0.224,-0.653,0.261,0.711,0.278,-0.405,-0.871,2451.81,0.000,0.112,-0.336,-0.311,0.509,0.803,-0.246,0.237,-0.940,2439.41,-0.224,0.000,0.000,-0.158,-0.638,-0.754,0.493,0.250,0.833,10.841,5.832,0.321,-1.725,0.751,0.376,0.543,10.167,-5.496,-4.626,-1.267,none
2.502347,0.516,-0.242,-0.822,2446.33,0.224,0.224,0.112,-0.637,0.054,0.769,0.730,-0.132,-0.671,2470.18,0.000,0.224,0.112,-0.649,0.331,0.685,0.277,-0.404,-0.872,2460.53,0.000,0.000,0.336,-0.314,0.410,0.856,-0.249,0.232,-0.940,2448.94,0.112,-0.112,0.112,-0.150,-0.622,-0.769,0.494,0.247,0.834,10.835,6.015,0.214,-1.786,0.750,0.374,0.545,10.143,-5.344,-4.672,-1.282,none
2.521988,0.518,-0.242,-0.820,2438.12,-0.112,-0.112,0.112,-0.590,0.027,0.807,0.733,-0.132,-0.667,2470.80,0.000,0.112,-0.224,-0.613,0.273,0.741,0.281,-0.407,-0.869,2466.96,0.000,0.112,-0.336,-0.314,0.472,0.824,-0.250,0.229,-0.941,2436.29,0.000,0.112,0.000,-0.165,-0.619,-0.768,0.494,0.248,0.834,10.857,6.122,-0.122,-1.374,0.753,0.374,0.542,10.158,-5.145,-4.992,-0.916,none
2.544794,0.516,-0.242,-0.822,2446.33,-0.448,0.112,-0.448,-0.621,0.052,0.782,0.731,-0.131,-0.669,2477.49,-0.336,-0.112,-0.671,-0.660,0.215,0.720,0.281,-0.404,-0.871,2463.32,-0.671,0.000,-0.336,-0.342,0.397,0.852,-0.248,0.236,-0.940,2451.28,-0.112,0.224,0.000,-0.107,-0.644,-0.757,0.494,0.249,0.833,10.828,6.092,-0.092,-1.298,0.752,0.375,0.542,10.149,-5.038,-4.962,-0.855,none
2.565078,0.516,-0.242,-0.822,2446.33,-0.336,0.112,-0.560,-0.605,0.051,0.794,0.730,-0.128,-0.672,2469.01,0.000,0.112,-0.783,-0.631,0.269,0.728,0.273,-0.404,-0.873,2457.77,-0.224,0.000,-0.783,-0.353,0.457,0.816,-0.253,0.232,-0.939,2451.45,-0.448,0.336,0.000,-0.161,-0.613,-0.773,0.496,0.250,0.831,10.826,6.183,0.000,-1.466,0.753,0.373,0.542,10.161,-5.084,-5.023,-1.084,none
2.586976,0.517,-0.238,-0.822,2443.94,-0.336,0.224,-0.448,-0.576,0.064,0.815,0.732,-0.128,-0.669,2462.31,0.000,0.224,-0.783,-0.654,0.247,0.715,0.274,-0.401,-0.874,2453.75,-0.336,0.112,-0.560,-0.323,0.418,0.849,-0.249,0.237,-0.939,2441.89,-0.112,0.112,0.000,-0.132,-0.644,-0.754,0.495,0.249,0.832,10.846,6.214,0.427,-1.863,0.754,0.375,0.540,10.165,-5.191,-4.626,-1.420,none
2.617674,0.517,-0.238,-0.822,2443.94,0.224,0.448,-0.224,-0.620,0.044,0.783,0.730,-0.128,-0.672,2469.01,-0.112,0.560,-0.224,-0.662,0.206,0.721,0.282,-0.405,-0.870,2454.61,0.112,0.224,-0.560,-0.308,0.434,0.846,-0.248,0.236,-0.940,2451.28,0.000,0.000,-0.112,-0.143,-0.640,-0.755,0.494,0.250,0.833,10.848,6.092,0.504,-2.031,0.753,0.376,0.540,10.144,-5.344,-4.565,-1.542,none
2.632195,0.521,-0.242,-0.819,2442.80,0.112,0.560,-0.112,-0.603,0.030,0.797,0.732,-0.128,-0.669,2462.31,0.112,0.671,-0.112,-0.637,0.221,0.738,0.278,-0.405,-0.871,2451.81,0.336,0.336,-0.112,-0.298,0.416,0.859,-0.246,0.237,-0.940,2439.41,0.000,0.000,0.000,-0.137,-0.635,-0.760,0.494,0.250,0.833,10.833,5.802,0.626,-2.092,0.752,0.377,0.540,10.148,-5.557,-4.443,-1.435,none
2.657890,0.519,-0.239,-0.821,2435.72,0.112,0.112,0.224,-0.620,0.044,0.783,0.732,-0.128,-0.669,2462.31,0.336,0.448,0.560,-0.660,0.153,0.736,0.281,-0.404,-0.871,2463.32,0.448,0.224,0.112,-0.308,0.434,0.846,-0.245,0.232,-0.941,2446.47,0.224,0.000,-0.112,-0.121,-0.642,-0.757,0.494,0.250,0.833,10.827,5.664,0.473,-1.725,0.750,0.376,0.543,10.150,-5.634,-4.366,-1.145,none
2.681824,0.519,-0.241,-0.820,2450.99,0.336,0.112,0.336,-0.615,0.025,0.788,0.730,-0.132,-0.671,2470.18,0.224,0.112,0.336,-0.673,0.309,0.673,0.281,-0.408,-0.868,2458.27,0.448,0.000,0.224,-0.305,0.446,0.842,-0.245,0.228,-0.942,2443.23,0.000,0.000,-0.112,-0.133,-0.637,-0.760,0.494,0.250,0.833,10.860,5.695,0.031,-1.405,0.751,0.376,0.543,10.175,-5.374,-4.672,-0.763,none
2.703558,0.521,-0.242,-0.819,2442.80,-0.112,0.112,-0.112,-0.623,0.002,0.782,0.732,-0.128,-0.669,2462.31,0.336,-0.224,0.000,-0.626,0.239,0.742,0.281,-0.404,-0.871,2463.32,-0.224,-0.336,-0.112,-0.314,0.391,0.865,-0.249,0.237,-0.939,2441.89,0.112,0.224,-0.112,-0.132,-0.648,-0.751,0.496,0.250,0.832,10.856,5.786,0.107,-1.573,0.750,0.377,0.544,10.158,-5.420,-4.534,-0.916,none
2.726987,0.519,-0.237,-0.821,2448.60,0.224,0.112,0.000,-0.636,0.065,0.769,0.734,-0.129,-0.667,2456.36,-0.224,0.336,0.000,-0.655,0.187,0.732,0.282,-0.405,-0.870,2454.61,-0.112,-0.112,-0.112,-0.321,0.437,0.840,-0.249,0.237,-0.939,2441.89,0.224,0.112,-0.224,-0.171,-0.628,-0.759,0.494,0.250,0.833,10.855,5.969,0.656,-2.076,0.752,0.375,0.543,10.153,-5.435,-4.321,-1.481,none
2.749737,0.516,-0.242,-0.822,2446.33,0.448,0.224,0.224,-0.571,0.065,0.818,0.731,-0.131,-0.669,2477.49,0.560,0.671,0.560,-0.685,0.250,0.685,0.282,-0.405,-0.870,2454.61,0.671,0.560,-0.336,-0.318,0.482,0.817,-0.246,0.233,-0.941,2437.06,0.112,0.000,-0.224,-0.175,-0.605,-0.777,0.493,0.252,0.833,10.831,5.985,0.550,-2.046,0.752,0.378,0.540,10.168,-5.435,-4.366,-1.359,none
2.771860,0.519,-0.241,-0.820,2450.99,0.336,0.560,0.224,-0.618,0.048,0.784,0.734,-0.129,-0.667,2456.36,0.000,0.336,0.448,-0.674,0.247,0.696,0.282,-0.402,-0.871,2450.58,0.336,0.224,-0.224,-0.316,0.396,0.862,-0.246,0.242,-0.939,2431.47,0.000,0.112,-0.112,-0.151,-0.617,-0.772,0.494,0.251,0.833,10.857,6.092,1.176,-2.046,0.750,0.376,0.544,10.159,-5.725,-3.496,-1.282,none
2.793137,0.518,-0.245,-0.819,2454.24,0.895,0.112,1.007,-0.598,0.025,0.801,0.731,-0.131,-0.669,2477.49,1.455,0.448,1.231,-0.619,0.275,0.736,0.277,-0.404,-0.872,2460.53,0.448,0.336,-0.671,-0.340,0.451,0.825,-0.250,0.233,-0.940,2439.54,0.336,0.783,-0.336,-0.120,-0.642,-0.757,0.492,0.250,0.834,10.846,6.260,0.412,-1.603,0.749,0.377,0.545,10.144,-5.298,-4.611,-1.023,none
2.814069,0.519,-0.241,-0.820,2450.99,-0.112,0.224,-0.224,-0.587,0.027,0.809,0.731,-0.135,-0.669,2478.82,-0.336,0.000,-0.224,-0.642,0.256,0.723,0.277,-0.407,-0.870,2464.17,-0.671,0.224,-0.671,-0.326,0.430,0.842,-0.245,0.236,-0.940,2448.81,-0.112,0.000,0.224,-0.132,-0.644,-0.754,0.491,0.250,0.834,10.853,5.969,0.305,-1.542,0.751,0.377,0.542,10.142,-5.359,-4.626,-1.023,none
2.839496,0.518,-0.245,-0.819,2454.24,-0.112,0.112,0.000,-0.582,0.065,0.810,0.732,-0.133,-0.669,2450.21,0.112,0.000,-0.224,-0.612,0.223,0.759,0.278,-0.408,-0.869,2455.48,0.112,0.000,-0.671,-0.330,0.419,0.846,-0.246,0.233,-0.941,2437.06,-0.112,0.224,-0.224,-0.119,-0.647,-0.753,0.492,0.250,0.834,10.877,5.405,-0.198,-1.145,0.750,0.376,0.544,10.176,-5.542,-4.992,-0.595,none
2.861087,0.519,-0.241,-0.820,2450.99,0.224,-0.336,-0.224,-0.619,0.045,0.784,0.732,-0.128,-0.669,2462.31,-0.224,-0.224,-0.336,-0.674,0.181,0.716,0.282,-0.405,-0.870,2454.61,-0.671,0.000,-0.448,-0.335,0.395,0.856,-0.246,0.237,-0.940,2439.41,0.000,0.112,-0.112,-0.129,-0.625,-0.770,0.491,0.251,0.834,10.853,5.496,-0.397,-1.160,0.750,0.376,0.544,10.169,-5.435,-4.840,-0.595,none
2.882192,0.519,-0.241,-0.820,2450.99,0.224,-0.336,-0.112,-0.643,-0.002,0.766,0.731,-0.132,-0.669,2463.48,-0.224,-0.448,-0.448,-0.654,0.247,0.715,0.282,-0.405,-0.870,2454.61,-0.783,0.000,-0.448,-0.321,0.374,0.870,-0.249,0.232,-0.940,2448.94,0.000,0.224,-0.112,-0.142,-0.616,-0.775,0.493,0.253,0.833,10.828,5.985,-0.519,-1.389,0.751,0.377,0.542,10.143,-5.130,-4.992,-0.870,none
2.903323,0.516,-0.242,-0.822,2446.33,-0.671,0.112,-0.448,-0.631,0.025,0.775,0.732,-0.128,-0.669,2462.31,-0.783,0.000,-1.007,-0.647,0.181,0.741,0.282,-0.402,-0.871,2450.58,-0.783,0.336,-0.671,-0.305,0.400,0.864,-0.250,0.233,-0.940,2439.54,-0.448,0.448,0.000,-0.123,-0.643,-0.756,0.494,0.251,0.832,10.837,6.382,-0.366,-1.435,0.753,0.375,0.541,10.163,-5.023,-5.008,-0.977,none
2.924690,0.519,-0.237,-0.821,2448.60,-0.336,0.224,-0.560,-0.607,0.025,0.794,0.732,-0.128,-0.670,2476.32,-0.560,0.112,-0.895,-0.678,0.161,0.717,0.278,-0.401,-0.873,2456.50,-0.560,0.224,-0.671,-0.305,0.465,0.831,-0.246,0.237,-0.940,2439.41,-0.224,0.448,0.224,-0.132,-0.650,-0.749,0.494,0.252,0.832,10.859,6.168,-0.076,-1.557,0.751,0.377,0.542,10.161,-5.160,-4.855,-1.099,none
2.946795,0.519,-0.237,-0.821,2448.60,-0.112,0.000,-0.112,-0.601,0.063,0.797,0.730,-0.129,-0.671,2455.00,-0.224,0.336,-0.671,-0.683,0.257,0.683,0.278,-0.405,-0.871,2451.81,-0.224,0.224,-0.224,-0.333,0.431,0.839,-0.246,0.237,-0.940,2439.41,0.000,0.224,-0.112,-0.120,-0.601,-0.790,0.493,0.251,0.833,10.872,5.756,0.260,-1.664,0.752,0.376,0.541,10.169,-5.481,-4.611,-1.099,none
2.969378,0.521,-0.242,-0.819,2442.80,0.224,0.112,0.112,-0.646,0.054,0.761,0.732,-0.128,-0.669,2462.31,0.000,0.112,0.112,-0.642,0.256,0.723,0.282,-0.405,-0.870,2454.61,0.224,-0.112,0.000,-0.343,0.440,0.830,-0.246,0.237,-0.940,2439.41,0.224,0.112,-0.112,-0.115,-0.654,-0.747,0.494,0.252,0.832,10.849,5.802,0.458,-1.649,0.750,0.376,0.543,10.149,-5.542,-4.443,-1.084,none
2.991274,0.516,-0.242,-0.822,2446.33,0.000,-0.224,0.224,-0.599,0.050,0.799,0.731,-0.132,-0.669,2463.48,0.112,0.000,0.336,-0.648,0.283,0.707,0.282,-0.405,-0.870,2454.61,0.336,0.112,0.000,-0.314,0.472,0.824,-0.250,0.229,-0.941,2436.29,0.112,-0.112,-0.112,-0.147,-0.636,-0.757,0.493,0.251,0.833,10.852,5.847,0.366,-1.618,0.749,0.378,0.544,10.159,-5.481,-4.504,-1.069,none
3.014218,0.519,-0.241,-0.820,2450.99,-0.112,0.224,0.000,-0.628,-0.004,0.778,0.731,-0.132,-0.669,2463.48,0.000,-0.112,0.224,-0.708,0.218,0.672,0.281,-0.404,-0.871,2463.32,-0.224,0.112,-0.112,-0.344,0.391,0.854,-0.245,0.232,-0.941,2446.47,-0.112,0.112,0.000,-0.163,-0.628,-0.761,0.495,0.251,0.832,10.826,5.573,0.137,-1.328,0.750,0.375,0.544,10.157,-5.542,-4.794,-0.794,none
3.035043,0.519,-0.241,-0.820,2450.99,-0.224,-0.336,-0.112,-0.599,0.066,0.798,0.734,-0.128,-0.667,2469.64,-0.112,0.000,-0.448,-0.658,0.276,0.700,0.282,-0.405,-0.870,2454.61,0.000,0.112,-0.448,-0.307,0.427,0.851,-0.246,0.233,-0.941,2437.06,-0.224,0.112,0.000,-0.121,-0.649,-0.751,0.494,0.252,0.832,10.820,5.695,0.061,-1.344,0.750,0.376,0.544,10.159,-5.420,-4.885,-0.809,none
3.058100,0.519,-0.241,-0.820,2450.99,-0.112,-0.112,-0.448,-0.580,0.045,0.814,0.731,-0.132,-0.669,2463.48,-0.224,-0.112,-0.560,-0.674,0.188,0.714,0.281,-0.404,-0.871,2463.32,-0.448,-0.336,-0.336,-0.291,0.434,0.853,-0.249,0.237,-0.939,2441.89,0.000,0.000,0.000,-0.183,-0.635,-0.750,0.493,0.252,0.833,10.857,5.466,0.107,-1.344,0.751,0.376,0.543,10.167,-5.511,-4.748,-0.763,none
3.082228,0.519,-0.237,-0.821,2448.60,0.224,-0.224,0.000,-0.633,-0.009,0.774,0.732,-0.128,-0.669,2462.31,0.224,-0.224,0.000,-0.646,0.191,0.739,0.278,-0.401,-0.873,2456.50,-0.224,-0.336,-0.112,-0.327,0.415,0.849,-0.248,0.236,-0.940,2451.28,0.224,0.112,0.000,-0.135,-0.634,-0.761,0.492,0.250,0.834,10.846,5.603,0.260,-1.481,0.750,0.378,0.543,10.149,-5.420,-4.840,-0.947,none
3.102729,0.521,-0.242,-0.819,2442.80,-0.224,-0.224,0.000,-0.603,0.038,0.797,0.730,-0.128,-0.672,2469.01,-0.112,0.112,0.000,-0.654,0.253,0.713,0.282,-0.405,-0.870,2454.61,0.000,0.112,-0.112,-0.323,0.418,0.849,-0.241,0.236,-0.941,2445.45,0.112,0.224,-0.112,-0.139,-0.625,-0.768,0.493,0.251,0.833,10.871,5.435,0.122,-1.282,0.751,0.377,0.542,10.183,-5.527,-4.595,-0.733,none
3.126705,0.519,-0.237,-0.821,2448.60,0.112,-0.224,0.000,-0.560,0.063,0.826,0.731,-0.132,-0.669,2463.48,0.112,-0.224,0.112,-0.614,0.200,0.764,0.277,-0.404,-0.872,2460.53,-0.112,-0.112,-0.112,-0.325,0.447,0.834,-0.249,0.237,-0.939,2441.89,0.000,0.000,0.000,-0.152,-0.628,-0.763,0.494,0.252,0.832,10.838,5.328,0.137,-1.328,0.751,0.376,0.543,10.153,-5.618,-4.733,-0.687,none
3.151553,0.519,-0.241,-0.820,2450.99,-0.224,-0.224,0.000,-0.602,0.006,0.798,0.730,-0.128,-0.672,2469.01,-0.224,-0.112,-0.112,-0.690,0.264,0.674,0.278,-0.405,-0.871,2451.81,0.000,-0.112,0.000,-0.330,0.464,0.822,-0.246,0.237,-0.940,2439.41,0.000,0.112,-0.112,-0.134,-0.628,-0.767,0.495,0.250,0.832,10.845,5.481,0.107,-1.374,0.750,0.377,0.543,10.179,-5.542,-4.855,-0.794,none
3.173631,0.519,-0.241,-0.820,2450.99,-0.224,-0.336,0.112,-0.625,0.085,0.776,0.734,-0.128,-0.667,2469.64,-0.112,0.000,-0.112,-0.636,0.246,0.732,0.278,-0.405,-0.871,2451.81,-0.112,-0.224,0.000,-0.319,0.402,0.858,-0.250,0.233,-0.940,2439.54,-0.224,0.000,0.112,-0.163,-0.628,-0.761,0.494,0.253,0.832,10.860,5.511,0.107,-1.374,0.751,0.377,0.541,10.148,-5.542,-4.794,-0.794,none
3.195785,0.519,-0.241,-0.820,2450.99,0.000,-0.112,-0.112,-0.619,0.045,0.784,0.730,-0.132,-0.671,2470.18,0.224,-0.224,-0.112,-0.616,0.184,0.766,0.282,-0.402,-0.871,2450.58,-0.112,0.000,0.000,-0.326,0.487,0.810,-0.245,0.236,-0.940,2448.81,0.336,0.112,0.000,-0.160,-0.644,-0.748,0.494,0.252,0.832,10.847,5.435,0.168,-1.557,0.750,0.377,0.543,10.164,-5.649,-4.672,-0.931,none
3.219092,0.519,-0.241,-0.820,2450.99,-0.112,-0.224,0.112,-0.623,0.041,0.781,0.730,-0.132,-0.671,2470.18,0.000,-0.112,0.000,-0.687,0.238,0.687,0.281,-0.404,-0.871,2463.32,-0.112,-0.112,0.000,-0.353,0.395,0.848,-0.245,0.232,-0.941,2446.47,0.000,0.000,0.000,-0.158,-0.631,-0.760,0.493,0.252,0.833,10.837,5.481,0.229,-1.618,0.751,0.378,0.542,10.163,-5.695,-4.580,-1.023,none
3.241279,0.518,-0.245,-0.819,2454.24,0.000,0.112,0.112,-0.658,0.024,0.752,0.731,-0.132,-0.669,2463.48,0.000,0.000,0.112,-0.699,0.223,0.679,0.282,-0.405,-0.870,2454.61,0.336,0.112,0.112,-0.333,0.407,0.851,-0.246,0.233,-0.941,2437.06,-0.112,-0.112,0.224,-0.136,-0.651,-0.747,0.494,0.250,0.833,10.849,5.618,0.168,-1.588,0.751,0.376,0.544,10.150,-5.527,-4.840,-0.992,none
3.262941,0.519,-0.241,-0.820,2450.99,-0.112,-0.448,-0.112,-0.581,0.002,0.814,0.731,-0.132,-0.669,2463.48,-0.336,0.224,0.000,-0.634,0.201,0.747,0.282,-0.405,-0.870,2454.61,0.000,0.000,-0.112,-0.353,0.416,0.838,-0.246,0.233,-0.941,2437.06,0.000,-0.112,0.224,-0.134,-0.640,-0.756,0.494,0.252,0.832,10.836,5.557,0.183,-1.450,0.751,0.376,0.542,10.182,-5.527,-4.779,-0.855,none
3.284871,0.518,-0.236,-0.822,2457.64,0.000,-0.112,0.000,-0.554,0.067,0.830,0.730,-0.128,-0.672,2469.01,0.112,-0.112,0.112,-0.681,0.134,0.720,0.282,-0.402,-0.871,2450.58,0.224,0.000,0.000,-0.328,0.376,0.867,-0.245,0.232,-0.941,2446.47,0.000,-0.112,0.000,-0.143,-0.645,-0.751,0.494,0.252,0.832,10.823,5.573,0.046,-1.389,0.751,0.376,0.543,10.168,-5.450,-5.008,-0.779,none
3.305747,0.519,-0.241,-0.820,2450.99,0.000,-0.224,-0.112,-0.586,0.046,0.809,0.732,-0.128,-0.669,2462.31,-0.224,-0.112,-0.336,-0.697,0.224,0.681,0.282,-0.405,-0.870,2454.61,-0.112,-0.336,-0.112,-0.307,0.410,0.859,-0.245,0.236,-0.940,2448.81,-0.112,-0.112,0.112,-0.132,-0.644,-0.754,0.493,0.253,0.832,10.846,5.435,0.107,-1.344,0.754,0.376,0.538,10.152,-5.664,-4.824,-0.718,none
3.342455,0.519,-0.237,-0.821,2448.60,-0.112,-0.224,0.000,-0.635,0.013,0.773,0.734,-0.128,-0.667,2469.64,0.112,-0.224,-0.112,-0.654,0.247,0.715,0.281,-0.400,-0.872,2459.30,-0.224,-0.224,0.112,-0.344,0.406,0.846,-0.246,0.237,-0.940,2439.41,0.000,-0.224,0.000,-0.161,-0.628,-0.762,0.493,0.253,0.832,10.857,5.176,0.122,-1.298,0.751,0.376,0.543,10.179,-5.786,-4.809,-0.672,none
3.350365,0.519,-0.241,-0.820,2450.99,0.000,-0.112,0.112,-0.645,0.046,0.763,0.730,-0.128,-0.672,2469.01,0.224,-0.224,0.000,-0.661,0.207,0.721,0.277,-0.404,-0.872,2460.53,0.000,-0.224,0.224,-0.325,0.424,0.845,-0.248,0.236,-0.940,2451.28,-0.112,-0.336,0.000,-0.163,-0.624,-0.764,0.492,0.251,0.834,10.850,5.237,0.122,-1.405,0.751,0.376,0.543,10.163,-5.710,-4.763,-0.748,none
3.372730,0.519,-0.241,-0.820,2450.99,-0.112,-0.112,0.112,-0.634,0.073,0.770,0.732,-0.128,-0.669,2462.31,-0.112,-0.224,0.000,-0.662,0.307,0.684,0.281,-0.404,-0.871,2463.32,-0.224,-0.112,0.112,-0.318,0.422,0.849,-0.249,0.237,-0.939,2441.89,0.000,0.000,0.112,-0.161,-0.628,-0.761,0.493,0.250,0.833,10.882,5.450,-0.031,-1.359,0.751,0.377,0.542,10.137,-5.542,-4.901,-0.748,none
3.396246,0.519,-0.241,-0.820,2450.99,-0.224,-0.112,-0.224,-0.584,0.062,0.810,0.732,-0.128,-0.669,2462.31,-0.336,-0.112,0.000,-0.665,0.244,0.705,0.277,-0.404,-0.872,2460.53,0.112,0.224,0.000,-0.328,0.412,0.850,-0.248,0.236,-0.940,2451.28,0.000,0.112,0.224,-0.174,-0.636,-0.752,0.493,0.250,0.833,10.850,5.603,0.244,-1.573,0.751,0.379,0.541,10.150,-5.542,-4.763,-0.977,none
3.420668,0.519,-0.241,-0.820,2450.99,0.000,0.112,0.000,-0.567,0.048,0.822,0.732,-0.128,-0.669,2462.31,-0.112,0.000,0.112,-0.693,0.188,0.696,0.281,-0.404,-0.871,2463.32,-0.112,0.112,0.000,-0.314,0.472,0.824,-0.246,0.237,-0.940,2439.41,0.112,0.000,-0.112,-0.135,-0.628,-0.766,0.495,0.250,0.832,10.846,5.511,0.198,-1.527,0.750,0.377,0.544,10.153,-5.618,-4.626,-0.870,none
3.440542,0.519,-0.241,-0.820,2450.99,0.112,-0.224,0.000,-0.615,0.033,0.788,0.732,-0.128,-0.669,2462.31,0.000,0.112,0.224,-0.712,0.261,0.651,0.282,-0.402,-0.871,2450.58,0.112,-0.112,0.000,-0.333,0.390,0.858,-0.246,0.233,-0.941,2437.06,0.224,0.000,0.224,-0.142,-0.650,-0.747,0.494,0.249,0.833,10.837,5.527,0.305,-1.557,0.751,0.375,0.543,10.148,-5.603,-4.565,-0.977,none
3.462744,0.516,-0.242,-0.822,2446.33,-0.336,-0.112,0.112,-0.659,0.013,0.752,0.730,-0.132,-0.671,2470.18,0.000,0.112,0.000,-0.660,0.140,0.738,0.281,-0.404,-0.871,2463.32,0.448,0.224,0.000,-0.297,0.392,0.871,-0.246,0.233,-0.941,2437.06,0.000,-0.112,0.112,-0.158,-0.631,-0.760,0.494,0.250,0.833,10.824,5.542,0.061,-1.267,0.752,0.374,0.543,10.150,-5.496,-4.824,-0.687,none
3.484731,0.519,-0.241,-0.820,2450.99,-0.224,-0.112,0.000,-0.576,0.011,0.818,0.731,-0.132,-0.669,2463.48,-0.112,-0.224,-0.224,-0.646,0.190,0.739,0.281,-0.404,-0.871,2463.32,-0.224,-0.224,0.000,-0.310,0.377,0.873,-0.248,0.236,-0.940,2451.28,-0.112,0.000,0.336,-0.106,-0.650,-0.752,0.492,0.251,0.834,10.851,5.756,-0.061,-1.359,0.750,0.376,0.544,10.163,-5.298,-4.992,-0.794,none
3.507798,0.519,-0.237,-0.821,2448.60,-0.112,-0.224,-0.112,-0.619,0.061,0.783,0.730,-0.128,-0.672,2469.01,-0.336,-0.112,-0.224,-0.705,0.237,0.669,0.279,-0.402,-0.872,2447.78,-0.336,-0.112,-0.336,-0.339,0.373,0.864,-0.249,0.237,-0.939,2441.89,0.000,0.000,0.112,-0.148,-0.621,-0.770,0.495,0.252,0.832,10.840,5.527,0.076,-1.496,0.753,0.376,0.541,10.157,-5.588,-4.794,-0.885,none
3.530250,0.519,-0.237,-0.821,2448.60,0.000,-0.224,0.000,-0.645,0.046,0.763,0.734,-0.128,-0.667,2469.64,-0.112,0.000,-0.112,-0.701,0.258,0.665,0.277,-0.404,-0.872,2460.53,-0.112,-0.112,0.112,-0.330,0.442,0.834,-0.249,0.237,-0.939,2441.89,0.000,0.000,0.000,-0.146,-0.624,-0.767,0.493,0.252,0.833,10.851,5.634,0.061,-1.817,0.751,0.376,0.543,10.165,-5.496,-4.779,-1.115,none
3.552546,0.520,-0.246,-0.818,2446.06,-0.112,-0.112,0.224,-0.635,0.021,0.772,0.733,-0.132,-0.667,2470.80,-0.560,0.112,-0.112,-0.612,0.264,0.746,0.281,-0.404,-0.871,2463.32,-0.224,0.224,0.112,-0.332,0.468,0.819,-0.246,0.233,-0.941,2437.06,0.112,-0.112,0.000,-0.139,-0.631,-0.763,0.494,0.250,0.833,10.843,5.985,-0.031,-1.863,0.751,0.377,0.542,10.165,-5.374,-4.794,-1.237,none
3.575916,0.519,-0.237,-0.821,2448.60,-0.448,0.112,0.000,-0.637,0.054,0.769,0.734,-0.128,-0.667,2469.64,-0.224,0.112,0.112,-0.657,0.239,0.715,0.282,-0.402,-0.871,2450.58,-0.336,0.000,-0.112,-0.286,0.463,0.839,-0.246,0.233,-0.941,2437.06,-0.112,0.224,-0.112,-0.129,-0.625,-0.770,0.494,0.250,0.833,10.837,6.031,-0.168,-1.771,0.751,0.376,0.542,10.169,-5.267,-4.977,-1.084,none
3.599519,0.519,-0.237,-0.821,2448.60,-0.783,-0.224,-0.224,-0.584,0.057,0.810,0.732,-0.128,-0.669,2462.31,-0.336,0.000,-0.224,-0.685,0.286,0.669,0.280,-0.404,-0.871,2438.19,-0.224,0.000,-0.112,-0.317,0.460,0.829,-0.246,0.237,-0.940,2439.41,-0.224,0.112,-0.112,-0.155,-0.608,-0.779,0.495,0.252,0.832,10.859,5.603,0.122,-1.634,0.751,0.379,0.542,10.170,-5.573,-4.702,-0.916,none
3.621343,0.518,-0.236,-0.822,2457.64,0.224,0.000,0.112,-0.611,0.039,0.790,0.732,-0.128,-0.669,2462.31,0.112,-0.112,0.112,-0.693,0.310,0.651,0.281,-0.400,-0.872,2459.30,0.112,-0.112,0.112,-0.316,0.396,0.862,-0.245,0.236,-0.940,2448.81,0.224,0.000,0.000,-0.173,-0.624,-0.762,0.494,0.250,0.833,10.844,5.649,0.244,-1.695,0.751,0.376,0.542,10.154,-5.542,-4.550,-0.977,none
3.642423,0.519,-0.237,-0.821,2448.60,0.000,0.000,0.224,-0.596,0.035,0.802,0.732,-0.128,-0.669,2462.31,0.112,0.000,0.112,-0.678,0.277,0.681,0.281,-0.400,-0.872,2459.30,0.336,0.000,0.112,-0.345,0.375,0.861,-0.248,0.236,-0.940,2451.28,0.112,0.000,0.000,-0.115,-0.649,-0.752,0.492,0.250,0.834,10.870,5.756,0.290,-1.664,0.750,0.377,0.543,10.152,-5.450,-4.565,-1.038,none
3.665631,0.521,-0.242,-0.819,2442.80,0.336,0.224,0.000,-0.622,0.036,0.782,0.732,-0.128,-0.669,2462.31,-0.224,0.224,-0.112,-0.674,0.224,0.704,0.282,-0.405,-0.870,2454.61,0.224,0.000,-0.336,-0.378,0.376,0.846,-0.246,0.237,-0.940,2439.41,0.000,0.224,0.000,-0.155,-0.618,-0.771,0.494,0.251,0.832,10.832,5.664,0.214,-1.542,0.752,0.377,0.541,10.154,-5.496,-4.656,-0.916,none
3.689423,0.521,-0.242,-0.819,2442.80,0.224,0.112,0.112,-0.596,-0.029,0.803,0.731,-0.132,-0.669,2463.48,0.000,0.000,0.112,-0.682,0.253,0.686,0.282,-0.402,-0.871,2450.58,0.112,0.112,-0.112,-0.340,0.392,0.855,-0.246,0.233,-0.941,2437.06,0.224,0.000,0.000,-0.148,-0.625,-0.767,0.494,0.253,0.832,10.838,5.374,0.137,-1.420,0.752,0.376,0.541,10.153,-5.679,-4.611,-0.763,none
3.711847,0.519,-0.237,-0.821,2448.60,0.000,-0.224,0.000,-0.630,0.038,0.776,0.730,-0.128,-0.672,2469.01,0.112,-0.112,0.112,-0.629,0.310,0.713,0.282,-0.402,-0.871,2450.58,0.112,0.000,0.112,-0.319,0.386,0.866,-0.248,0.236,-0.940,2451.28,0.000,0.000,-0.112,-0.118,-0.644,-0.756,0.495,0.252,0.831,10.829,5.466,0.305,-1.664,0.752,0.376,0.542,10.155,-5.634,-4.534,-0.901,none
3.733056,0.519,-0.237,-0.821,2448.60,0.000,-0.112,0.112,-0.616,0.006,0.788,0.732,-0.128,-0.669,2462.31,-0.224,0.000,0.112,-0.653,0.250,0.715,0.281,-0.400,-0.872,2459.30,0.112,0.112,0.000,-0.332,0.426,0.842,-0.250,0.233,-0.940,2439.54,-0.112,0.000,0.000,-0.159,-0.621,-0.767,0.494,0.252,0.832,10.842,5.603,0.473,-1.710,0.751,0.376,0.542,10.159,-5.588,-4.550,-1.069,none
3.754986,0.518,-0.245,-0.819,2454.24,0.000,-0.112,0.112,-0.589,0.045,0.807,0.730,-0.128,-0.672,2469.01,0.112,0.224,0.224,-0.650,0.263,0.713,0.284,-0.403,-0.870,2465.86,0.112,0.112,0.000,-0.309,0.429,0.849,-0.246,0.233,-0.941,2437.06,0.336,0.000,-0.224,-0.090,-0.657,-0.749,0.494,0.253,0.832,10.860,5.634,0.137,-1.481,0.750,0.376,0.544,10.173,-5.466,-4.840,-0.870,none
3.778274,0.519,-0.241,-0.820,2450.99,-0.112,-0.224,-0.224,-0.579,0.030,0.815,0.734,-0.128,-0.667,2469.64,-0.336,0.000,-0.336,-0.696,0.244,0.676,0.281,-0.400,-0.872,2459.30,-0.224,0.000,-0.112,-0.321,0.437,0.840,-0.246,0.233,-0.941,2437.06,-0.448,0.000,0.112,-0.139,-0.625,-0.768,0.495,0.253,0.831,10.836,5.389,0.168,-1.405,0.751,0.377,0.542,10.130,-5.557,-4.779,-0.779,none
3.799871,0.519,-0.241,-0.820,2450.99,0.112,-0.336,0.112,-0.633,0.006,0.774,0.734,-0.128,-0.667,2469.64,-0.112,0.000,0.000,-0.696,0.244,0.676,0.282,-0.405,-0.870,2454.61,0.448,0.112,0.000,-0.351,0.493,0.796,-0.246,0.237,-0.940,2439.41,0.000,0.000,0.000,-0.190,-0.612,-0.768,0.494,0.253,0.832,10.845,5.221,0.244,-1.344,0.751,0.377,0.543,10.187,-5.817,-4.626,-0.687,none
3.821441,0.519,-0.241,-0.820,2450.99,0.112,0.000,0.336,-0.630,0.034,0.776,0.732,-0.128,-0.669,2462.31,0.000,-0.112,0.336,-0.695,0.227,0.682,0.281,-0.404,-0.871,2463.32,0.000,-0.112,0.112,-0.339,0.373,0.864,-0.245,0.236,-0.940,2448.81,0.224,0.000,-0.224,-0.143,-0.639,-0.756,0.495,0.253,0.832,10.841,5.374,0.000,-1.450,0.752,0.378,0.541,10.150,-5.634,-4.718,-0.763,none
3.843201,0.517,-0.240,-0.822,2460.02,0.112,0.224,-0.112,-0.621,0.052,0.782,0.730,-0.132,-0.671,2470.18,0.112,0.000,0.112,-0.669,0.221,0.710,0.281,-0.400,-0.872,2459.30,-0.112,0.000,0.000,-0.337,0.404,0.851,-0.246,0.237,-0.940,2439.41,-0.112,0.112,-0.112,-0.204,-0.604,-0.770,0.496,0.251,0.831,10.835,5.771,0.122,-1.557,0.751,0.378,0.541,10.147,-5.496,-4.687,-0.885,none
3.865276,0.517,-0.238,-0.822,2443.94,0.224,0.224,0.000,-0.614,0.017,0.789,0.732,-0.128,-0.669,2462.31,-0.224,0.336,-0.112,-0.648,0.283,0.707,0.281,-0.400,-0.872,2459.30,0.000,0.224,-0.112,-0.310,0.474,0.824,-0.246,0.233,-0.941,2437.06,-0.224,0.224,0.000,-0.171,-0.623,-0.763,0.495,0.253,0.831,10.839,6.275,0.198,-1.511,0.752,0.378,0.539,10.134,-5.267,-4.824,-1.221,none
3.887578,0.521,-0.242,-0.819,2442.80,0.000,0.112,-0.112,-0.599,0.075,0.798,0.732,-0.128,-0.669,2462.31,0.000,0.224,-0.224,-0.684,0.304,0.664,0.285,-0.400,-0.871,2461.85,-0.112,0.224,0.000,-0.344,0.368,0.864,-0.245,0.236,-0.940,2448.81,-0.112,-0.112,0.112,-0.150,-0.621,-0.769,0.494,0.251,0.832,10.855,6.137,0.366,-1.786,0.751,0.375,0.543,10.159,-5.328,-4.656,-1.527,none
3.909986,0.516,-0.242,-0.822,2446.33,-0.224,0.560,-0.112,-0.603,-0.012,0.798,0.730,-0.132,-0.671,2470.18,0.112,0.560,-0.224,-0.660,0.153,0.736,0.278,-0.405,-0.871,2451.81,0.671,0.560,-0.112,-0.322,0.422,0.848,-0.250,0.233,-0.940,2439.54,0.112,0.224,0.000,-0.124,-0.638,-0.760,0.494,0.249,0.833,10.849,5.771,0.443,-1.771,0.751,0.374,0.544,10.121,-5.511,-4.779,-1.267,none
3.930862,0.516,-0.242,-0.822,2446.33,0.000,0.224,0.112,-0.617,0.023,0.787,0.732,-0.128,-0.669,2462.31,-0.224,0.112,0.112,-0.680,0.208,0.703,0.282,-0.405,-0.870,2454.61,0.112,0.224,0.112,-0.333,0.407,0.851,-0.251,0.234,-0.939,2430.14,0.112,-0.112,0.000,-0.163,-0.634,-0.756,0.494,0.252,0.832,10.837,5.603,0.412,-1.664,0.751,0.377,0.542,10.173,-5.603,-4.702,-1.115,none
3.952583,0.519,-0.241,-0.820,2450.99,0.000,-0.112,0.000,-0.622,0.052,0.781,0.731,-0.131,-0.669,2477.49,0.000,0.000,0.112,-0.634,0.200,0.747,0.282,-0.405,-0.870,2454.61,0.112,-0.112,0.112,-0.303,0.430,0.851,-0.246,0.233,-0.941,2437.06,0.112,0.000,-0.112,-0.163,-0.633,-0.757,0.494,0.252,0.832,10.861,5.817,0.382,-1.817,0.749,0.378,0.544,10.162,-5.450,-4.733,-1.237,none
3.977204,0.516,-0.242,-0.822,2446.33,0.000,0.448,0.000,-0.636,-0.004,0.772,0.731,-0.132,-0.669,2463.48,-0.112,0.448,0.000,-0.671,0.200,0.713,0.282,-0.405,-0.870,2454.61,0.000,0.336,-0.112,-0.324,0.460,0.827,-0.241,0.232,-0.942,2443.10,-0.112,-0.336,0.000,-0.161,-0.639,-0.752,0.494,0.251,0.832,10.854,5.664,0.336,-1.679,0.752,0.378,0.540,10.129,-5.466,-4.733,-1.069,none
4.001052,0.520,-0.246,-0.818,2446.06,0.000,0.112,0.000,-0.616,0.015,0.787,0.730,-0.128,-0.672,2469.01,0.000,0.112,-0.112,-0.688,0.230,0.688,0.284,-0.403,-0.870,2465.86,-0.224,-0.224,0.000,-0.343,0.469,0.814,-0.246,0.233,-0.941,2437.06,0.000,0.224,0.000,-0.125,-0.639,-0.759,0.494,0.250,0.833,10.861,5.389,0.260,-1.435,0.750,0.380,0.542,10.180,-5.710,-4.611,-0.870,none
4.019149,0.519,-0.237,-0.821,2448.60,0.000,-0.112,0.112,-0.631,0.015,0.776,0.731,-0.132,-0.669,2463.48,0.000,-0.224,0.112,-0.654,0.247,0.715,0.282,-0.402,-0.871,2450.58,-0.112,-0.448,0.000,-0.327,0.449,0.832,-0.245,0.232,-0.941,2446.47,0.112,-0.224,0.224,-0.180,-0.612,-0.770,0.493,0.253,0.832,10.854,5.481,0.260,-1.542,0.750,0.377,0.544,10.172,-5.634,-4.702,-0.931,none
4.041406,0.519,-0.241,-0.820,2450.99,-0.448,0.000,0.000,-0.589,0.011,0.808,0.732,-0.128,-0.669,2462.31,0.000,-0.112,0.224,-0.659,0.227,0.717,0.282,-0.405,-0.870,2454.61,0.224,0.112,0.000,-0.328,0.438,0.837,-0.246,0.233,-0.941,2437.06,-0.112,-0.112,-0.112,-0.129,-0.653,-0.747,0.493,0.252,0.833,10.838,5.405,0.137,-1.389,0.752,0.376,0.541,10.159,-5.710,-4.794,-0.779,none
4.062351,0.519,-0.241,-0.820,2450.99,0.224,0.000,0.112,-0.603,-0.021,0.797,0.732,-0.128,-0.669,2462.31,0.112,-0.336,-0.112,-0.650,0.317,0.691,0.282,-0.405,-0.870,2454.61,0.000,-0.336,0.000,-0.321,0.393,0.862,-0.245,0.236,-0.940,2448.81,0.112,0.000,0.000,-0.100,-0.663,-0.742,0.493,0.252,0.833,10.858,5.221,-0.046,-1.115,0.750,0.377,0.543,10.158,-5.740,-4.885,-0.504,none
4.085416,0.519,-0.241,-0.820,2450.99,0.000,-0.336,-0.112,-0.623,0.009,0.782,0.732,-0.124,-0.669,2461.78,-0.112,-0.448,-0.224,-0.660,0.153,0.736,0.281,-0.404,-0.871,2463.32,-0.336,-0.448,0.112,-0.301,0.434,0.849,-0.247,0.235,-0.940,2460.68,0.112,-0.112,0.000,-0.163,-0.635,-0.755,0.494,0.252,0.832,10.857,5.527,0.153,-1.435,0.753,0.376,0.540,10.160,-5.573,-4.672,-0.870,none
4.105326,0.517,-0.240,-0.822,2460.02,0.000,0.000,0.000,-0.626,0.062,0.777,0.730,-0.128,-0.672,2469.01,0.112,0.112,0.000,-0.627,0.236,0.743,0.277,-0.404,-0.872,2460.53,0.224,-0.112,-0.112,-0.328,0.438,0.837,-0.246,0.237,-0.940,2439.41,0.224,-0.112,0.000,-0.121,-0.642,-0.757,0.494,0.250,0.833,10.857,5.618,0.244,-1.695,0.752,0.377,0.540,10.151,-5.542,-4.733,-1.038,none
4.128722,0.517,-0.240,-0.822,2460.02,-0.112,0.112,0.112,-0.615,0.025,0.788,0.730,-0.132,-0.671,2470.18,0.000,0.112,0.000,-0.668,0.284,0.688,0.282,-0.405,-0.870,2454.61,0.448,0.224,0.000,-0.310,0.415,0.856,-0.246,0.237,-0.940,2439.41,-0.112,0.000,0.000,-0.163,-0.619,-0.769,0.493,0.251,0.833,10.877,5.588,0.534,-1.786,0.752,0.379,0.540,10.153,-5.664,-4.534,-1.145,none
4.149970,0.519,-0.241,-0.820,2450.99,0.336,0.000,0.112,-0.638,0.042,0.769,0.731,-0.131,-0.669,2477.49,0.112,0.112,0.448,-0.644,0.378,0.665,0.281,-0.407,-0.869,2466.96,0.448,0.448,0.112,-0.347,0.415,0.841,-0.245,0.232,-0.941,2446.47,-0.112,0.000,-0.112,-0.173,-0.624,-0.762,0.494,0.252,0.832,10.841,5.573,0.305,-1.588,0.752,0.377,0.541,10.153,-5.573,-4.565,-0.992,none
4.172408,0.519,-0.241,-0.820,2450.99,0.000,0.000,0.112,-0.603,0.054,0.796,0.731,-0.132,-0.669,2463.48,0.224,-0.224,0.112,-0.687,0.270,0.675,0.284,-0.403,-0.870,2465.86,-0.224,-0.336,0.000,-0.347,0.457,0.819,-0.245,0.228,-0.942,2443.23,0.224,0.000,-0.112,-0.189,-0.621,-0.761,0.493,0.252,0.833,10.868,5.710,-0.015,-1.298,0.750,0.376,0.544,10.158,-5.298,-4.947,-0.748,none
4.194183,0.518,-0.245,-0.819,2454.24,-0.224,-0.112,-0.336,-0.638,0.053,0.769,0.732,-0.128,-0.669,2462.31,-0.336,-0.224,-0.560,-0.644,0.192,0.740,0.281,-0.404,-0.871,2463.32,-0.783,-0.448,-0.224,-0.298,0.478,0.826,-0.246,0.233,-0.941,2437.06,0.000,0.112,0.000,-0.156,-0.636,-0.756,0.493,0.252,0.833,10.838,5.405,-0.382,-0.977,0.750,0.379,0.542,10.169,-5.405,-5.191,-0.397,none
4.217811,0.517,-0.238,-0.822,2443.94,-0.560,-0.560,-0.224,-0.604,-0.012,0.797,0.732,-0.128,-0.669,2462.31,-0.224,-0.560,-0.336,-0.714,0.258,0.651,0.282,-0.402,-0.871,2450.58,-0.783,-0.448,0.000,-0.323,0.465,0.824,-0.247,0.238,-0.940,2430.02,-0.560,0.000,0.112,-0.148,-0.632,-0.761,0.495,0.252,0.832,10.840,5.344,-0.351,-1.237,0.751,0.376,0.543,10.162,-5.588,-5.099,-0.550,none
4.238336,0.519,-0.241,-0.820,2450.99,-0.224,-0.560,-0.112,-0.602,0.060,0.796,0.732,-0.128,-0.669,2462.31,-0.560,-0.448,-0.224,-0.659,0.223,0.718,0.281,-0.404,-0.871,2463.32,-0.783,-0.336,0.112,-0.332,0.444,0.832,-0.245,0.236,-0.940,2448.81,0.000,-0.224,0.000,-0.138,-0.652,-0.746,0.493,0.252,0.833,10.837,5.420,-0.214,-1.542,0.751,0.376,0.543,10.165,-5.740,-4.779,-0.641,none
4.261959,0.519,-0.241,-0.820,2450.99,0.112,-0.560,0.112,-0.625,0.017,0.781,0.731,-0.132,-0.669,2463.48,-0.336,-0.336,0.000,-0.713,0.181,0.677,0.281,-0.400,-0.872,2459.30,-0.448,-0.112,0.336,-0.302,0.358,0.884,-0.245,0.236,-0.940,2448.81,0.112,-0.112,0.224,-0.113,-0.653,-0.749,0.495,0.251,0.832,10.854,5.618,-0.107,-1.725,0.752,0.376,0.542,10.178,-5.542,-4.885,-1.008,none
4.285098,0.521,-0.238,-0.820,2440.40,-0.112,0.224,0.000,-0.623,0.026,0.782,0.732,-0.128,-0.669,2462.31,-0.560,0.000,0.000,-0.659,0.227,0.717,0.281,-0.400,-0.872,2459.30,-0.112,0.112,0.112,-0.318,0.378,0.870,-0.248,0.236,-0.940,2451.28,-0.112,0.000,0.000,-0.109,-0.639,-0.761,0.495,0.250,0.832,10.828,5.756,0.260,-1.939,0.752,0.377,0.540,10.143,-5.481,-4.641,-1.282,none
4.307608,0.519,-0.241,-0.820,2450.99,0.224,0.112,0.000,-0.593,0.006,0.805,0.732,-0.128,-0.669,2462.31,-0.112,0.224,0.000,-0.639,0.227,0.735,0.282,-0.402,-0.871,2450.58,0.336,0.224,0.112,-0.277,0.423,0.863,-0.250,0.233,-0.940,2439.54,0.000,-0.112,-0.112,-0.113,-0.625,-0.772,0.494,0.251,0.833,10.841,5.756,0.305,-1.740,0.751,0.376,0.543,10.166,-5.466,-4.580,-1.160,none
4.339637,0.519,-0.241,-0.820,2450.99,0.224,0.224,0.112,-0.598,0.025,0.801,0.732,-0.128,-0.669,2462.31,0.224,0.112,0.224,-0.652,0.202,0.731,0.281,-0.404,-0.871,2463.32,0.112,0.000,-0.112,-0.316,0.417,0.852,-0.246,0.229,-0.942,2433.81,0.336,0.112,0.000,-0.150,-0.622,-0.769,0.496,0.251,0.831,10.809,5.740,0.214,-1.588,0.751,0.376,0.542,10.153,-5.389,-4.733,-1.038,none
4.351195,0.519,-0.241,-0.820,2450.99,0.224,0.448,-0.112,-0.637,0.061,0.768,0.730,-0.128,-0.672,2469.01,0.000,0.000,0.000,-0.624,0.378,0.683,0.281,-0.400,-0.872,2459.30,0.000,0.000,0.000,-0.342,0.424,0.839,-0.249,0.237,-0.939,2441.89,-0.112,0.112,-0.112,-0.168,-0.625,-0.762,0.494,0.252,0.832,10.853,5.649,0.305,-1.664,0.751,0.375,0.542,10.151,-5.557,-4.611,-1.053,none
4.372297,0.521,-0.242,-0.819,2442.80,0.000,0.112,0.000,-0.624,0.072,0.778,0.730,-0.128,-0.672,2469.01,0.000,0.112,0.112,-0.683,0.257,0.683,0.281,-0.404,-0.871,2463.32,0.448,0.112,0.000,-0.358,0.414,0.837,-0.245,0.232,-0.941,2446.47,0.112,0.112,-0.112,-0.108,-0.645,-0.756,0.495,0.249,0.832,10.833,5.573,0.366,-1.634,0.752,0.375,0.543,10.145,-5.557,-4.687,-1.053,none
4.393782,0.521,-0.242,-0.819,2442.80,0.112,0.000,0.000,-0.579,0.061,0.813,0.728,-0.128,-0.674,2461.72,-0.112,0.224,0.112,-0.700,0.261,0.665,0.281,-0.400,-0.872,2459.30,-0.112,0.112,0.000,-0.318,0.404,0.858,-0.250,0.233,-0.940,2439.54,0.000,-0.112,0.000,-0.133,-0.638,-0.759,0.495,0.251,0.832,10.843,5.863,0.321,-1.649,0.749,0.376,0.545,10.171,-5.405,-4.794,-1.176,none
4.419001,0.519,-0.241,-0.820,2450.99,0.000,0.336,-0.112,-0.600,0.014,0.800,0.732,-0.128,-0.669,2462.31,-0.112,0.336,-0.224,-0.615,0.255,0.746,0.286,-0.401,-0.870,2453.14,0.000,-0.112,-0.224,-0.326,0.430,0.842,-0.245,0.236,-0.940,2448.81,0.000,0.000,0.112,-0.168,-0.610,-0.774,0.495,0.252,0.832,10.855,6.015,0.519,-1.832,0.751,0.378,0.541,10.160,-5.328,-4.702,-1.359,none
4.437390,0.519,-0.241,-0.820,2450.99,0.224,0.448,0.000,-0.614,0.051,0.788,0.732,-0.128,-0.669,2462.31,-0.112,0.336,0.000,-0.625,0.262,0.736,0.282,-0.405,-0.870,2454.61,0.336,0.112,-0.336,-0.315,0.435,0.844,-0.248,0.236,-0.940,2451.28,0.112,0.000,-0.112,-0.166,-0.636,-0.753,0.494,0.254,0.832,10.863,5.802,0.550,-1.908,0.749,0.379,0.543,10.151,-5.511,-4.672,-1.282,none
4.458493,0.521,-0.242,-0.819,2442.80,0.224,-0.112,0.112,-0.637,-0.006,0.771,0.734,-0.128,-0.667,2469.64,0.112,0.224,0.112,-0.652,0.309,0.693,0.282,-0.402,-0.871,2450.58,0.336,0.336,0.000,-0.299,0.379,0.876,-0.246,0.233,-0.941,2437.06,0.224,-0.112,-0.112,-0.116,-0.655,-0.746,0.494,0.253,0.832,10.866,5.344,0.412,-1.664,0.750,0.379,0.542,10.161,-5.740,-4.565,-0.977,none
4.483139,0.522,-0.237,-0.819,2453.81,0.112,0.112,0.448,-0.641,0.026,0.767,0.732,-0.128,-0.669,2462.31,0.336,-0.112,0.336,-0.679,0.271,0.682,0.281,-0.400,-0.872,2459.30,0.336,-0.112,0.336,-0.268,0.475,0.838,-0.245,0.236,-0.940,2448.81,0.112,-0.112,-0.112,-0.147,-0.636,-0.757,0.495,0.251,0.832,10.844,5.145,0.336,-1.573,0.749,0.377,0.544,10.170,-5.817,-4.550,-0.809,none
4.504212,0.522,-0.241,-0.818,2456.20,0.560,-0.224,0.560,-0.614,0.017,0.789,0.733,-0.132,-0.667,2470.80,0.448,0.000,0.224,-0.636,0.185,0.749,0.283,-0.402,-0.871,2474.56,0.112,0.000,0.224,-0.315,0.389,0.866,-0.246,0.233,-0.941,2437.06,0.000,-0.224,0.224,-0.171,-0.634,-0.754,0.494,0.254,0.832,10.835,5.282,-0.153,-1.191,0.751,0.376,0.542,10.157,-5.679,-4.824,-0.443,none
4.526302,0.519,-0.241,-0.820,2450.99,0.224,-0.448,-0.224,-0.610,0.047,0.791,0.732,-0.128,-0.670,2476.32,-0.112,-0.336,-0.336,-0.653,0.147,0.743,0.281,-0.404,-0.871,2463.32,-0.671,-0.671,0.000,-0.321,0.415,0.852,-0.246,0.233,-0.941,2437.06,0.000,0.000,0.000,-0.135,-0.634,-0.761,0.494,0.253,0.832,10.833,5.420,-0.321,-0.992,0.751,0.377,0.542,10.156,-5.466,-5.191,-0.427,none
4.549698,0.521,-0.238,-0.820,2440.40,-0.224,-0.336,-0.448,-0.615,0.033,0.788,0.730,-0.128,-0.672,2469.01,-0.560,-0.560,-0.560,-0.696,0.244,0.676,0.285,-0.400,-0.871,2461.85,-0.895,-0.336,-0.224,-0.337,0.442,0.831,-0.248,0.236,-0.940,2451.28,0.000,0.000,0.000,-0.176,-0.620,-0.764,0.495,0.251,0.832,10.857,5.481,-0.092,-1.252,0.752,0.377,0.540,10.170,-5.603,-4.733,-0.702,none
4.571875,0.519,-0.241,-0.820,2450.99,-0.448,-0.112,0.000,-0.610,0.055,0.791,0.730,-0.128,-0.672,2469.01,-0.112,-0.336,-0.112,-0.705,0.237,0.669,0.282,-0.397,-0.874,2454.44,-0.224,-0.112,-0.112,-0.313,0.429,0.847,-0.248,0.236,-0.940,2451.28,0.000,0.000,0.000,-0.148,-0.625,-0.767,0.493,0.249,0.834,10.871,5.664,0.458,-1.893,0.752,0.375,0.542,10.182,-5.634,-4.382,-1.221,none
4.593497,0.516,-0.242,-0.822,2446.33,0.224,0.224,0.336,-0.606,0.043,0.794,0.730,-0.129,-0.671,2455.00,0.000,0.448,0.336,-0.647,0.236,0.725,0.281,-0.400,-0.872,2459.30,0.336,0.112,0.112,-0.344,0.386,0.856,-0.250,0.233,-0.940,2439.54,0.000,0.000,0.000,-0.152,-0.628,-0.763,0.494,0.252,0.832,10.854,5.710,0.473,-1.985,0.751,0.377,0.542,10.150,-5.603,-4.489,-1.420,none
4.614660,0.524,-0.241,-0.817,2448.02,0.112,0.560,0.224,-0.593,0.006,0.805,0.731,-0.132,-0.669,2463.48,-0.224,0.112,0.112,-0.685,0.241,0.688,0.281,-0.404,-0.871,2463.32,0.224,0.336,0.000,-0.304,0.436,0.847,-0.246,0.237,-0.940,2439.41,0.000,0.000,0.000,-0.158,-0.631,-0.760,0.493,0.252,0.833,10.861,5.817,0.382,-1.710,0.751,0.377,0.542,10.152,-5.359,-4.794,-1.191,none
4.636703,0.519,-0.241,-0.820,2450.99,0.000,0.448,-0.112,-0.637,-0.012,0.771,0.734,-0.129,-0.667,2456.36,-0.224,0.224,-0.224,-0.696,0.244,0.676,0.285,-0.396,-0.873,2456.99,-0.112,0.000,-0.336,-0.330,0.419,0.846,-0.248,0.236,-0.940,2451.28,0.000,0.000,0.000,-0.145,-0.641,-0.754,0.494,0.252,0.832,10.835,5.573,0.229,-1.603,0.751,0.378,0.542,10.164,-5.527,-4.748,-0.931,none
4.660414,0.519,-0.237,-0.821,2448.60,0.000,0.112,0.000,-0.639,0.039,0.768,0.730,-0.128,-0.672,2469.01,0.000,0.112,0.000,-0.638,0.223,0.737,0.282,-0.402,-0.871,2450.58,0.224,0.000,-0.112,-0.299,0.453,0.840,-0.249,0.237,-0.939,2441.89,0.000,0.000,0.000,-0.133,-0.633,-0.763,0.495,0.251,0.832,10.845,5.573,0.550,-1.832,0.750,0.377,0.543,10.168,-5.649,-4.397,-1.206,none
4.683061,0.518,-0.245,-0.819,2454.24,0.336,0.000,0.336,-0.598,0.070,0.799,0.730,-0.132,-0.671,2470.18,0.112,0.112,0.224,-0.677,0.158,0.719,0.281,-0.404,-0.871,2463.32,0.560,0.112,0.112,-0.290,0.399,0.870,-0.247,0.235,-0.940,2460.68,0.000,0.000,0.000,-0.158,-0.632,-0.759,0.493,0.252,0.833,10.872,5.924,0.733,-2.198,0.749,0.377,0.545,10.177,-5.435,-4.412,-1.618,none
4.707000,0.521,-0.244,-0.818,2459.44,0.224,0.448,0.448,-0.613,0.036,0.789,0.731,-0.131,-0.669,2477.49,0.224,0.671,0.112,-0.651,0.210,0.729,0.284,-0.403,-0.870,2465.86,0.448,0.560,-0.224,-0.298,0.445,0.844,-0.249,0.232,-0.940,2448.94,0.000,0.000,0.000,-0.161,-0.628,-0.762,0.493,0.254,0.832,10.840,6.214,0.550,-2.092,0.749,0.379,0.544,10.158,-5.206,-4.565,-1.542,none
4.729840,0.522,-0.237,-0.819,2453.81,0.112,0.671,0.000,-0.614,0.033,0.789,0.732,-0.128,-0.669,2462.31,0.000,0.560,0.112,-0.673,0.208,0.710,0.282,-0.402,-0.871,2450.58,0.112,0.000,-0.336,-0.311,0.422,0.851,-0.246,0.237,-0.940,2439.41,0.000,0.000,0.000,-0.134,-0.639,-0.757,0.494,0.255,0.831,10.856,5.802,0.229,-1.603,0.750,0.379,0.543,10.166,-5.389,-4.763,-0.992,none
4.755068,0.524,-0.241,-0.817,2448.02,0.224,0.224,-0.112,-0.617,0.072,0.784,0.733,-0.132,-0.667,2470.80,0.112,0.000,-0.224,-0.681,0.260,0.684,0.284,-0.403,-0.870,2465.86,0.000,0.000,-0.112,-0.312,0.491,0.814,-0.246,0.237,-0.940,2439.41,0.000,0.000,0.000,-0.135,-0.667,-0.733,0.492,0.252,0.833,10.871,5.527,0.168,-1.466,0.751,0.378,0.541,10.145,-5.649,-4.656,-0.718,none
4.773069,0.522,-0.241,-0.818,2456.20,-0.224,-0.112,0.112,-0.646,0.054,0.761,0.733,-0.132,-0.667,2470.80,0.224,-0.336,0.112,-0.646,0.191,0.739,0.282,-0.405,-0.870,2454.61,0.000,-0.224,0.224,-0.329,0.479,0.814,-0.246,0.233,-0.941,2437.06,0.000,0.000,0.000,-0.152,-0.622,-0.768,0.494,0.253,0.832,10.859,5.282,0.137,-1.405,0.751,0.378,0.541,10.156,-5.740,-4.580,-0.687,none
4.795450,0.518,-0.242,-0.820,2438.12,-0.112,-0.224,0.336,-0.645,0.060,0.762,0.732,-0.128,-0.669,2462.31,0.224,-0.224,0.224,-0.651,0.266,0.711,0.282,-0.402,-0.871,2450.58,0.224,-0.112,0.112,-0.343,0.366,0.865,-0.249,0.237,-0.939,2441.89,0.000,0.000,0.000,-0.152,-0.628,-0.763,0.494,0.251,0.832,10.833,5.496,0.489,-1.863,0.751,0.376,0.542,10.164,-5.725,-4.458,-1.145,none
4.817211,0.519,-0.237,-0.821,2448.60,0.336,0.224,0.448,-0.593,0.070,0.802,0.732,-0.128,-0.669,2462.31,0.000,0.448,0.448,-0.668,0.270,0.693,0.282,-0.402,-0.871,2450.58,0.671,0.224,0.224,-0.357,0.429,0.829,-0.246,0.233,-0.941,2437.06,0.000,0.000,0.000,-0.163,-0.619,-0.769,0.492,0.252,0.833,10.834,5.389,0.366,-1.710,0.751,0.378,0.541,10.135,-5.710,-4.595,-1.008,none
4.839251,0.521,-0.242,-0.819,2442.80,0.336,0.224,0.224,-0.553,0.029,0.833,0.732,-0.128,-0.669,2462.31,0.112,0.112,0.224,-0.681,0.260,0.684,0.284,-0.403,-0.870,2465.86,0.000,-0.112,0.112,-0.346,0.393,0.852,-0.246,0.233,-0.941,2437.06,0.000,0.000,0.000,-0.155,-0.647,-0.747,0.493,0.254,0.832,10.825,5.252,0.305,-1.435,0.751,0.377,0.543,10.150,-5.817,-4.595,-0.733,none
4.861929,0.518,-0.245,-0.819,2454.24,0.000,-0.560,0.224,-0.595,0.038,0.803,0.731,-0.132,-0.669,2463.48,0.112,-0.224,0.112,-0.641,0.212,0.738,0.284,-0.406,-0.869,2469.50,0.000,-0.112,0.336,-0.314,0.391,0.865,-0.249,0.232,-0.940,2448.94,0.000,0.000,0.000,-0.114,-0.661,-0.742,0.494,0.251,0.832,10.845,5.206,-0.061,-1.023,0.750,0.377,0.543,10.155,-5.725,-4.885,-0.382,none
4.883683,0.520,-0.246,-0.818,2446.06,-0.112,-0.448,0.000,-0.658,0.024,0.752,0.731,-0.132,-0.669,2463.48,0.000,-0.336,-0.224,-0.677,0.158,0.719,0.283,-0.402,-0.871,2474.56,-0.448,-0.336,-0.112,-0.318,0.404,0.858,-0.244,0.231,-0.942,2455.89,0.000,0.000,0.000,-0.129,-0.653,-0.747,0.494,0.253,0.832,10.854,5.695,-0.382,-1.084,0.752,0.379,0.540,10.150,-5.252,-5.176,-0.580,none
4.905999,0.521,-0.242,-0.819,2442.80,-0.671,-0.112,-0.671,-0.652,0.075,0.755,0.734,-0.128,-0.667,2469.64,-0.671,-0.224,-0.783,-0.667,0.224,0.710,0.281,-0.404,-0.871,2463.32,-0.671,-0.336,-0.336,-0.295,0.385,0.875,-0.247,0.238,-0.940,2430.02,0.000,0.000,0.000,-0.100,-0.628,-0.772,0.492,0.253,0.833,10.846,5.420,-0.336,-1.176,0.751,0.376,0.543,10.156,-5.511,-5.069,-0.489,none
4.927339,0.517,-0.240,-0.822,2460.02,0.000,-0.224,-0.112,-0.606,0.083,0.791,0.734,-0.129,-0.667,2456.36,-0.224,-0.224,-0.560,-0.707,0.153,0.691,0.282,-0.402,-0.871,2450.58,-0.671,-0.112,0.112,-0.337,0.424,0.841,-0.246,0.237,-0.940,2439.41,0.000,0.000,0.000,-0.126,-0.628,-0.768,0.493,0.250,0.833,10.849,5.435,-0.198,-1.359,0.751,0.377,0.542,10.173,-5.649,-4.824,-0.611,none
4.949131,0.519,-0.241,-0.820,2450.99,-0.224,-0.336,0.000,-0.599,0.066,0.798,0.731,-0.132,-0.669,2463.48,-0.224,-0.671,0.000,-0.680,0.208,0.703,0.282,-0.402,-0.871,2450.58,-0.448,-0.336,0.000,-0.349,0.444,0.825,-0.248,0.236,-0.940,2451.28,0.000,0.000,0.000,-0.136,-0.640,-0.756,0.495,0.253,0.831,10.844,5.649,-0.168,-1.679,0.749,0.378,0.544,10.177,-5.496,-4.809,-1.038,none
4.970956,0.519,-0.241,-0.820,2450.99,0.224,0.000,0.000,-0.619,0.045,0.784,0.731,-0.132,-0.669,2463.48,-0.224,-0.112,0.000,-0.691,0.201,0.694,0.281,-0.404,-0.871,2463.32,-0.224,0.112,0.112,-0.320,0.430,0.844,-0.250,0.233,-0.940,2439.54,0.000,0.000,0.000,-0.199,-0.618,-0.761,0.493,0.253,0.832,10.845,6.015,-0.122,-1.847,0.750,0.376,0.543,10.178,-5.328,-4.870,-1.130,none
4.994133,0.519,-0.241,-0.820,2450.99,-0.224,0.112,-0.112,-0.615,0.025,0.788,0.732,-0.128,-0.669,2462.31,-0.560,0.000,-0.112,-0.650,0.263,0.713,0.281,-0.400,-0.872,2459.30,-0.112,0.112,-0.112,-0.330,0.382,0.864,-0.246,0.237,-0.940,2439.41,0.000,0.000,0.000,-0.161,-0.628,-0.762,0.495,0.253,0.831,10.835,5.740,0.031,-1.710,0.751,0.375,0.543,10.154,-5.542,-4.779,-0.916,none
5.016489,0.521,-0.238,-0.820,2440.40,0.000,-0.112,0.000,-0.619,0.061,0.783,0.732,-0.128,-0.669,2462.31,0.000,-0.112,-0.112,-0.666,0.331,0.669,0.282,-0.402,-0.871,2450.58,-0.112,-0.224,0.112,-0.346,0.393,0.852,-0.246,0.237,-0.940,2439.41,0.000,0.000,0.000,-0.161,-0.617,-0.770,0.495,0.251,0.832,10.833,5.557,0.321,-1.664,0.749,0.376,0.545,10.162,-5.618,-4.473,-0.916,none
5.039028,0.521,-0.242,-0.819,2442.80,0.224,0.112,0.112,-0.604,0.028,0.796,0.733,-0.132,-0.667,2470.80,0.224,0.112,0.000,-0.666,0.284,0.689,0.281,-0.404,-0.871,2463.32,0.448,0.000,0.112,-0.326,0.406,0.854,-0.245,0.232,-0.941,2446.47,0.000,0.000,0.000,-0.135,-0.634,-0.762,0.494,0.252,0.833,10.833,5.634,-0.015,-1.389,0.751,0.379,0.542,10.154,-5.359,-4.855,-0.779,none
5.061515,0.519,-0.241,-0.820,2450.99,-0.224,-0.224,-0.224,-0.593,0.062,0.803,0.733,-0.132,-0.667,2470.80,-0.224,0.112,-0.224,-0.687,0.148,0.711,0.282,-0.402,-0.871,2450.58,-0.112,-0.112,-0.224,-0.310,0.415,0.856,-0.246,0.233,-0.941,2437.06,0.000,0.000,0.000,-0.105,-0.654,-0.749,0.493,0.252,0.833,10.821,5.298,-0.076,-1.053,0.751,0.378,0.542,10.153,-5.573,-4.947,-0.427,none
5.082339,0.520,-0.240,-0.820,2465.21,-0.560,-0.448,-0.224,-0.626,-0.002,0.780,0.732,-0.128,-0.669,2462.31,-0.112,-0.336,-0.112,-0.680,0.208,0.703,0.281,-0.400,-0.872,2459.30,-0.336,-0.448,-0.112,-0.310,0.461,0.831,-0.242,0.233,-0.942,2433.68,0.000,0.000,0.000,-0.154,-0.640,-0.753,0.495,0.251,0.832,10.854,5.008,-0.107,-0.916,0.750,0.377,0.543,10.170,-5.802,-4.916,-0.305,none
5.106518,0.516,-0.242,-0.822,2446.33,-0.224,-0.895,0.000,-0.628,0.049,0.776,0.732,-0.128,-0.669,2462.31,0.112,-0.448,-0.112,-0.644,0.134,0.753,0.278,-0.401,-0.873,2456.50,-0.336,-0.112,0.112,-0.315,0.372,0.873,-0.248,0.236,-0.940,2451.28,0.000,0.000,0.000,-0.147,-0.641,-0.754,0.494,0.249,0.833,10.847,5.252,0.275,-1.435,0.752,0.377,0.541,10.156,-5.756,-4.733,-0.809,none
5.127737,0.518,-0.242,-0.820,2438.12,-0.112,-0.336,-0.112,-0.604,0.059,0.795,0.730,-0.128,-0.672,2469.01,0.000,0.000,0.112,-0.687,0.300,0.662,0.282,-0.402,-0.871,2450.58,-0.112,0.000,0.112,-0.314,0.439,0.842,-0.249,0.232,-0.940,2448.94,0.000,0.000,0.000,-0.163,-0.633,-0.757,0.495,0.248,0.833,10.843,5.573,0.458,-1.725,0.751,0.376,0.543,10.163,-5.557,-4.702,-1.145,none
5.150672,0.516,-0.242,-0.822,2446.33,0.224,0.112,0.112,-0.603,0.036,0.797,0.730,-0.128,-0.672,2469.01,0.448,0.112,0.112,-0.691,0.261,0.674,0.285,-0.400,-0.871,2461.85,0.224,0.112,0.000,-0.333,0.448,0.830,-0.245,0.232,-0.941,2446.47,0.000,0.000,0.000,-0.149,-0.636,-0.757,0.494,0.253,0.832,10.835,5.863,0.260,-1.710,0.751,0.377,0.543,10.191,-5.344,-5.038,-1.191,none
5.173712,0.521,-0.238,-0.820,2440.40,-0.336,0.448,-0.336,-0.626,0.062,0.777,0.732,-0.128,-0.669,2462.31,-0.224,0.224,-0.336,-0.618,0.233,0.751,0.281,-0.400,-0.872,2459.30,0.000,0.112,-0.224,-0.318,0.378,0.870,-0.243,0.238,-0.940,2426.63,0.000,0.000,0.000,-0.142,-0.661,-0.737,0.494,0.254,0.832,10.869,5.542,0.076,-1.359,0.752,0.377,0.541,10.165,-5.450,-4.885,-0.748,none
5.200127,0.521,-0.238,-0.820,2440.40,0.000,-0.336,-0.224,-0.641,0.023,0.767,0.732,-0.128,-0.669,2462.31,-0.112,-0.112,-0.224,-0.677,0.236,0.697,0.281,-0.404,-0.871,2463.32,-0.224,-0.336,0.112,-0.318,0.437,0.841,-0.246,0.237,-0.940,2439.41,0.000,0.000,0.000,-0.126,-0.628,-0.768,0.496,0.254,0.830,10.849,5.252,0.000,-1.191,0.751,0.378,0.541,10.161,-5.679,-4.733,-0.519,none
5.224696,0.519,-0.241,-0.820,2450.99,-0.112,-0.560,0.224,-0.616,0.015,0.787,0.728,-0.128,-0.674,2461.72,0.000,-0.336,0.112,-0.648,0.283,0.707,0.282,-0.405,-0.870,2454.61,-0.224,-0.336,0.112,-0.339,0.456,0.823,-0.246,0.233,-0.941,2437.06,0.000,0.000,0.000,-0.104,-0.661,-0.743,0.495,0.251,0.832,10.852,5.389,0.076,-1.450,0.752,0.379,0.539,10.154,-5.649,-4.718,-0.809,none
5.245773,0.519,-0.237,-0.821,2448.60,0.000,-0.112,0.112,-0.619,0.045,0.784,0.730,-0.128,-0.672,2469.01,-0.112,0.000,0.000,-0.623,0.302,0.722,0.281,-0.404,-0.871,2463.32,-0.112,-0.112,0.000,-0.306,0.409,0.860,-0.249,0.232,-0.940,2448.94,0.000,0.000,0.000,-0.160,-0.633,-0.758,0.495,0.250,0.832,10.853,5.756,0.229,-1.786,0.753,0.375,0.541,10.163,-5.450,-4.702,-1.115,none
5.268688,0.516,-0.242,-0.822,2446.33,-0.112,0.000,0.000,-0.639,0.050,0.768,0.732,-0.128,-0.669,2462.31,0.000,0.336,-0.112,-0.662,0.256,0.704,0.282,-0.402,-0.871,2450.58,0.000,0.224,-0.224,-0.351,0.426,0.834,-0.246,0.233,-0.941,2437.06,0.000,0.000,0.000,-0.153,-0.612,-0.776,0.495,0.251,0.832,10.831,5.863,0.412,-1.893,0.751,0.374,0.544,10.169,-5.374,-4.656,-1.267,none
5.291098,0.518,-0.245,-0.819,2454.24,0.224,0.224,0.112,-0.600,0.000,0.800,0.730,-0.132,-0.671,2470.18,0.112,0.224,0.224,-0.627,0.243,0.740,0.281,-0.404,-0.871,2463.32,0.224,0.336,-0.112,-0.316,0.453,0.834,-0.246,0.233,-0.941,2437.06,0.000,0.000,0.000,-0.158,-0.643,-0.750,0.495,0.252,0.832,10.815,5.908,0.275,-1.695,0.750,0.376,0.544,10.154,-5.344,-4.794,-1.115,none
5.313412,0.519,-0.241,-0.820,2450.99,0.000,0.336,0.000,-0.624,0.033,0.781,0.731,-0.132,-0.669,2463.48,0.112,0.112,-0.112,-0.674,0.186,0.715,0.282,-0.405,-0.870,2454.61,0.112,0.336,-0.336,-0.316,0.399,0.861,-0.245,0.236,-0.940,2448.81,0.000,0.000,0.000,-0.139,-0.625,-0.768,0.493,0.252,0.833,10.862,5.740,0.168,-1.557,0.752,0.376,0.542,10.181,-5.435,-4.794,-1.008,none
5.337077,0.522,-0.237,-0.819,2453.81,-0.224,0.224,-0.224,-0.598,0.025,0.801,0.732,-0.128,-0.669,2462.31,-0.336,-0.112,-0.336,-0.659,0.211,0.722,0.282,-0.402,-0.871,2450.58,0.000,-0.112,-0.112,-0.328,0.412,0.850,-0.246,0.237,-0.940,2439.41,0.000,0.000,0.000,-0.166,-0.609,-0.776,0.494,0.252,0.832,10.844,5.664,0.473,-1.802,0.752,0.379,0.540,10.182,-5.557,-4.656,-1.237,none
5.358444,0.521,-0.238,-0.820,2440.40,-0.224,0.000,0.000,-0.602,0.047,0.797,0.732,-0.124,-0.669,2461.78,0.112,0.448,0.000,-0.635,0.242,0.733,0.283,-0.398,-0.873,2445.71,0.336,0.112,-0.224,-0.284,0.421,0.861,-0.245,0.241,-0.939,2440.86,0.000,0.000,0.000,-0.156,-0.636,-0.756,0.494,0.253,0.832,10.818,5.710,0.870,-2.229,0.752,0.378,0.540,10.165,-5.710,-4.305,-1.679,none
5.381366,0.518,-0.245,-0.819,2454.24,0.224,0.671,0.671,-0.592,0.008,0.806,0.731,-0.132,-0.669,2463.48,0.224,0.560,0.560,-0.682,0.207,0.702,0.282,-0.402,-0.871,2450.58,0.895,0.448,0.224,-0.293,0.450,0.843,-0.245,0.236,-0.940,2448.81,0.000,0.000,0.000,-0.119,-0.611,-0.782,0.494,0.252,0.832,10.829,5.710,0.870,-2.168,0.751,0.378,0.542,10.177,-5.695,-4.412,-1.634,none
5.403438,0.519,-0.241,-0.820,2450.99,0.448,0.671,0.336,-0.602,0.060,0.796,0.732,-0.128,-0.670,2476.32,0.336,0.448,0.560,-0.662,0.256,0.704,0.283,-0.402,-0.871,2474.56,0.448,0.560,-0.112,-0.350,0.441,0.827,-0.245,0.232,-0.941,2446.47,0.000,0.000,0.000,-0.145,-0.645,-0.751,0.492,0.252,0.834,10.837,5.771,0.336,-1.725,0.749,0.379,0.543,10.163,-5.496,-4.687,-1.099,none
5.423190,0.524,-0.238,-0.818,2445.63,0.224,0.448,0.000,-0.610,0.048,0.791,0.732,-0.128,-0.669,2462.31,0.224,0.112,-0.112,-0.656,0.180,0.733,0.281,-0.404,-0.871,2463.32,0.000,-0.224,0.000,-0.324,0.397,0.859,-0.246,0.233,-0.941,2437.06,0.000,0.000,0.000,-0.148,-0.630,-0.763,0.493,0.252,0.833,10.849,5.603,0.061,-1.282,0.750,0.378,0.543,10.168,-5.420,-4.992,-0.733,none
5.444551,0.522,-0.241,-0.818,2456.20,-0.112,0.112,-0.336,-0.631,0.042,0.775,0.732,-0.128,-0.669,2462.31,0.000,-0.112,-0.336,-0.685,0.241,0.688,0.281,-0.400,-0.872,2459.30,-0.560,-0.448,-0.112,-0.321,0.437,0.840,-0.245,0.236,-0.940,2448.81,0.000,0.000,0.000,-0.171,-0.618,-0.767,0.496,0.254,0.831,10.856,5.344,0.000,-1.313,0.751,0.377,0.542,10.166,-5.664,-4.733,-0.580,none
5.466986,0.517,-0.238,-0.822,2443.94,-0.112,-0.112,0.000,-0.612,0.075,0.787,0.733,-0.132,-0.667,2470.80,0.000,-0.224,0.000,-0.680,0.215,0.701,0.282,-0.402,-0.871,2450.58,-0.336,-0.224,0.336,-0.304,0.393,0.868,-0.246,0.237,-0.940,2439.41,0.000,0.000,0.000,-0.175,-0.619,-0.765,0.493,0.251,0.833,10.844,5.252,0.214,-1.481,0.751,0.377,0.543,10.173,-5.817,-4.550,-0.779,none
5.491062,0.519,-0.241,-0.820,2450.99,0.448,-0.224,0.224,-0.571,0.037,0.820,0.734,-0.128,-0.667,2469.64,0.112,-0.112,0.336,-0.629,0.315,0.711,0.282,-0.402,-0.871,2450.58,0.000,-0.112,0.112,-0.342,0.424,0.839,-0.247,0.235,-0.940,2460.68,0.000,0.000,0.000,-0.158,-0.631,-0.760,0.493,0.250,0.833,10.843,5.695,0.504,-1.893,0.751,0.379,0.542,10.144,-5.542,-4.489,-1.282,none
5.511837,0.518,-0.245,-0.819,2454.24,-0.224,0.336,0.336,-0.602,0.030,0.798,0.732,-0.128,-0.670,2476.32,0.224,0.336,0.000,-0.685,0.241,0.688,0.281,-0.404,-0.871,2463.32,0.448,0.336,0.112,-0.332,0.410,0.849,-0.246,0.233,-0.941,2437.06,0.000,0.000,0.000,-0.152,-0.628,-0.763,0.493,0.252,0.833,10.845,5.771,0.290,-1.725,0.750,0.380,0.541,10.143,-5.466,-4.672,-1.160,none
5.533548,0.522,-0.237,-0.819,2453.81,0.224,0.112,0.000,-0.594,0.054,0.803,0.733,-0.132,-0.667,2470.80,0.000,0.224,0.000,-0.649,0.166,0.743,0.286,-0.401,-0.870,2453.14,0.112,0.000,0.000,-0.278,0.456,0.846,-0.246,0.237,-0.940,2439.41,0.000,0.000,0.000,-0.151,-0.643,-0.751,0.494,0.254,0.831,10.818,5.649,0.244,-1.588,0.752,0.377,0.540,10.148,-5.496,-4.611,-0.947,none
5.558373,0.521,-0.242,-0.819,2442.80,0.112,0.000,0.000,-0.638,0.045,0.769,0.735,-0.131,-0.665,2478.15,0.224,-0.112,0.000,-0.694,0.166,0.700,0.281,-0.404,-0.871,2463.32,0.448,0.000,0.000,-0.309,0.397,0.864,-0.245,0.232,-0.941,2446.47,0.000,0.000,0.000,-0.145,-0.641,-0.754,0.493,0.251,0.833,10.839,5.634,0.061,-1.328,0.749,0.377,0.544,10.163,-5.466,-4.702,-0.763,none
5.579893,0.519,-0.241,-0.820,2450.99,-0.112,0.224,0.000,-0.586,0.038,0.810,0.730,-0.132,-0.671,2470.18,-0.112,-0.112,-0.112,-0.669,0.221,0.710,0.281,-0.404,-0.871,2463.32,-0.224,-0.112,-0.112,-0.314,0.486,0.816,-0.247,0.230,-0.941,2424.39,0.000,0.000,0.000,-0.117,-0.650,-0.751,0.495,0.253,0.831,10.832,5.496,-0.260,-1.069,0.751,0.378,0.542,10.153,-5.374,-5.130,-0.458,none
5.600371,0.522,-0.241,-0.818,2456.20,-0.448,-0.224,-0.224,-0.653,0.068,0.755,0.730,-0.128,-0.672,2469.01,-0.336,-0.448,-0.336,-0.648,0.152,0.746,0.285,-0.400,-0.871,2461.85,-0.448,-0.336,-0.112,-0.333,0.433,0.838,-0.246,0.233,-0.941,2437.06,0.000,0.000,0.000,-0.121,-0.642,-0.757,0.494,0.254,0.832,10.845,5.206,-0.336,-0.962,0.751,0.378,0.541,10.166,-5.649,-4.962,-0.214,none
5.621680,0.519,-0.241,-0.820,2450.99,-0.336,-0.671,-0.224,-0.661,0.068,0.747,0.736,-0.128,-0.665,2476.98,0.000,-0.783,-0.224,-0.646,0.176,0.742,0.286,-0.401,-0.870,2453.14,-0.783,-0.224,0.224,-0.328,0.412,0.850,-0.246,0.237,-0.940,2439.41,0.000,0.000,0.000,-0.160,-0.627,-0.763,0.494,0.253,0.832,10.852,5.328,-0.382,-1.267,0.750,0.378,0.543,10.155,-5.710,-4.901,-0.458,none
5.643152,0.519,-0.241,-0.820,2450.99,-0.336,-0.560,-0.112,-0.626,0.004,0.779,0.730,-0.128,-0.672,2469.01,-0.224,-0.448,-0.112,-0.611,0.261,0.748,0.281,-0.400,-0.872,2459.30,-0.448,-0.336,0.224,-0.350,0.392,0.851,-0.249,0.237,-0.939,2441.89,0.000,0.000,0.000,-0.150,-0.627,-0.764,0.493,0.252,0.833,10.839,5.664,-0.351,-1.527,0.751,0.378,0.542,10.163,-5.481,-4.947,-0.824,none
5.665823,0.521,-0.242,-0.819,2442.80,0.000,-0.224,0.000,-0.608,0.006,0.794,0.730,-0.129,-0.671,2455.00,-0.336,-0.224,-0.224,-0.684,0.304,0.664,0.281,-0.400,-0.872,2459.30,-0.336,-0.112,0.112,-0.317,0.362,0.877,-0.249,0.232,-0.940,2448.94,0.000,0.000,0.000,-0.150,-0.626,-0.765,0.496,0.251,0.832,10.844,5.725,-0.122,-1.618,0.752,0.377,0.541,10.152,-5.450,-4.855,-0.916,none
5.690405,0.521,-0.242,-0.819,2442.80,-0.112,-0.224,0.000,-0.601,0.055,0.797,0.732,-0.128,-0.670,2476.32,-0.224,-0.112,-0.112,-0.710,0.296,0.639,0.286,-0.401,-0.870,2453.14,-0.336,-0.112,0.000,-0.331,0.400,0.855,-0.249,0.237,-0.939,2441.89,0.000,0.000,0.000,-0.173,-0.624,-0.762,0.495,0.251,0.831,10.839,5.511,-0.092,-1.481,0.752,0.377,0.540,10.134,-5.603,-4.763,-0.748,none
5.712716,0.519,-0.237,-0.821,2448.60,0.224,0.000,0.000,-0.592,0.066,0.804,0.730,-0.128,-0.672,2469.01,-0.112,-0.224,0.000,-0.627,0.282,0.726,0.281,-0.400,-0.872,2459.30,0.112,-0.112,0.224,-0.314,0.410,0.856,-0.249,0.237,-0.939,2441.89,0.000,0.000,0.000,-0.150,-0.632,-0.760,0.493,0.251,0.833,10.878,5.435,0.321,-1.573,0.751,0.376,0.543,10.159,-5.695,-4.565,-0.870,none
5.736408,0.519,-0.241,-0.820,2450.99,0.112,-0.336,0.336,-0.626,0.062,0.777,0.734,-0.128,-0.667,2469.64,0.112,-0.112,0.112,-0.630,0.266,0.730,0.281,-0.400,-0.872,2459.30,0.336,-0.112,0.000,-0.323,0.397,0.859,-0.245,0.232,-0.941,2446.47,0.000,0.000,0.000,-0.181,-0.634,-0.752,0.494,0.252,0.832,10.845,5.618,0.214,-1.557,0.751,0.376,0.543,10.168,-5.496,-4.733,-0.992,none
5.758570,0.519,-0.237,-0.821,2448.60,-0.336,-0.112,-0.112,-0.602,0.014,0.798,0.732,-0.128,-0.670,2476.32,0.000,0.224,-0.224,-0.685,0.247,0.685,0.281,-0.400,-0.872,2459.30,0.112,0.000,0.000,-0.301,0.434,0.849,-0.246,0.237,-0.940,2439.41,0.000,0.000,0.000,-0.145,-0.641,-0.754,0.493,0.253,0.833,10.848,5.450,0.214,-1.466,0.751,0.376,0.543,10.151,-5.603,-4.763,-0.885,none
5.780745,0.519,-0.241,-0.820,2450.99,0.336,0.224,0.000,-0.624,0.023,0.781,0.734,-0.128,-0.667,2469.64,0.000,0.000,-0.112,-0.650,0.217,0.728,0.284,-0.403,-0.870,2465.86,-0.224,0.112,-0.112,-0.367,0.457,0.810,-0.246,0.237,-0.940,2439.41,0.000,0.000,0.000,-0.147,-0.636,-0.757,0.494,0.252,0.832,10.852,5.313,0.382,-1.527,0.752,0.377,0.541,10.159,-5.710,-4.702,-0.901,none
5.803711,0.522,-0.241,-0.818,2456.20,0.224,-0.224,0.112,-0.625,0.073,0.777,0.732,-0.128,-0.669,2462.31,-0.112,0.000,0.224,-0.680,0.212,0.702,0.281,-0.400,-0.872,2459.30,0.112,0.000,0.112,-0.357,0.389,0.849,-0.246,0.237,-0.940,2439.41,0.000,0.000,0.000,-0.130,-0.641,-0.757,0.495,0.250,0.832,10.824,5.466,0.366,-1.573,0.753,0.373,0.543,10.146,-5.649,-4.565,-1.008,none
5.841065,0.521,-0.242,-0.819,2442.80,0.000,0.000,0.112,-0.623,0.025,0.781,0.732,-0.128,-0.669,2462.31,0.336,0.000,0.224,-0.663,0.108,0.741,0.281,-0.400,-0.872,2459.30,0.224,0.000,0.112,-0.284,0.447,0.848,-0.249,0.232,-0.940,2448.94,0.000,0.000,0.000,-0.120,-0.636,-0.762,0.495,0.251,0.832,10.836,5.695,0.366,-1.786,0.752,0.376,0.541,10.145,-5.557,-4.626,-1.237,none
5.850267,0.519,-0.241,-0.820,2450.99,-0.224,0.112,0.000,-0.629,0.037,0.777,0.732,-0.128,-0.669,2462.31,-0.112,0.112,0.000,-0.649,0.225,0.726,0.281,-0.400,-0.872,2459.30,0.224,0.112,0.000,-0.319,0.468,0.824,-0.246,0.233,-0.941,2437.06,0.000,0.000,0.000,-0.136,-0.651,-0.747,0.493,0.252,0.833,10.847,5.511,0.290,-1.649,0.752,0.376,0.542,10.184,-5.573,-4.763,-1.053,none
5.871499,0.519,-0.237,-0.821,2448.60,-0.224,0.112,-0.112,-0.619,0.061,0.783,0.732,-0.128,-0.669,2462.31,0.112,0.000,0.000,-0.659,0.227,0.717,0.285,-0.400,-0.871,2461.85,0.112,0.112,0.112,-0.358,0.429,0.829,-0.245,0.236,-0.940,2448.81,0.000,0.000,0.000,-0.171,-0.638,-0.751,0.495,0.252,0.832,10.847,5.344,0.198,-1.374,0.752,0.378,0.540,10.163,-5.679,-4.718,-0.733,none
5.892275,0.519,-0.241,-0.820,2450.99,-0.336,-0.448,0.112,-0.648,0.043,0.761,0.732,-0.128,-0.669,2462.31,0.000,-0.224,0.000,-0.679,0.152,0.718,0.281,-0.404,-0.871,2463.32,-0.224,-0.336,0.112,-0.339,0.433,0.835,-0.245,0.232,-0.941,2446.47,0.000,0.000,0.000,-0.107,-0.650,-0.752,0.495,0.250,0.832,10.834,5.405,0.061,-1.389,0.752,0.377,0.541,10.159,-5.557,-4.702,-0.687,none
5.915229,0.521,-0.242,-0.819,2442.80,0.000,-0.224,-0.112,-0.598,0.019,0.801,0.732,-0.128,-0.669,2462.31,-0.224,-0.224,-0.112,-0.689,0.218,0.692,0.281,-0.400,-0.872,2459.30,0.000,0.000,0.000,-0.317,0.460,0.829,-0.245,0.236,-0.940,2448.81,0.000,0.000,0.000,-0.163,-0.624,-0.764,0.495,0.252,0.831,10.820,5.710,0.092,-1.557,0.752,0.378,0.540,10.158,-5.435,-4.794,-0.916,none
5.936639,0.517,-0.238,-0.822,2443.94,-0.224,0.112,0.000,-0.576,0.008,0.817,0.732,-0.128,-0.669,2462.31,0.000,0.000,-0.336,-0.674,0.293,0.678,0.282,-0.402,-0.871,2450.58,-0.224,0.000,-0.112,-0.354,0.363,0.862,-0.249,0.241,-0.938,2443.34,0.000,0.000,0.000,-0.140,-0.654,-0.744,0.495,0.250,0.832,10.837,5.725,0.244,-1.756,0.750,0.379,0.541,10.163,-5.511,-4.687,-1.176,none
5.959946,0.517,-0.238,-0.822,2443.94,0.000,0.112,0.112,-0.619,-0.002,0.786,0.732,-0.128,-0.669,2462.31,-0.224,0.336,0.112,-0.659,0.227,0.717,0.281,-0.400,-0.872,2459.30,0.336,0.112,-0.224,-0.302,0.457,0.837,-0.246,0.237,-0.940,2439.41,0.000,0.000,0.000,-0.135,-0.634,-0.761,0.495,0.251,0.832,10.834,5.618,0.382,-1.725,0.751,0.376,0.543,10.166,-5.557,-4.672,-1.145,none
5.980343,0.519,-0.237,-0.821,2448.60,0.000,0.000,0.000,-0.631,0.025,0.775,0.732,-0.128,-0.670,2476.32,0.336,0.000,0.000,-0.626,0.192,0.756,0.281,-0.400,-0.872,2459.30,0.000,0.000,0.112,-0.326,0.406,0.854,-0.245,0.232,-0.941,2446.47,0.000,0.000,0.000,-0.133,-0.637,-0.760,0.495,0.248,0.833,10.845,5.710,0.412,-1.756,0.752,0.374,0.543,10.169,-5.588,-4.626,-1.176,none
6.000915,0.516,-0.242,-0.822,2446.33,0.000,0.112,0.000,-0.623,0.041,0.781,0.730,-0.128,-0.672,2469.01,-0.224,0.112,0.112,-0.677,0.228,0.700,0.281,-0.404,-0.871,2463.32,0.112,-0.112,0.000,-0.304,0.436,0.847,-0.248,0.236,-0.940,2451.28,0.000,0.000,0.000,-0.148,-0.630,-0.763,0.494,0.250,0.833,10.833,5.771,0.565,-1.893,0.754,0.376,0.539,10.148,-5.481,-4.595,-1.344,none
6.024564,0.519,-0.241,-0.820,2450.99,0.336,0.448,0.000,-0.629,0.046,0.776,0.732,-0.128,-0.669,2462.31,0.336,0.336,0.224,-0.621,0.151,0.769,0.281,-0.400,-0.872,2459.30,0.448,0.336,0.000,-0.330,0.419,0.846,-0.249,0.237,-0.939,2441.89,0.000,0.000,0.000,-0.130,-0.648,-0.751,0.496,0.253,0.831,10.811,5.939,0.901,-2.260,0.752,0.377,0.540,10.156,-5.527,-4.443,-1.771,none
6.045916,0.521,-0.242,-0.819,2442.80,0.224,0.448,0.112,-0.610,0.014,0.792,0.731,-0.132,-0.669,2463.48,0.560,0.671,0.336,-0.654,0.247,0.715,0.282,-0.402,-0.871,2450.58,0.671,0.671,0.000,-0.319,0.462,0.827,-0.246,0.233,-0.941,2437.06,0.000,0.000,0.000,-0.144,-0.617,-0.773,0.492,0.253,0.833,10.822,5.893,0.626,-2.122,0.750,0.378,0.543,10.158,-5.496,-4.595,-1.557,none
6.068306,0.521,-0.242,-0.819,2442.80,-0.224,0.112,0.000,-0.601,0.006,0.799,0.734,-0.128,-0.667,2469.64,0.224,0.671,0.112,-0.677,0.228,0.700,0.284,-0.403,-0.870,2465.86,0.448,0.560,-0.112,-0.349,0.400,0.848,-0.241,0.232,-0.942,2443.10,0.000,0.000,0.000,-0.148,-0.630,-0.763,0.493,0.253,0.832,10.833,5.603,0.198,-1.496,0.749,0.378,0.545,10.157,-5.542,-4.779,-0.855,none
6.089535,0.519,-0.241,-0.820,2450.99,-0.112,0.000,-0.112,-0.623,0.025,0.781,0.736,-0.128,-0.665,2463.71,0.000,0.000,0.000,-0.642,0.305,0.703,0.284,-0.403,-0.870,2465.86,-0.112,-0.336,0.000,-0.332,0.410,0.849,-0.242,0.229,-0.943,2432.31,0.000,0.000,0.000,-0.165,-0.625,-0.763,0.493,0.253,0.832,10.851,5.298,-0.275,-0.962,0.752,0.379,0.539,10.147,-5.588,-4.992,-0.290,none
6.110421,0.519,-0.241,-0.820,2450.99,0.000,-0.560,-0.336,-0.590,0.008,0.807,0.732,-0.124,-0.669,2461.78,0.000,0.000,0.000,-0.644,0.200,0.738,0.281,-0.400,-0.872,2459.30,-0.783,-0.895,-0.112,-0.304,0.422,0.854,-0.245,0.236,-0.940,2448.81,0.000,0.000,0.000,-0.153,-0.622,-0.768,0.495,0.251,0.832,10.853,5.160,-0.275,-0.901,0.751,0.378,0.541,10.166,-5.634,-4.962,-0.153,none
6.133935,0.519,-0.237,-0.821,2448.60,-0.112,-0.224,-0.224,-0.587,0.027,0.809,0.732,-0.129,-0.669,2449.03,0.000,0.000,0.000,-0.638,0.226,0.736,0.282,-0.402,-0.871,2450.58,-0.560,-0.783,0.112,-0.326,0.406,0.854,-0.246,0.237,-0.940,2439.41,0.000,0.000,0.000,-0.127,-0.657,-0.743,0.495,0.251,0.832,10.849,5.145,0.015,-1.267,0.753,0.376,0.539,10.146,-5.756,-4.580,-0.550,none
6.159181,0.516,-0.242,-0.822,2446.33,0.112,-0.560,0.000,-0.606,0.091,0.790,0.732,-0.128,-0.669,2462.31,0.000,0.000,0.000,-0.626,0.178,0.759,0.281,-0.400,-0.872,2459.30,0.112,0.112,0.224,-0.331,0.364,0.871,-0.245,0.236,-0.940,2448.81,0.000,0.000,0.000,-0.153,-0.645,-0.749,0.495,0.249,0.832,10.826,5.313,0.229,-1.588,0.752,0.377,0.542,10.159,-5.786,-4.489,-0.931,none
6.179561,0.519,-0.241,-0.820,2450.99,0.112,0.112,0.336,-0.563,0.075,0.823,0.730,-0.128,-0.672,2469.01,0.000,0.000,0.000,-0.644,0.249,0.724,0.282,-0.402,-0.871,2450.58,0.448,0.336,0.224,-0.324,0.492,0.808,-0.249,0.237,-0.939,2441.89,0.000,0.000,0.000,-0.158,-0.642,-0.751,0.494,0.252,0.832,10.832,5.588,0.550,-2.000,0.750,0.378,0.542,10.172,-5.664,-4.397,-1.328,none
6.202196,0.522,-0.241,-0.818,2456.20,0.000,0.448,0.224,-0.599,0.066,0.798,0.733,-0.132,-0.667,2470.80,0.000,0.000,0.000,-0.638,0.223,0.737,0.285,-0.405,-0.869,2457.17,0.448,0.336,0.112,-0.321,0.471,0.822,-0.246,0.233,-0.941,2437.06,0.000,0.000,0.000,-0.128,-0.652,-0.748,0.492,0.249,0.834,10.853,5.527,0.153,-1.527,0.749,0.377,0.544,10.176,-5.588,-4.718,-0.840,none
6.226892,0.519,-0.241,-0.820,2450.99,0.112,0.112,0.000,-0.679,0.066,0.731,0.734,-0.129,-0.667,2456.36,0.000,0.000,0.000,-0.607,0.239,0.758,0.285,-0.405,-0.869,2457.17,-0.112,-0.112,0.224,-0.353,0.395,0.848,-0.247,0.234,-0.940,2427.66,0.000,0.000,0.000,-0.132,-0.648,-0.751,0.495,0.252,0.832,10.818,5.374,-0.137,-1.038,0.750,0.376,0.543,10.163,-5.573,-4.931,-0.366,none
6.249715,0.519,-0.241,-0.820,2450.99,-0.336,-0.783,-0.224,-0.584,0.057,0.810,0.734,-0.128,-0.667,2469.64,0.000,0.000,0.000,-0.662,0.268,0.700,0.285,-0.400,-0.871,2461.85,-0.671,-0.560,-0.112,-0.351,0.452,0.820,-0.248,0.236,-0.940,2451.28,0.000,0.000,0.000,-0.139,-0.638,-0.758,0.494,0.250,0.833,10.853,5.542,-0.153,-1.176,0.752,0.375,0.541,10.167,-5.389,-4.931,-0.595,none
6.272270,0.519,-0.241,-0.820,2450.99,-0.336,-0.224,-0.448,-0.607,0.025,0.794,0.731,-0.132,-0.669,2463.48,0.000,0.000,0.000,-0.647,0.288,0.706,0.281,-0.400,-0.872,2459.30,-0.448,-0.224,-0.112,-0.341,0.419,0.842,-0.248,0.236,-0.940,2451.28,0.000,0.000,0.000,-0.117,-0.650,-0.751,0.495,0.251,0.832,10.862,5.695,-0.122,-1.298,0.753,0.376,0.540,10.171,-5.435,-5.084,-0.733,none
6.291648,0.521,-0.236,-0.821,2462.83,-0.448,-0.224,-0.448,-0.613,0.044,0.789,0.730,-0.128,-0.672,2469.01,0.000,0.000,0.000,-0.651,0.206,0.731,0.283,-0.398,-0.873,2445.71,-0.224,0.112,-0.336,-0.318,0.437,0.841,-0.245,0.241,-0.939,2440.86,0.000,0.000,0.000,-0.128,-0.630,-0.766,0.494,0.250,0.833,10.842,5.542,0.122,-1.527,0.754,0.377,0.538,10.159,-5.573,-4.855,-0.855,none
6.313395,0.519,-0.241,-0.820,2450.99,0.224,0.000,0.112,-0.667,-0.002,0.745,0.731,-0.131,-0.669,2477.49,0.000,0.000,0.000,-0.654,0.243,0.716,0.282,-0.402,-0.871,2450.58,-0.336,0.112,-0.112,-0.318,0.455,0.832,-0.247,0.234,-0.940,2427.66,0.000,0.000,0.000,-0.148,-0.630,-0.763,0.494,0.251,0.833,10.893,5.679,0.092,-1.817,0.752,0.376,0.541,10.166,-5.588,-4.855,-1.069,none
6.338616,0.519,-0.241,-0.820,2450.99,0.224,0.000,0.112,-0.614,0.033,0.789,0.734,-0.128,-0.667,2469.64,0.000,0.000,0.000,-0.654,0.298,0.695,0.280,-0.402,-0.872,2472.03,-0.112,0.000,0.112,-0.335,0.413,0.847,-0.248,0.236,-0.940,2451.28,0.000,0.000,0.000,-0.178,-0.611,-0.771,0.495,0.251,0.832,10.819,6.031,0.198,-2.153,0.750,0.377,0.544,10.176,-5.450,-4.641,-1.405,none
6.357791,0.519,-0.241,-0.820,2450.99,0.000,0.112,0.224,-0.631,0.015,0.776,0.734,-0.128,-0.667,2469.64,0.000,0.000,0.000,-0.658,0.276,0.700,0.283,-0.402,-0.871,2474.56,-0.112,0.224,0.112,-0.302,0.457,0.837,-0.245,0.232,-0.941,2446.47,0.000,0.000,0.000,-0.128,-0.646,-0.753,0.493,0.252,0.833,10.845,6.153,0.198,-2.122,0.750,0.378,0.542,10.145,-5.313,-4.748,-1.496,none
6.379834,0.519,-0.241,-0.820,2450.99,0.112,0.448,0.000,-0.603,0.038,0.797,0.734,-0.128,-0.667,2469.64,0.000,0.000,0.000,-0.669,0.221,0.710,0.281,-0.400,-0.872,2459.30,0.000,0.560,-0.112,-0.305,0.465,0.831,-0.246,0.237,-0.940,2439.41,0.000,0.000,0.000,-0.135,-0.634,-0.762,0.493,0.251,0.833,10.820,5.985,0.290,-1.969,0.750,0.379,0.542,10.159,-5.420,-4.626,-1.374,none
6.401210,0.519,-0.241,-0.820,2450.99,0.000,0.224,-0.112,-0.611,0.055,0.790,0.732,-0.128,-0.669,2462.31,0.000,0.000,0.000,-0.673,0.238,0.700,0.282,-0.402,-0.871,2450.58,0.336,0.336,0.000,-0.357,0.426,0.832,-0.246,0.237,-0.940,2439.41,0.000,0.000,0.000,-0.135,-0.635,-0.760,0.494,0.252,0.832,10.849,5.786,0.534,-1.893,0.750,0.377,0.543,10.159,-5.542,-4.427,-1.313,none
6.425031,0.521,-0.242,-0.819,2442.80,0.000,0.336,0.224,-0.639,0.034,0.768,0.732,-0.128,-0.669,2462.31,0.000,0.000,0.000,-0.615,0.119,0.779,0.282,-0.405,-0.870,2454.61,0.448,0.224,0.000,-0.345,0.375,0.861,-0.250,0.233,-0.940,2439.54,0.000,0.000,0.000,-0.139,-0.641,-0.755,0.493,0.252,0.833,10.840,5.756,0.382,-1.740,0.752,0.377,0.541,10.167,-5.481,-4.656,-1.130,none
6.445384,0.519,-0.241,-0.820,2450.99,0.336,0.224,0.000,-0.623,0.041,0.781,0.734,-0.128,-0.667,2469.64,0.000,0.000,0.000,-0.641,0.259,0.723,0.281,-0.400,-0.872,2459.30,0.000,0.000,-0.112,-0.328,0.412,0.850,-0.245,0.232,-0.941,2446.47,0.000,0.000,0.000,-0.133,-0.637,-0.760,0.494,0.256,0.831,10.846,5.740,0.275,-1.603,0.750,0.377,0.543,10.170,-5.481,-4.824,-1.008,none
6.467525,0.519,-0.241,-0.820,2450.99,-0.224,0.000,-0.224,-0.599,0.014,0.801,0.732,-0.128,-0.669,2462.31,0.000,0.000,0.000,-0.696,0.288,0.658,0.281,-0.404,-0.871,2463.32,0.000,-0.112,0.000,-0.324,0.460,0.827,-0.246,0.237,-0.940,2439.41,0.000,0.000,0.000,-0.191,-0.617,-0.763,0.495,0.252,0.832,10.830,5.542,0.198,-1.481,0.752,0.379,0.540,10.160,-5.511,-4.824,-0.947,none
6.489989,0.519,-0.241,-0.820,2450.99,-0.112,-0.224,0.000,-0.602,0.060,0.796,0.732,-0.128,-0.669,2462.31,0.000,0.000,0.000,-0.636,0.290,0.716,0.281,-0.400,-0.872,2459.30,0.000,-0.224,0.000,-0.311,0.403,0.861,-0.246,0.237,-0.940,2439.41,0.000,0.000,0.000,-0.158,-0.643,-0.749,0.494,0.252,0.832,10.855,5.359,0.198,-1.420,0.751,0.378,0.541,10.160,-5.695,-4.733,-0.855,none
6.512417,0.519,-0.237,-0.821,2448.60,-0.224,-0.224,-0.112,-0.609,-0.019,0.793,0.732,-0.124,-0.669,2461.78,0.000,0.000,0.000,-0.692,0.197,0.695,0.281,-0.400,-0.872,2459.30,0.112,-0.224,0.000,-0.335,0.415,0.846,-0.245,0.236,-0.940,2448.81,0.000,0.000,0.000,-0.128,-0.646,-0.753,0.493,0.254,0.832,10.859,5.481,0.550,-1.847,0.752,0.377,0.540,10.141,-5.679,-4.565,-1.221,none
6.535327,0.519,-0.241,-0.820,2450.99,0.112,0.000,0.224,-0.614,0.017,0.789,0.732,-0.128,-0.669,2462.31,0.000,0.000,0.000,-0.627,0.282,0.726,0.285,-0.405,-0.869,2457.17,0.448,0.112,0.112,-0.336,0.420,0.843,-0.246,0.237,-0.940,2439.41,0.000,0.000,0.000,-0.124,-0.620,-0.774,0.492,0.253,0.833,10.847,5.389,0.489,-1.740,0.750,0.377,0.543,10.151,-5.771,-4.534,-1.099,none
6.558251,0.521,-0.238,-0.820,2440.40,0.224,0.112,0.224,-0.613,0.044,0.789,0.734,-0.129,-0.667,2456.36,0.000,0.000,0.000,-0.656,0.239,0.716,0.285,-0.405,-0.869,2457.17,0.224,0.224,0.224,-0.303,0.430,0.851,-0.246,0.233,-0.941,2437.06,0.000,0.000,0.000,-0.138,-0.624,-0.769,0.493,0.253,0.833,10.841,5.282,0.336,-1.481,0.751,0.377,0.542,10.154,-5.771,-4.595,-0.687,none
6.581673,0.519,-0.241,-0.820,2450.99,0.448,-0.224,0.224,-0.656,0.040,0.754,0.733,-0.132,-0.667,2470.80,0.000,0.000,0.000,-0.634,0.201,0.747,0.284,-0.403,-0.870,2465.86,0.112,-0.112,0.112,-0.301,0.467,0.831,-0.247,0.235,-0.940,2460.68,0.000,0.000,0.000,-0.163,-0.624,-0.764,0.492,0.253,0.833,10.874,5.527,-0.015,-1.313,0.752,0.379,0.540,10.160,-5.496,-4.885,-0.641,none
6.603506,0.518,-0.245,-0.819,2454.24,-0.112,-0.448,-0.112,-0.620,0.053,0.783,0.734,-0.128,-0.667,2469.64,0.000,0.000,0.000,-0.634,0.245,0.733,0.281,-0.404,-0.871,2463.32,-0.336,-0.448,0.000,-0.367,0.441,0.819,-0.248,0.240,-0.939,2452.72,0.000,0.000,0.000,-0.145,-0.635,-0.759,0.493,0.251,0.833,10.829,5.786,-0.168,-1.374,0.752,0.377,0.542,10.166,-5.252,-4.916,-0.718,none
6.626689,0.519,-0.241,-0.820,2450.99,-0.112,0.112,-0.336,-0.609,0.061,0.791,0.731,-0.132,-0.669,2463.48,0.000,0.000,0.000,-0.647,0.181,0.741,0.282,-0.402,-0.871,2450.58,-0.112,-0.112,-0.112,-0.346,0.470,0.812,-0.247,0.238,-0.940,2430.02,0.000,0.000,0.000,-0.136,-0.623,-0.770,0.493,0.254,0.832,10.866,5.481,0.153,-1.588,0.753,0.377,0.540,10.151,-5.634,-4.580,-0.901,none
6.650752,0.519,-0.241,-0.820,2450.99,0.224,0.000,0.112,-0.565,0.040,0.824,0.730,-0.132,-0.671,2470.18,0.000,0.000,0.000,-0.630,0.266,0.730,0.282,-0.405,-0.870,2454.61,0.336,-0.112,0.224,-0.327,0.415,0.849,-0.245,0.236,-0.940,2448.81,0.000,0.000,0.000,-0.143,-0.651,-0.746,0.495,0.250,0.832,10.859,5.618,0.412,-1.756,0.751,0.377,0.542,10.135,-5.618,-4.550,-1.160,none
6.672300,0.519,-0.241,-0.820,2450.99,0.112,0.336,0.336,-0.628,0.053,0.777,0.732,-0.128,-0.670,2476.32,0.000,0.000,0.000,-0.651,0.201,0.732,0.281,-0.404,-0.871,2463.32,0.448,0.000,0.000,-0.345,0.449,0.824,-0.250,0.233,-0.940,2439.54,0.000,0.000,0.000,-0.137,-0.630,-0.764,0.495,0.250,0.832,10.822,5.802,0.260,-1.588,0.751,0.377,0.542,10.165,-5.359,-4.855,-1.145,none
6.694595,0.519,-0.241,-0.820,2450.99,-0.336,0.336,0.000,-0.614,0.025,0.789,0.731,-0.132,-0.669,2463.48,0.000,0.000,0.000,-0.610,0.212,0.764,0.285,-0.400,-0.871,2461.85,-0.224,0.000,-0.224,-0.325,0.444,0.835,-0.250,0.233,-0.940,2439.54,0.000,0.000,0.000,-0.112,-0.630,-0.768,0.494,0.253,0.832,10.845,5.740,0.061,-1.374,0.751,0.377,0.542,10.169,-5.389,-4.947,-0.901,none
6.717217,0.519,-0.237,-0.821,2448.60,-0.224,-0.112,-0.336,-0.637,0.054,0.769,0.732,-0.124,-0.669,2461.78,0.000,0.000,0.000,-0.648,0.283,0.707,0.281,-0.400,-0.872,2459.30,-0.224,-0.224,-0.112,-0.338,0.390,0.857,-0.249,0.241,-0.938,2443.34,0.000,0.000,0.000,-0.141,-0.633,-0.762,0.495,0.254,0.831,10.818,5.496,0.443,-1.725,0.751,0.378,0.540,10.167,-5.740,-4.580,-1.130,none
6.740669,0.519,-0.237,-0.821,2448.60,0.224,0.112,0.224,-0.571,0.027,0.821,0.732,-0.128,-0.669,2462.31,0.000,0.000,0.000,-0.702,0.193,0.686,0.278,-0.401,-0.873,2456.50,0.336,0.336,0.112,-0.327,0.415,0.849,-0.248,0.236,-0.940,2451.28,0.000,0.000,0.000,-0.152,-0.633,-0.759,0.495,0.251,0.832,10.850,5.527,0.550,-1.908,0.751,0.377,0.542,10.161,-5.664,-4.565,-1.252,none
6.763655,0.519,-0.241,-0.820,2450.99,0.560,0.112,0.336,-0.626,-0.002,0.780,0.732,-0.128,-0.669,2462.31,0.000,0.000,0.000,-0.641,0.212,0.738,0.285,-0.400,-0.871,2461.85,0.671,0.448,0.112,-0.293,0.403,0.867,-0.245,0.236,-0.940,2448.81,0.000,0.000,0.000,-0.152,-0.622,-0.768,0.494,0.251,0.833,10.841,5.695,0.443,-1.802,0.752,0.375,0.542,10.158,-5.496,-4.687,-1.267,none
6.786775,0.521,-0.242,-0.819,2442.80,0.112,0.560,-0.112,-0.625,0.074,0.777,0.732,-0.128,-0.669,2462.31,0.000,0.000,0.000,-0.708,0.218,0.672,0.281,-0.400,-0.872,2459.30,0.112,-0.112,-0.112,-0.347,0.381,0.857,-0.245,0.236,-0.940,2448.81,0.000,0.000,0.000,-0.186,-0.627,-0.757,0.494,0.252,0.832,10.838,6.076,0.809,-2.229,0.752,0.377,0.541,10.156,-5.389,-4.443,-1.817,none
6.808685,0.519,-0.241,-0.820,2450.99,0.336,0.671,0.112,-0.610,0.006,0.792,0.732,-0.128,-0.669,2462.31,0.000,0.000,0.000,-0.662,0.193,0.724,0.282,-0.405,-0.870,2454.61,0.895,0.671,-0.112,-0.320,0.449,0.834,-0.249,0.237,-0.939,2441.89,0.000,0.000,0.000,-0.149,-0.636,-0.757,0.492,0.252,0.833,10.838,6.305,1.267,-2.641,0.751,0.377,0.541,10.163,-5.420,-4.305,-2.244,none
6.832905,0.522,-0.241,-0.818,2456.20,0.671,1.007,0.224,-0.609,0.000,0.793,0.731,-0.132,-0.669,2463.48,0.000,0.000,0.000,-0.631,0.269,0.728,0.284,-0.403,-0.870,2465.86,0.671,0.783,-0.224,-0.334,0.437,0.835,-0.246,0.233,-0.941,2437.06,0.000,0.000,0.000,-0.147,-0.636,-0.757,0.493,0.252,0.833,10.845,6.336,1.328,-2.656,0.752,0.378,0.541,10.160,-5.389,-4.198,-2.275,none
6.851207,0.524,-0.241,-0.817,2448.02,0.671,0.671,0.224,-0.639,0.037,0.768,0.736,-0.128,-0.665,2463.71,0.783,0.783,0.560,-0.677,0.153,0.720,0.285,-0.400,-0.871,2461.85,0.560,0.448,-0.112,-0.347,0.475,0.809,-0.243,0.234,-0.941,2424.27,0.000,0.000,0.000,-0.133,-0.634,-0.762,0.491,0.254,0.834,10.851,6.275,1.282,-2.595,0.752,0.379,0.540,10.136,-5.466,-4.229,-2.107,none
6.873794,0.519,-0.241,-0.820,2450.99,0.895,0.783,0.224,-0.620,0.044,0.783,0.730,-0.128,-0.672,2469.01,0.560,0.560,0.448,-0.627,0.176,0.759,0.281,-0.400,-0.872,2459.30,0.448,0.224,0.112,-0.333,0.371,0.867,-0.247,0.234,-0.940,2427.66,0.000,0.000,0.000,-0.112,-0.663,-0.740,0.492,0.256,0.832,10.826,5.359,1.084,-2.198,0.750,0.380,0.542,10.151,-5.969,-4.473,-1.557,none
6.897257,0.526,-0.238,-0.817,2438.27,0.895,0.224,0.336,-0.641,0.023,0.767,0.736,-0.128,-0.665,2463.71,0.224,0.000,0.336,-0.709,0.213,0.672,0.286,-0.401,-0.870,2453.14,0.560,-0.112,0.560,-0.302,0.426,0.853,-0.243,0.238,-0.940,2426.63,0.000,0.000,0.000,-0.145,-0.635,-0.759,0.493,0.255,0.832,10.825,4.198,0.992,-1.679,0.751,0.382,0.539,10.153,-6.733,-4.168,-0.794,none
6.920163,0.524,-0.241,-0.817,2448.02,0.000,0.000,0.000,-0.596,0.035,0.802,0.734,-0.128,-0.667,2469.64,0.448,-0.448,1.231,-0.681,0.260,0.684,0.284,-0.403,-0.870,2465.86,0.671,-0.560,1.231,-0.341,0.419,0.842,-0.248,0.236,-0.940,2451.28,0.895,-0.560,0.000,-0.145,-0.635,-0.759,0.490,0.255,0.833,10.826,4.046,0.473,-1.252,0.749,0.378,0.544,10.149,-6.672,-4.489,-0.321,none
6.942817,0.520,-0.246,-0.818,2446.06,0.336,-0.783,0.783,-0.581,0.060,0.811,0.733,-0.132,-0.667,2470.80,0.112,-0.560,0.448,-0.667,0.224,0.710,0.285,-0.408,-0.868,2460.82,0.336,-0.336,1.007,-0.289,0.418,0.861,-0.248,0.227,-0.942,2455.11,0.112,-0.448,0.224,-0.116,-0.655,-0.746,0.489,0.251,0.835,10.829,4.519,-0.656,-0.351,0.749,0.379,0.544,10.156,-5.832,-5.511,0.321,none
6.965255,0.520,-0.246,-0.818,2446.06,-0.448,-1.231,-0.224,-0.658,0.024,0.753,0.733,-0.132,-0.667,2470.80,-0.783,-1.119,-0.895,-0.686,0.221,0.693,0.288,-0.410,-0.865,2467.78,-1.679,-1.007,0.000,-0.339,0.408,0.848,-0.242,0.226,-0.943,2429.32,0.000,-0.224,0.336,-0.140,-0.659,-0.739,0.491,0.254,0.834,10.844,4.000,-1.969,0.992,0.748,0.380,0.544,10.163,-5.786,-6.351,1.725,none
6.988636,0.521,-0.244,-0.818,2459.44,-1.343,-2.350,-0.895,-0.584,0.030,0.811,0.734,-0.129,-0.667,2456.36,-1.231,-2.238,-1.679,-0.671,0.263,0.694,0.282,-0.402,-0.871,2450.58,-2.798,-2.126,0.224,-0.345,0.375,0.861,-0.242,0.233,-0.942,2433.68,-0.224,0.000,0.560,-0.183,-0.597,-0.781,0.492,0.253,0.833,10.876,2.870,-2.595,1.588,0.751,0.377,0.541,10.163,-6.397,-6.687,2.687,none
7.008541,0.522,-0.241,-0.818,2456.20,-1.902,-3.021,-0.448,-0.600,0.000,0.800,0.734,-0.128,-0.667,2469.64,-1.567,-2.798,-1.343,-0.674,0.192,0.714,0.282,-0.397,-0.874,2454.44,-2.910,-2.350,1.007,-0.332,0.444,0.832,-0.246,0.237,-0.940,2439.41,-0.336,-0.448,0.671,-0.143,-0.639,-0.756,0.497,0.253,0.830,10.852,1.893,-2.656,1.237,0.751,0.376,0.543,10.176,-7.099,-6.534,2.626,none
7.031280,0.519,-0.241,-0.820,2450.99,-1.567,-2.798,0.000,-0.586,0.038,0.810,0.732,-0.128,-0.669,2462.31,-1.790,-2.574,-0.336,-0.603,0.251,0.757,0.278,-0.397,-0.875,2451.64,-2.350,-1.567,1.679,-0.310,0.415,0.856,-0.254,0.245,-0.936,2439.85,-0.448,-0.560,0.671,-0.152,-0.622,-0.768,0.500,0.244,0.831,10.842,1.466,-1.069,-0.168,0.754,0.370,0.543,10.193,-7.954,-5.710,1.145,none
7.052943,0.512,-0.234,-0.826,2445.74,-0.783,-2.238,1.343,-0.605,0.043,0.795,0.726,-0.129,-0.676,2454.45,-0.336,-1.679,1.343,-0.673,0.185,0.716,0.271,-0.395,-0.878,2442.19,0.671,0.112,2.350,-0.351,0.410,0.842,-0.256,0.244,-0.935,2450.56,-0.224,-1.119,0.336,-0.122,-0.637,-0.761,0.495,0.244,0.834,10.833,2.840,1.420,-2.122,0.754,0.371,0.542,10.166,-7.679,-4.763,-1.145,none
7.075253,0.513,-0.242,-0.823,2441.19,0.448,-0.671,1.790,-0.651,0.021,0.758,0.728,-0.132,-0.673,2462.90,0.000,0.000,1.679,-0.656,0.289,0.697,0.277,-0.404,-0.872,2460.53,1.231,0.560,2.014,-0.303,0.412,0.860,-0.250,0.233,-0.940,2439.54,0.560,-1.567,0.000,-0.175,-0.614,-0.770,0.493,0.245,0.835,10.817,3.191,1.985,-2.290,0.753,0.370,0.545,10.116,-7.634,-4.977,-1.466,none
7.097527,0.516,-0.245,-0.821,2449.59,0.448,-0.783,1.343,-0.628,0.045,0.777,0.728,-0.132,-0.673,2462.90,-0.224,-0.560,1.567,-0.640,0.270,0.720,0.281,-0.407,-0.869,2466.96,0.560,-1.007,1.679,-0.320,0.409,0.855,-0.251,0.222,-0.942,2422.59,0.448,-1.343,-0.224,-0.132,-0.644,-0.754,0.492,0.245,0.835,10.846,2.321,0.763,-0.809,0.751,0.374,0.545,10.132,-7.588,-6.260,0.015,none
7.120595,0.517,-0.240,-0.822,2460.02,-0.783,-2.238,0.224,-0.599,0.000,0.801,0.730,-0.127,-0.672,2483.76,-1.007,-1.679,0.448,-0.657,0.369,0.657,0.284,-0.406,-0.869,2469.50,-1.343,-1.902,1.231,-0.333,0.454,0.826,-0.242,0.226,-0.943,2429.32,-0.112,-1.343,0.112,-0.155,-0.652,-0.742,0.492,0.249,0.835,10.836,1.740,-1.282,1.008,0.750,0.377,0.544,10.161,-7.221,-7.618,1.786,none
7.139843,0.519,-0.247,-0.818,2469.26,-2.238,-2.798,-0.783,-0.599,0.017,0.801,0.731,-0.135,-0.669,2478.82,-1.231,-2.686,-1.119,-0.697,0.202,0.688,0.285,-0.400,-0.871,2461.85,-2.126,-2.574,1.119,-0.323,0.381,0.866,-0.242,0.233,-0.942,2433.68,-0.336,-1.455,0.783,-0.171,-0.638,-0.751,0.494,0.245,0.834,10.858,1.069,-2.198,2.397,0.754,0.373,0.541,10.187,-7.435,-7.176,3.374,none
