0.009196,BNO0_UnitAccX,BNO0_UnitAccY,BNO0_UnitAccZ,BNO0_RawAccMag,BNO0_GyrX,BNO0_GyrY,BNO0_GyrZ,BNO0_MagX,BNO0_MagY,BNO0_MagZ,BNO1_UnitAccX,BNO1_UnitAccY,BNO1_UnitAccZ,BNO1_RawAccMag,BNO1_GyrX,BNO1_GyrY,BNO1_GyrZ,BNO1_MagX,BNO1_MagY,BNO1_MagZ,BNO2_UnitAccX,BNO2_UnitAccY,BNO2_UnitAccZ,BNO2_RawAccMag,BNO2_GyrX,BNO2_GyrY,BNO2_GyrZ,BNO2_MagX,BNO2_MagY,BNO2_MagZ,BNO3_UnitAccX,BNO3_UnitAccY,BNO3_UnitAccZ,BNO3_RawAccMag,BNO3_GyrX,BNO3_GyrY,BNO3_GyrZ,BNO3_MagX,BNO3_MagY,BNO3_MagZ,MPU0_UnitAccX,MPU0_UnitAccY,MPU0_UnitAccZ,MPU0_RawAccMag,MPU0_GyrX,MPU0_GyrY,MPU0_GyrZ,MPU1_UnitAccX,MPU1_UnitAccY,MPU1_UnitAccZ,MPU1_RawAccMag,MPU1_GyrX,MPU1_GyrY,MPU1_GyrZ,none
0.021549,0.507,0.325,-0.798,2680.54,113.025,43.419,-50.693,-0.346,-0.513,0.785,0.692,-0.233,-0.684,3332.79,220.119,14.883,-160.585,-0.638,0.179,0.749,0.413,-0.320,-0.852,3228.76,38.943,-89.860,-208.592,0.269,0.403,0.874,-0.420,0.479,-0.771,2638.24,-29.767,98.589,-84.489,-0.076,0.295,0.952,0.619,0.122,0.776,11.293,69.023,61.481,138.321,0.803,0.471,0.364,12.421,44.504,98.870,48.412,none
0.063923,0.669,0.197,-0.717,2941.22,149.618,29.767,-58.751,-0.332,-0.453,0.827,0.735,-0.309,-0.604,3108.59,197.738,-8.169,-164.613,-0.640,0.332,0.693,0.280,-0.632,-0.722,2983.63,62.555,-113.025,-199.080,0.233,0.407,0.883,-0.378,0.433,-0.818,2668.32,-26.857,76.991,-104.632,0.014,0.229,0.973,0.194,0.130,0.972,13.681,67.817,49.328,148.931,0.695,0.560,0.450,10.732,51.069,108.229,60.855,none
0.071191,0.723,-0.038,-0.690,2587.75,151.968,27.865,-67.703,-0.298,-0.435,0.850,0.614,-0.670,-0.417,3161.45,179.161,0.671,-148.947,-0.608,0.404,0.684,0.304,-0.508,-0.806,2710.46,42.412,-96.687,-156.109,0.259,0.410,0.874,-0.392,0.407,-0.825,2597.28,-46.665,66.584,-105.527,0.068,0.179,0.981,0.065,0.096,0.993,14.253,12.779,48.718,116.779,0.430,0.620,0.656,10.906,46.779,107.405,52.641,none
0.489955,0.712,-0.264,-0.651,2488.53,137.868,29.096,-66.920,-0.257,-0.343,0.903,0.702,-0.550,-0.452,2264.07,144.023,3.245,-119.963,-0.580,0.500,0.643,0.206,-0.664,-0.718,2575.26,60.765,-95.679,-152.751,0.283,0.441,0.852,-0.423,0.407,-0.810,2524.94,-34.803,57.631,-88.741,0.100,0.149,0.984,0.167,0.044,0.985,10.034,-10.580,40.901,86.244,0.439,0.576,0.690,10.042,25.710,80.885,38.168,none
0.495449,0.670,-0.334,-0.664,2646.36,105.863,22.045,-55.393,-0.244,-0.341,0.908,0.583,-0.726,-0.365,2808.90,113.920,26.745,-115.487,-0.566,0.542,0.622,0.213,-0.578,-0.788,2399.59,36.705,-73.075,-130.146,0.262,0.474,0.841,-0.428,0.317,-0.846,2471.62,-6.267,47.560,-70.277,0.120,0.132,0.984,0.236,-0.019,0.972,8.674,3.924,21.725,67.267,0.514,0.541,0.665,8.847,22.992,54.901,33.725,none
0.495632,0.652,-0.274,-0.707,2610.92,71.620,10.519,-40.958,-0.222,-0.229,0.948,0.649,-0.577,-0.496,2719.21,67.703,27.081,-99.037,-0.536,0.593,0.601,0.176,-0.701,-0.691,2734.13,34.019,-67.255,-123.208,0.256,0.492,0.832,-0.442,0.313,-0.840,2433.95,-9.288,37.377,-54.610,0.140,0.109,0.984,0.244,-0.016,0.970,9.751,26.504,11.725,58.107,0.556,0.513,0.654,9.400,25.160,32.229,29.298,none
0.495814,0.655,-0.242,-0.715,2508.87,42.748,6.826,-35.810,-0.253,-0.233,0.939,0.619,-0.563,-0.548,2961.36,49.127,29.319,-86.727,-0.538,0.557,0.633,0.148,-0.703,-0.695,2519.09,18.241,-60.765,-105.527,0.261,0.516,0.816,-0.445,0.347,-0.826,2487.45,-29.319,31.893,-42.972,0.153,0.088,0.984,0.205,-0.014,0.979,11.372,29.221,9.740,44.473,0.524,0.508,0.684,10.025,25.069,22.779,21.969,none
0.495996,0.624,-0.172,-0.762,2460.29,28.648,8.617,-27.081,-0.227,-0.186,0.956,0.636,-0.494,-0.592,2837.64,28.648,19.024,-60.653,-0.555,0.570,0.606,0.180,-0.597,-0.781,2454.41,16.003,-34.131,-73.970,0.262,0.541,0.799,-0.464,0.372,-0.804,2530.09,-25.403,25.850,-33.124,0.176,0.062,0.982,0.238,-0.021,0.971,11.849,17.298,13.176,29.939,0.543,0.480,0.689,10.835,15.969,18.733,10.611,none
0.496153,0.603,-0.138,-0.786,2497.76,27.641,11.750,-19.136,-0.238,-0.160,0.958,0.615,-0.562,-0.553,2598.12,31.110,19.248,-48.903,-0.553,0.590,0.588,0.133,-0.637,-0.759,2592.52,25.962,-16.674,-59.982,0.255,0.559,0.789,-0.481,0.361,-0.799,2545.92,-10.072,25.850,-24.284,0.177,0.066,0.982,0.275,-0.045,0.960,10.532,13.038,12.473,20.336,0.579,0.460,0.673,9.709,9.725,14.260,3.908,none
0.496321,0.601,-0.205,-0.772,2489.79,21.822,11.974,-10.967,-0.214,-0.143,0.966,0.626,-0.527,-0.575,2737.06,10.855,23.612,-31.334,-0.564,0.566,0.600,0.120,-0.667,-0.735,2623.50,16.003,-2.574,-37.377,0.251,0.562,0.788,-0.468,0.321,-0.824,2471.12,-2.462,20.479,-9.848,0.192,0.042,0.981,0.242,-0.066,0.968,9.772,22.229,8.046,10.198,0.561,0.462,0.687,8.933,13.893,0.458,-1.695,none
0.496496,0.603,-0.202,-0.772,2237.95,4.588,14.100,-11.302,-0.247,-0.140,0.959,0.623,-0.549,-0.558,2627.18,-4.364,16.338,-21.150,-0.579,0.576,0.577,0.166,-0.592,-0.789,2607.41,0.895,8.841,-15.107,0.262,0.599,0.756,-0.475,0.330,-0.816,2432.57,-8.729,13.653,1.455,0.197,0.040,0.980,0.265,-0.048,0.963,11.049,27.618,6.656,-3.634,0.567,0.462,0.682,10.284,12.031,-9.802,-10.198,none
0.496665,0.596,-0.187,-0.781,2575.81,-8.169,16.898,-6.491,-0.244,-0.116,0.963,0.622,-0.557,-0.551,2570.85,-20.143,17.233,-6.938,-0.579,0.579,0.575,0.166,-0.570,-0.805,2311.75,-4.141,10.967,-3.693,0.239,0.593,0.769,-0.481,0.355,-0.801,2564.31,-6.043,10.407,6.602,0.203,0.027,0.979,0.269,-0.046,0.962,12.228,19.466,10.809,-9.725,0.584,0.454,0.674,10.901,4.046,-6.153,-18.107,none
0.496784,0.598,-0.130,-0.791,2568.23,-11.079,14.772,7.722,-0.248,-0.155,0.956,0.656,-0.447,-0.608,2586.39,-31.781,23.724,10.183,-0.604,0.550,0.577,0.177,-0.597,-0.782,2553.39,3.357,17.233,-0.448,0.243,0.591,0.769,-0.458,0.339,-0.822,2546.22,4.252,13.541,7.722,0.206,0.027,0.978,0.256,-0.024,0.966,10.682,8.122,10.198,-16.626,0.569,0.484,0.665,10.640,-6.595,-6.137,-20.763,none
0.496886,0.618,-0.133,-0.775,2659.12,-9.064,13.093,14.324,-0.258,-0.163,0.952,0.674,-0.450,-0.586,2834.78,-34.803,23.948,13.764,-0.607,0.541,0.582,0.204,-0.562,-0.802,3028.49,-2.238,14.548,7.610,0.197,0.568,0.799,-0.427,0.361,-0.829,2523.16,6.267,9.064,13.988,0.208,0.030,0.978,0.282,0.012,0.959,10.340,13.573,-1.634,-26.901,0.604,0.498,0.622,9.760,-10.321,-21.634,-20.061,none
0.496983,0.638,-0.135,-0.758,2472.03,-18.353,6.043,16.338,-0.246,-0.140,0.959,0.685,-0.416,-0.597,2732.51,-55.729,15.891,17.122,-0.643,0.537,0.546,0.199,-0.586,-0.786,2868.22,-28.872,0.448,36.705,0.224,0.583,0.781,-0.429,0.386,-0.817,2489.86,-3.021,-1.119,23.053,0.215,0.024,0.976,0.226,0.036,0.974,11.298,11.634,-1.344,-36.000,0.534,0.529,0.659,10.028,-13.969,-27.649,-25.634,none
0.497079,0.638,-0.173,-0.750,2377.75,-30.998,8.169,24.619,-0.268,-0.185,0.946,0.671,-0.481,-0.565,2367.92,-67.143,11.079,24.172,-0.631,0.515,0.581,0.149,-0.647,-0.748,2447.64,-42.524,6.826,62.555,0.218,0.539,0.814,-0.434,0.422,-0.796,2458.46,-3.917,-5.483,32.341,0.216,0.022,0.976,0.151,0.050,0.987,11.643,-3.924,6.672,-52.229,0.413,0.547,0.728,11.218,-42.427,-29.053,-43.771,none
0.497171,0.625,-0.340,-0.703,2678.80,-35.474,-0.671,53.715,-0.251,-0.228,0.941,0.638,-0.562,-0.527,2444.82,-77.663,20.814,48.903,-0.657,0.509,0.556,0.104,-0.659,-0.745,1999.38,-53.491,30.326,86.279,0.255,0.507,0.823,-0.443,0.410,-0.798,2389.69,10.072,-1.902,46.777,0.213,0.016,0.977,0.145,0.049,0.988,11.072,-21.099,12.565,-76.305,0.436,0.566,0.700,9.925,-74.809,-40.992,-63.053,none
0.497264,0.669,-0.277,-0.690,2444.90,-56.065,-11.974,81.691,-0.238,-0.240,0.941,0.692,-0.534,-0.486,2609.37,-96.015,24.395,73.858,-0.650,0.492,0.579,0.233,-0.497,-0.836,2318.54,-57.520,43.308,81.691,0.266,0.507,0.820,-0.396,0.388,-0.832,2445.95,27.753,1.007,65.689,0.203,0.024,0.979,0.178,0.060,0.982,11.820,-37.832,9.496,-94.809,0.585,0.528,0.616,10.614,-87.496,-54.565,-66.427,none
0.497354,0.672,-0.104,-0.733,2635.95,-68.598,-22.829,93.665,-0.249,-0.241,0.938,0.740,-0.318,-0.593,2835.66,-112.913,18.241,90.532,-0.663,0.460,0.591,0.295,-0.400,-0.867,3025.95,-60.317,20.143,77.551,0.238,0.491,0.838,-0.360,0.380,-0.852,2527.24,30.998,-2.014,74.194,0.196,0.028,0.980,0.173,0.069,0.982,14.147,-80.626,-1.252,-118.794,0.594,0.521,0.613,11.970,-112.000,-55.267,-59.908,none
0.527441,0.655,-0.041,-0.755,2886.12,-73.970,-44.091,104.744,-0.241,-0.341,0.909,0.731,-0.257,-0.632,3017.24,-113.025,11.302,95.232,-0.741,0.509,0.437,0.274,-0.384,-0.882,2945.41,-69.494,3.581,83.706,0.274,0.479,0.834,-0.345,0.402,-0.848,2582.14,20.703,-8.841,74.641,0.186,0.030,0.982,0.334,0.060,0.940,13.006,-115.450,-3.099,-122.702,0.630,0.512,0.584,11.702,-128.351,-48.366,-56.504,none
0.527646,0.653,0.030,-0.757,2565.10,-73.634,-48.791,106.311,-0.251,-0.391,0.885,0.729,-0.223,-0.647,2596.28,-106.870,-5.371,98.925,-0.717,0.456,0.527,0.212,-0.420,-0.883,2463.10,-64.570,6.938,88.965,0.283,0.432,0.857,-0.337,0.439,-0.833,2585.45,19.695,-5.260,77.998,0.183,0.031,0.983,0.362,0.022,0.932,10.446,-116.962,4.733,-113.817,0.622,0.513,0.592,10.080,-127.267,-38.397,-57.008,none
0.527792,0.641,-0.021,-0.767,2289.31,-58.639,-34.355,101.387,-0.266,-0.392,0.881,0.722,-0.248,-0.646,2253.06,-94.113,-8.393,97.806,-0.763,0.405,0.504,0.185,-0.482,-0.856,1919.96,-49.462,29.767,97.806,0.304,0.413,0.859,-0.374,0.437,-0.818,2487.51,33.124,-16.003,80.125,0.158,0.052,0.986,0.466,-0.026,0.884,8.599,-86.305,4.885,-106.550,0.653,0.465,0.598,9.195,-123.130,-45.252,-63.405,none
0.527915,0.601,0.000,-0.799,2443.20,-61.772,-26.745,100.715,-0.275,-0.424,0.863,0.721,-0.220,-0.658,2094.21,-95.344,8.169,91.315,-0.768,0.384,0.513,0.294,-0.295,-0.909,2176.45,-52.372,50.805,88.070,0.250,0.378,0.892,-0.363,0.442,-0.820,2373.22,44.203,-15.331,82.027,0.140,0.073,0.988,0.512,-0.016,0.859,9.883,-59.115,-7.542,-104.840,0.818,0.383,0.429,9.963,-112.336,-62.260,-56.229,none
0.530800,0.541,0.252,-0.802,2641.17,-66.584,-38.943,100.380,-0.275,-0.432,0.859,0.681,-0.070,-0.729,2402.12,-98.253,12.422,89.189,-0.787,0.352,0.507,0.302,-0.119,-0.946,3085.43,-58.751,13.205,63.898,0.288,0.370,0.883,-0.341,0.483,-0.807,2496.82,23.836,-13.876,71.955,0.124,0.090,0.988,0.520,0.018,0.854,12.435,-49.023,-9.893,-91.435,0.861,0.350,0.369,11.752,-95.878,-63.282,-36.855,none
0.530946,0.530,0.309,-0.790,2732.09,-65.801,-41.069,91.763,-0.298,-0.396,0.869,0.628,0.128,-0.768,2905.01,-92.882,7.722,62.443,-0.803,0.270,0.531,0.253,-0.035,-0.967,2917.47,-48.231,-4.476,49.910,0.284,0.366,0.886,-0.324,0.550,-0.770,2656.44,-7.722,-18.576,42.748,0.113,0.098,0.989,0.487,0.025,0.873,14.045,-58.046,4.015,-71.328,0.826,0.363,0.431,12.479,-81.832,-47.893,-18.229,none
0.543468,0.461,0.384,-0.800,2758.68,-54.274,-38.272,54.610,-0.329,-0.426,0.843,0.578,0.149,-0.802,2816.38,-60.093,-0.560,38.160,-0.788,0.249,0.563,0.178,-0.163,-0.970,2483.78,-23.612,-6.826,41.629,0.287,0.338,0.896,-0.355,0.593,-0.723,2678.25,-11.526,-17.122,30.886,0.096,0.122,0.988,0.558,-0.017,0.830,11.457,-55.649,0.992,-39.969,0.810,0.336,0.480,11.707,-73.450,-23.847,-10.931,none
0.566824,0.456,0.175,-0.873,2854.41,-8.169,-23.724,42.077,-0.267,-0.450,0.852,0.554,0.016,-0.832,2493.41,-26.857,-2.686,26.634,-0.802,0.179,0.569,0.122,-0.168,-0.978,2182.58,-11.750,-3.917,45.434,0.312,0.330,0.891,-0.413,0.601,-0.685,2397.47,-6.267,-9.624,20.367,0.068,0.138,0.988,0.505,-0.086,0.859,10.117,-31.863,-4.290,-26.015,0.854,0.263,0.448,9.817,-62.458,-13.252,-1.969,none
0.997034,0.420,0.161,-0.893,2307.19,-4.141,-34.803,45.546,-0.317,-0.452,0.834,0.552,-0.085,-0.830,2310.06,-13.429,-5.707,23.276,-0.855,0.191,0.481,0.164,-0.015,-0.986,2284.08,-7.498,9.624,27.753,0.306,0.317,0.898,-0.447,0.539,-0.714,2452.26,3.021,-6.043,13.205,0.056,0.144,0.988,0.508,-0.089,0.857,10.265,-21.374,10.443,-19.038,0.779,0.285,0.559,9.510,-55.496,-5.634,-1.802,none
0.997577,0.416,0.231,-0.880,1951.72,5.148,-24.731,31.110,-0.298,-0.411,0.862,0.563,-0.068,-0.824,2158.50,-6.155,-5.707,20.255,-0.817,0.197,0.541,0.200,-0.164,-0.966,2362.22,0.671,3.245,0.224,0.310,0.312,0.898,-0.400,0.492,-0.774,2351.32,28.536,0.560,11.414,0.051,0.152,0.987,0.444,-0.087,0.892,10.027,-11.802,4.382,-9.237,0.760,0.321,0.565,9.582,-60.092,-4.076,1.511,none
0.997771,0.497,0.020,-0.868,2499.04,6.602,-31.893,38.272,-0.335,-0.379,0.863,0.625,-0.181,-0.760,2447.26,-1.902,-2.798,10.743,-0.828,0.186,0.530,0.229,-0.202,-0.952,2490.09,-8.841,-3.021,-13.205,0.319,0.330,0.889,-0.345,0.432,-0.833,2467.27,-1.007,6.379,4.364,0.038,0.162,0.986,0.549,-0.066,0.833,11.079,-1.298,0.031,6.580,0.798,0.319,0.511,9.805,-47.435,-11.817,5.237,none
0.997928,0.509,0.156,-0.847,2385.40,1.343,-32.341,30.774,-0.296,-0.379,0.877,0.651,-0.160,-0.742,2756.05,-1.567,-10.295,10.295,-0.817,0.215,0.535,0.241,-0.227,-0.944,2572.59,-5.371,-4.700,-25.291,0.292,0.311,0.905,-0.306,0.494,-0.814,2559.23,-12.757,11.526,-1.902,0.047,0.150,0.988,0.536,-0.049,0.843,10.954,17.985,0.489,34.244,0.879,0.296,0.375,9.216,-11.573,-5.939,6.351,none
0.998048,0.466,0.322,-0.824,2096.66,-5.707,-11.974,6.267,-0.308,-0.382,0.871,0.648,-0.017,-0.762,2360.56,-4.252,-12.422,7.833,-0.839,0.185,0.511,0.257,-0.178,-0.950,2443.93,-1.790,-5.260,-24.060,0.285,0.338,0.897,-0.309,0.508,-0.804,2504.85,-3.917,11.862,-9.288,0.050,0.147,0.988,0.580,-0.020,0.814,10.403,37.573,-0.580,64.198,0.876,0.299,0.379,9.111,32.702,-1.450,9.282,none
0.998170,0.452,0.294,-0.842,2165.46,-7.610,12.869,-25.850,-0.276,-0.432,0.859,0.583,0.080,-0.809,2454.87,-1.343,-8.281,-7.945,-0.797,0.206,0.567,0.272,-0.038,-0.962,2424.15,-3.133,-2.574,-32.900,0.329,0.317,0.890,-0.331,0.560,-0.759,2395.53,-12.310,18.017,-16.562,0.057,0.135,0.989,0.639,0.035,0.768,9.621,68.977,3.878,92.718,0.809,0.339,0.479,10.262,47.649,1.405,11.939,none
0.998285,0.466,0.235,-0.853,2541.13,-4.700,23.053,-40.734,-0.266,-0.415,0.870,0.595,0.109,-0.796,2616.66,13.988,-13.653,-19.024,-0.797,0.259,0.546,0.288,0.029,-0.957,2219.92,-2.462,-6.043,-52.148,0.280,0.329,0.902,-0.285,0.616,-0.735,2435.27,-22.829,30.103,-24.619,0.070,0.116,0.991,0.189,0.024,0.982,13.403,61.740,11.389,84.702,0.765,0.381,0.519,12.271,31.649,8.702,18.962,none
0.998400,0.514,0.151,-0.844,2986.33,12.981,7.386,-31.893,-0.286,-0.413,0.865,0.598,0.117,-0.793,2604.61,46.553,-21.150,-17.010,-0.789,0.277,0.548,0.297,0.002,-0.955,2246.61,17.905,-2.798,-82.251,0.280,0.336,0.899,-0.281,0.635,-0.720,2609.21,-28.648,40.734,-37.377,0.102,0.078,0.992,0.291,0.025,0.956,13.733,10.916,21.695,56.336,0.744,0.401,0.534,12.278,13.145,38.672,25.618,none
0.998559,0.527,0.238,-0.816,2634.51,54.386,-8.952,-17.793,-0.244,-0.409,0.879,0.666,-0.060,-0.744,2444.15,82.251,-20.143,-26.634,-0.716,0.315,0.622,0.306,-0.199,-0.931,2829.92,30.774,-2.910,-96.351,0.301,0.341,0.891,-0.243,0.603,-0.759,2613.74,-14.436,58.079,-40.622,0.128,0.039,0.991,0.412,0.054,0.909,10.241,0.305,22.489,60.962,0.784,0.411,0.466,10.337,8.870,45.740,34.809,none
0.998724,0.581,0.126,-0.804,2475.06,63.786,-10.407,-27.305,-0.148,-0.413,0.898,0.702,-0.198,-0.684,2527.84,67.479,-19.360,-34.131,-0.673,0.399,0.623,0.292,-0.290,-0.911,2890.37,15.667,-16.450,-95.344,0.289,0.357,0.888,-0.206,0.542,-0.815,2567.12,-13.317,62.443,-40.286,0.171,-0.027,0.985,0.276,0.072,0.959,9.334,25.588,16.366,57.374,0.693,0.480,0.539,9.821,14.824,34.840,43.756,none
0.998836,0.613,-0.034,-0.789,2633.29,56.177,-15.667,-33.124,-0.131,-0.351,0.927,0.708,-0.250,-0.660,2710.21,48.231,-19.248,-38.160,-0.631,0.414,0.656,0.328,-0.268,-0.906,2725.45,-5.148,-22.493,-83.258,0.304,0.338,0.891,-0.129,0.563,-0.816,2575.10,-35.138,57.855,-36.929,0.190,-0.068,0.979,0.055,0.044,0.998,12.781,31.267,13.053,31.359,0.536,0.513,0.670,11.188,9.908,21.160,38.763,none
0.998948,0.634,-0.130,-0.762,2793.63,41.405,-27.641,-20.031,-0.131,-0.325,0.937,0.716,-0.297,-0.631,2803.66,39.727,-25.067,-24.843,-0.542,0.491,0.682,0.320,-0.250,-0.914,2335.83,-4.812,-18.129,-70.277,0.301,0.350,0.887,-0.093,0.555,-0.826,2735.69,-39.950,49.686,-31.557,0.208,-0.118,0.971,0.104,0.013,0.994,14.866,-10.198,12.595,4.733,0.464,0.488,0.739,12.835,-14.458,20.229,28.641,none
0.999048,0.626,-0.216,-0.749,2721.90,33.012,-31.222,-7.498,0.045,-0.291,0.956,0.710,-0.428,-0.560,2705.60,36.817,-24.172,-10.967,-0.567,0.526,0.634,0.307,-0.436,-0.846,2594.81,13.876,-0.336,-60.653,0.284,0.352,0.892,-0.097,0.510,-0.855,2825.81,-15.779,41.069,-20.479,0.220,-0.171,0.960,0.088,-0.016,0.996,13.644,-40.702,19.481,-0.611,0.474,0.490,0.732,11.570,-25.282,24.061,19.405,none
0.999143,0.642,-0.255,-0.723,2699.18,28.200,-24.507,2.126,0.095,-0.249,0.964,0.753,-0.427,-0.500,2576.20,28.760,-12.422,0.448,-0.483,0.512,0.711,0.368,-0.498,-0.785,2668.54,19.472,15.107,-36.705,0.258,0.355,0.899,-0.037,0.402,-0.915,2876.63,9.848,31.334,-10.743,0.217,-0.203,0.955,-0.134,-0.100,0.986,14.634,-48.275,37.053,-6.061,0.330,0.498,0.802,11.352,-13.374,37.053,7.206,none
0.999290,0.670,-0.371,-0.642,2352.06,32.676,-6.938,4.588,0.110,-0.161,0.981,0.739,-0.561,-0.373,2534.78,36.481,2.574,0.895,-0.478,0.488,0.730,0.342,-0.667,-0.661,2812.49,41.293,35.474,9.400,0.269,0.335,0.903,-0.003,0.360,-0.933,2960.01,26.634,15.779,-0.895,0.195,-0.212,0.958,-0.184,-0.131,0.974,16.334,-67.115,53.985,-38.885,0.158,0.459,0.874,14.736,-16.977,51.847,-20.901,none
0.999447,0.608,-0.543,-0.579,3285.67,55.617,41.517,12.981,0.154,-0.086,0.984,0.685,-0.689,-0.238,2977.96,34.691,35.474,1.343,-0.419,0.500,0.758,0.299,-0.763,-0.574,2796.95,67.255,69.605,65.913,0.240,0.326,0.914,-0.006,0.305,-0.952,3083.81,55.841,-11.862,15.219,0.166,-0.204,0.965,-0.167,-0.164,0.972,16.090,-88.153,51.557,-69.878,0.159,0.443,0.882,15.581,-46.397,52.687,-50.000,none
1.004171,0.567,-0.566,-0.598,4195.28,55.058,44.427,31.110,0.178,-0.036,0.983,0.658,-0.701,-0.275,3440.69,25.850,71.620,17.457,-0.392,0.486,0.781,0.297,-0.835,-0.463,2812.05,96.015,117.501,129.363,0.265,0.298,0.917,-0.036,0.237,-0.971,2933.49,83.817,-40.734,27.305,0.124,-0.171,0.977,-0.091,-0.192,0.977,13.077,-94.595,49.664,-76.702,0.135,0.451,0.882,13.388,-59.374,47.618,-65.847,none
1.004299,0.581,-0.597,-0.553,3420.71,39.615,23.724,92.546,0.160,-0.018,0.987,0.729,-0.549,-0.408,3212.22,14.324,86.391,50.134,-0.386,0.502,0.774,0.325,-0.844,-0.428,3295.56,111.122,163.159,170.880,0.286,0.289,0.914,-0.058,0.185,-0.981,2853.14,112.353,-65.465,43.419,0.061,-0.092,0.994,-0.220,-0.199,0.955,12.130,-83.985,46.885,-76.015,0.084,0.491,0.867,10.161,-50.443,26.672,-82.122,none
1.004398,0.650,-0.588,-0.481,2468.46,12.422,42.748,90.644,0.146,0.012,0.989,0.811,-0.085,-0.578,2669.56,59.982,69.829,27.865,-0.361,0.495,0.790,0.392,-0.788,-0.475,3836.22,93.106,177.371,216.762,0.247,0.240,0.939,-0.055,0.106,-0.993,2474.78,132.720,-97.246,66.360,0.007,-0.008,1.000,-0.209,-0.173,0.963,11.328,-83.817,67.924,-103.924,0.026,0.513,0.858,10.110,-29.206,13.450,-107.649,none
1.004491,0.645,-0.675,-0.360,2018.59,-25.291,74.529,70.165,0.128,0.156,0.979,0.535,-0.842,0.067,3004.02,78.222,94.672,-0.224,-0.298,0.499,0.814,0.468,-0.707,-0.530,2935.54,33.124,148.275,268.462,0.270,0.146,0.952,-0.098,0.106,-0.989,2384.04,129.699,-100.156,74.194,-0.046,0.076,0.996,-0.158,-0.158,0.975,9.396,-83.374,41.298,-122.580,0.118,0.522,0.845,9.175,-33.191,-4.947,-125.908,none
1.011893,0.617,-0.615,-0.491,2440.05,4.364,112.465,84.489,0.118,0.162,0.980,0.396,-0.909,0.133,3863.96,12.869,118.173,26.969,-0.264,0.463,0.846,0.474,-0.700,-0.535,2177.25,42.188,154.990,262.643,0.255,0.101,0.962,-0.245,0.129,-0.961,1955.53,125.111,-103.625,95.344,-0.091,0.158,0.983,0.017,-0.236,0.972,5.491,-75.252,34.473,-132.672,0.221,0.489,0.844,6.326,-57.405,-26.244,-134.824,none
1.031485,0.551,-0.625,-0.553,2431.53,-28.648,89.637,112.242,0.094,0.443,0.892,0.753,-0.519,-0.405,2383.47,-131.154,118.061,95.903,-0.195,0.463,0.865,0.441,-0.717,-0.540,2317.80,3.581,154.094,246.640,0.220,-0.164,0.962,-0.419,0.100,-0.903,1753.64,128.020,-98.029,128.020,-0.118,0.220,0.968,0.256,-0.274,0.927,5.206,-55.145,44.550,-152.931,0.479,0.413,0.775,6.191,-78.763,-53.954,-139.313,none
1.054307,0.551,-0.422,-0.720,2182.96,-82.586,45.881,140.218,0.118,0.751,0.649,0.682,-0.375,-0.628,2301.62,-100.491,82.363,99.037,-0.084,0.473,0.877,0.487,-0.457,-0.744,1854.92,-31.893,149.842,234.443,0.105,-0.268,0.958,-0.576,0.188,-0.795,1767.89,105.303,-84.825,139.323,-0.162,0.277,0.947,0.724,-0.294,0.624,5.536,-8.626,28.885,-152.550,0.824,0.198,0.531,6.223,-81.878,-75.084,-138.519,none
1.077387,0.380,0.025,-0.925,1591.03,-102.730,30.215,143.687,0.374,0.925,-0.069,0.551,-0.253,-0.795,1708.50,-118.396,56.401,111.346,-0.082,0.639,0.765,0.442,-0.175,-0.880,1757.03,-45.322,147.044,199.864,-0.079,-0.203,0.976,-0.682,0.306,-0.664,2013.66,65.017,-58.639,142.792,-0.176,0.281,0.943,0.553,-0.268,0.789,7.053,31.023,35.969,-162.519,0.836,0.143,0.530,7.598,-76.275,-90.504,-135.679,none
1.504932,0.336,-0.015,-0.942,2031.49,-113.473,18.912,141.561,0.575,0.371,-0.729,0.434,-0.045,-0.900,1758.60,-112.689,57.743,94.672,-0.065,0.933,0.354,0.316,-0.132,-0.940,2115.71,-51.924,139.547,120.858,-0.580,0.251,0.775,-0.676,0.376,-0.634,2421.33,42.636,-30.215,143.016,-0.199,0.265,0.943,0.632,-0.157,0.759,10.320,53.939,42.504,-170.351,0.881,0.162,0.445,8.894,-67.618,-99.435,-139.893,none
1.506278,0.277,0.349,-0.895,1796.05,-118.620,32.341,128.244,0.592,-0.405,-0.697,0.468,-0.085,-0.880,1966.98,-102.170,67.143,73.746,0.062,0.943,-0.328,0.312,-0.233,-0.921,2711.73,-48.120,130.146,73.746,-0.597,0.597,0.536,-0.648,0.409,-0.642,2511.11,32.676,-1.790,143.799,-0.220,0.249,0.943,0.609,-0.114,0.785,12.305,58.733,44.519,-160.809,0.898,0.186,0.398,11.280,-50.534,-97.863,-138.611,none
1.506463,0.361,0.272,-0.892,2518.21,-116.830,47.224,115.487,0.562,-0.571,-0.598,0.531,-0.037,-0.847,2658.48,-102.170,64.458,64.122,0.292,0.606,-0.740,0.337,-0.276,-0.900,3114.09,-52.036,118.620,55.841,-0.696,0.696,0.180,-0.552,0.472,-0.687,2677.14,29.655,16.786,137.532,-0.235,0.226,0.945,0.638,-0.095,0.764,13.814,57.679,45.038,-137.817,0.904,0.198,0.380,13.375,-41.985,-75.435,-124.321,none
1.506633,0.375,0.299,-0.878,3183.41,-78.894,44.874,100.827,0.451,-0.846,-0.285,0.560,-0.084,-0.824,2921.21,-80.684,61.324,56.624,0.578,0.199,-0.791,0.335,-0.242,-0.911,2818.24,-53.267,68.263,35.810,-0.647,0.652,-0.396,-0.519,0.469,-0.715,2737.73,27.305,29.543,117.053,-0.258,0.213,0.942,0.592,-0.092,0.801,14.562,47.511,51.252,-94.031,0.869,0.225,0.440,13.110,-32.076,-35.710,-100.382,none
1.506825,0.399,0.235,-0.886,3087.82,-39.727,37.153,87.734,0.310,-0.949,0.058,0.582,-0.117,-0.805,3099.39,-45.993,42.524,57.408,0.748,-0.196,-0.634,0.302,-0.428,-0.852,2668.39,-36.481,57.184,30.550,0.319,0.867,-0.383,-0.441,0.445,-0.779,2662.02,29.207,37.712,86.056,-0.275,0.198,0.941,0.498,-0.108,0.860,12.426,29.313,42.916,-62.412,0.812,0.266,0.520,12.284,-27.053,-27.237,-75.160,none
1.506945,0.464,0.102,-0.880,3166.50,-36.257,16.674,63.339,0.160,-0.872,0.463,0.653,-0.231,-0.722,3483.92,-43.419,11.079,43.308,0.717,-0.697,-0.030,0.337,-0.418,-0.844,3321.89,-58.862,60.093,18.800,0.806,0.474,0.355,-0.390,0.315,-0.865,2611.83,17.457,26.298,72.963,-0.305,0.186,0.934,0.598,-0.213,0.773,7.057,72.473,-15.374,-46.641,0.827,0.261,0.498,8.063,3.053,-74.000,-35.237,none
1.507048,0.497,-0.089,-0.863,2103.17,-59.310,-5.483,20.031,0.139,-0.747,0.651,0.633,-0.123,-0.765,2633.77,-74.082,-25.067,7.386,0.665,-0.709,0.235,0.341,-0.395,-0.853,3538.25,-81.244,60.765,12.981,0.775,0.364,0.516,-0.374,0.288,-0.881,2852.46,-25.067,2.462,69.941,-0.332,0.198,0.922,0.656,-0.080,0.751,10.118,152.229,-37.527,-36.885,0.758,0.356,0.546,10.392,37.359,-96.992,-40.534,none
1.507142,0.494,0.067,-0.867,2058.95,-90.084,31.222,-4.141,0.165,-0.646,0.745,0.630,-0.311,-0.711,2239.28,-57.743,-25.403,-12.757,0.522,-0.750,0.406,0.305,-0.458,-0.835,2321.84,-88.853,41.181,18.464,0.655,0.077,0.752,-0.370,0.468,-0.802,2804.27,-61.212,-3.917,63.563,-0.345,0.181,0.921,0.579,0.060,0.813,12.841,197.099,-38.611,12.061,0.861,0.320,0.395,10.819,55.786,-86.122,-40.824,none
1.507236,0.470,0.197,-0.861,2540.91,-94.001,47.896,-25.626,0.178,-0.544,0.820,0.609,-0.069,-0.790,2575.11,-75.872,0.112,-21.822,0.305,-0.745,0.593,0.362,-0.443,-0.820,2602.80,-83.594,56.960,18.241,0.601,-0.120,0.790,-0.378,0.476,-0.794,2488.45,-49.798,-6.155,57.184,-0.373,0.166,0.913,0.746,0.180,0.641,9.654,224.458,-54.122,59.145,0.918,0.319,0.236,9.485,83.939,-95.160,-20.427,none
1.507342,0.504,0.183,-0.844,2892.92,-111.682,30.886,-50.805,0.179,-0.497,0.849,0.642,-0.130,-0.756,3237.14,-75.536,-21.822,-55.729,0.191,-0.721,0.666,0.432,-0.185,-0.883,4004.61,-113.361,59.758,11.750,0.561,-0.355,0.748,-0.302,0.370,-0.878,2461.24,-37.936,-21.374,53.715,-0.384,0.159,0.910,0.369,0.314,0.875,8.987,258.443,-113.756,65.725,0.860,0.472,0.195,9.158,123.282,-146.153,2.489,none
1.507441,0.570,0.151,-0.808,2404.83,-132.832,20.591,-84.713,0.172,-0.459,0.872,0.643,-0.262,-0.720,2882.58,-107.877,-49.462,-74.305,0.142,-0.717,0.683,0.527,0.141,-0.838,3037.18,-138.092,50.134,-23.388,0.544,-0.539,0.644,-0.290,0.640,-0.711,3136.70,-86.056,-49.015,50.246,-0.390,0.159,0.907,0.203,0.203,0.958,53.393,180.779,-281.053,-24.931,0.624,0.520,0.584,24.720,131.939,-136.382,-6.626,none
1.507538,0.594,0.254,-0.763,3545.01,-128.356,50.917,-60.317,0.115,-0.521,0.846,0.627,0.233,-0.744,2313.31,-74.082,-33.236,-16.338,0.127,-0.714,0.688,0.435,-0.516,-0.738,2347.82,0.671,34.803,-58.191,0.543,-0.560,0.626,-0.263,0.683,-0.681,3085.94,-97.806,-16.674,36.146,-0.389,0.141,0.910,0.386,0.219,0.896,12.658,60.198,-25.023,21.176,0.611,0.685,0.397,7.778,42.107,70.824,-15.130,none
1.507642,0.529,0.406,-0.745,4777.74,-66.696,39.055,-12.645,0.081,-0.523,0.849,0.641,0.296,-0.709,2815.73,-0.671,12.310,12.981,0.090,-0.710,0.698,0.449,-0.462,-0.765,2535.41,30.998,-0.224,2.686,0.538,-0.526,0.658,-0.295,0.515,-0.805,2490.15,5.148,-6.938,-0.448,-0.384,0.124,0.915,0.649,0.194,0.736,11.037,48.565,7.786,45.496,0.921,0.352,0.168,11.097,37.130,24.305,8.031,none
1.507755,0.593,0.465,-0.658,1582.32,44.091,16.114,-37.488,0.019,-0.511,0.859,0.680,-0.198,-0.705,2520.42,33.460,9.400,-16.562,0.065,-0.694,0.717,0.471,-0.409,-0.781,2480.04,33.907,-6.043,16.114,0.520,-0.516,0.680,-0.339,0.501,-0.796,2308.97,39.727,-20.926,-12.757,-0.372,0.120,0.920,0.534,0.208,0.820,11.015,47.084,-14.321,92.992,0.738,0.507,0.445,10.215,58.519,39.756,45.053,none
1.507853,0.594,-0.400,-0.698,3921.86,64.010,44.091,-36.146,-0.030,-0.503,0.864,0.711,-0.329,-0.622,2026.35,15.555,-2.350,-26.522,0.080,-0.702,0.708,0.510,-0.305,-0.804,2519.89,2.350,19.024,13.764,0.499,-0.516,0.696,-0.264,0.329,-0.907,2264.70,60.653,-13.876,-10.967,-0.367,0.125,0.922,0.016,0.221,0.975,12.204,32.748,-23.481,81.924,0.306,0.640,0.705,11.039,35.924,17.832,33.084,none
1.507948,0.702,0.008,-0.712,2259.34,3.805,3.133,-7.162,-0.074,-0.493,0.867,0.691,-0.466,-0.553,2881.68,-1.679,17.345,-12.981,0.078,-0.711,0.699,0.426,-0.540,-0.726,2605.31,17.681,5.036,-3.805,0.473,-0.497,0.728,-0.256,0.381,-0.889,2522.10,-9.848,-7.498,-0.336,-0.356,0.123,0.926,0.133,0.231,0.964,11.442,17.069,-29.267,16.626,0.585,0.590,0.556,10.346,18.565,-20.427,14.015,none
1.516535,0.693,-0.130,-0.709,2501.78,6.379,4.588,-1.790,-0.066,-0.480,0.875,0.733,-0.308,-0.606,2581.00,-13.317,5.931,3.245,0.052,-0.713,0.699,0.461,-0.501,-0.732,2553.51,0.000,-0.448,-7.498,0.460,-0.501,0.733,-0.269,0.413,-0.870,2440.40,-23.948,-8.169,4.588,-0.353,0.115,0.929,0.414,0.216,0.884,11.020,3.618,-22.305,6.824,0.673,0.554,0.490,10.217,9.237,-23.252,15.603,none
1.516706,0.675,-0.046,-0.737,2554.33,-11.079,2.798,-0.336,-0.085,-0.486,0.870,0.739,-0.312,-0.597,2453.25,-17.345,5.483,5.148,0.029,-0.705,0.709,0.475,-0.469,-0.744,2498.44,-10.295,-1.679,-10.407,0.458,-0.505,0.731,-0.259,0.452,-0.854,2451.65,-11.079,-9.512,9.064,-0.353,0.115,0.929,0.448,0.220,0.866,10.929,-3.221,-15.389,11.420,0.696,0.550,0.462,10.278,5.389,-28.076,16.718,none
1.516827,0.660,0.078,-0.747,2519.77,-29.879,-7.610,0.783,-0.062,-0.466,0.883,0.722,-0.199,-0.663,2714.70,-34.467,5.148,9.736,-0.005,-0.698,0.716,0.513,-0.374,-0.772,2448.47,-11.191,3.245,-5.371,0.451,-0.529,0.719,-0.278,0.416,-0.866,2496.94,2.350,-10.295,7.722,-0.351,0.111,0.930,0.435,0.208,0.876,10.971,0.122,-16.550,17.130,0.719,0.539,0.439,10.417,1.374,-23.649,15.099,none
1.516951,0.652,0.130,-0.747,2402.57,-19.584,-6.491,0.000,-0.038,-0.452,0.891,0.722,-0.139,-0.678,2538.29,-31.110,-3.021,10.407,-0.020,-0.685,0.728,0.529,-0.349,-0.774,2431.27,-10.967,4.924,-0.224,0.451,-0.553,0.700,-0.281,0.453,-0.846,2508.07,-20.479,-6.155,2.126,-0.354,0.118,0.928,0.456,0.210,0.865,11.061,5.038,-5.359,18.794,0.732,0.538,0.418,10.413,-2.198,-9.664,9.282,none
1.523223,0.620,0.230,-0.750,2509.41,-5.036,-5.595,-0.895,-0.012,-0.454,0.891,0.708,-0.021,-0.706,2367.20,-29.879,-0.224,11.638,-0.028,-0.680,0.733,0.503,-0.404,-0.764,2437.02,2.350,0.895,2.238,0.448,-0.572,0.687,-0.290,0.490,-0.822,2498.25,-14.548,-1.231,-5.260,-0.353,0.116,0.928,0.439,0.221,0.871,10.994,5.924,3.191,21.145,0.730,0.538,0.422,10.356,-5.878,-2.366,6.244,none
1.546384,0.652,0.134,-0.746,2417.13,9.960,-4.364,-3.021,-0.003,-0.403,0.915,0.705,0.062,-0.707,2377.60,-2.574,1.343,-2.686,-0.027,-0.663,0.748,0.500,-0.397,-0.770,2456.02,7.722,-4.588,-3.245,0.448,-0.585,0.676,-0.291,0.489,-0.822,2485.63,-2.574,1.679,-7.722,-0.351,0.113,0.930,0.386,0.230,0.894,10.997,7.573,5.069,19.740,0.704,0.556,0.441,10.291,-9.298,1.420,4.076,none
1.569095,0.662,0.105,-0.742,2512.59,10.967,-3.245,-3.469,-0.005,-0.453,0.891,0.739,-0.229,-0.634,2481.53,8.169,6.379,-13.093,-0.030,-0.670,0.742,0.480,-0.438,-0.760,2474.35,8.393,0.112,4.029,0.453,-0.587,0.671,-0.270,0.475,-0.837,2535.42,-4.252,2.798,-7.945,-0.356,0.115,0.927,0.404,0.210,0.890,10.955,11.588,1.817,13.802,0.694,0.555,0.459,10.191,-7.221,-12.519,2.992,none
1.591390,0.660,0.099,-0.745,2476.61,-0.112,-9.400,-7.945,0.008,-0.422,0.907,0.726,-0.145,-0.672,2632.78,-5.371,5.260,-11.974,-0.014,-0.668,0.744,0.460,-0.464,-0.757,2521.67,6.826,4.252,1.567,0.459,-0.599,0.656,-0.298,0.440,-0.847,2494.34,0.112,-3.357,-7.162,-0.346,0.110,0.932,0.416,0.194,0.889,10.872,18.183,-6.244,17.908,0.702,0.536,0.470,10.215,-2.855,-19.466,2.779,none
2.019793,0.643,0.041,-0.764,2387.37,-2.126,-7.274,-12.198,0.053,-0.430,0.901,0.717,-0.254,-0.650,2392.15,-0.560,2.238,-17.233,0.005,-0.668,0.744,0.456,-0.445,-0.771,2476.23,10.855,4.029,-2.014,0.464,-0.610,0.642,-0.321,0.440,-0.839,2473.06,1.567,-4.141,-6.379,-0.353,0.114,0.929,0.357,0.190,0.915,10.977,21.450,-8.443,15.756,0.704,0.525,0.478,10.259,-1.191,-16.809,1.435,none
2.022493,0.638,0.025,-0.770,2318.20,-0.112,-3.805,-7.386,0.075,-0.462,0.884,0.713,-0.285,-0.640,2336.41,-6.379,5.148,-9.736,0.029,-0.672,0.740,0.439,-0.464,-0.769,2481.06,9.848,2.238,0.000,0.468,-0.621,0.629,-0.331,0.435,-0.837,2454.07,-0.783,-1.790,-3.469,-0.355,0.116,0.928,0.401,0.183,0.898,10.977,15.618,-10.885,9.786,0.712,0.525,0.467,10.243,-3.099,-16.519,3.695,none
2.022678,0.636,0.045,-0.770,2368.43,-1.902,-4.252,-3.693,0.093,-0.463,0.881,0.712,-0.229,-0.664,2532.87,-16.003,6.826,-6.267,0.034,-0.670,0.742,0.445,-0.458,-0.769,2470.11,4.700,2.686,-0.895,0.472,-0.628,0.619,-0.329,0.440,-0.836,2470.35,1.119,-1.231,1.567,-0.357,0.120,0.926,0.434,0.182,0.883,10.970,9.817,-7.649,6.718,0.726,0.509,0.462,10.311,-4.382,-16.626,5.664,none
2.022820,0.626,0.051,-0.778,2470.66,-5.819,-3.245,-2.686,0.088,-0.443,0.892,0.709,-0.174,-0.684,2545.07,-20.143,4.141,-3.469,0.035,-0.663,0.747,0.448,-0.461,-0.766,2479.17,0.895,4.700,-2.462,0.473,-0.636,0.609,-0.326,0.429,-0.842,2463.70,5.931,-1.455,4.252,-0.358,0.122,0.926,0.416,0.181,0.891,10.976,6.519,-5.450,5.832,0.730,0.509,0.456,10.308,-4.870,-15.176,6.763,none
2.022946,0.626,0.053,-0.778,2408.90,-9.176,-4.588,-0.783,0.104,-0.457,0.883,0.715,-0.223,-0.662,2509.33,-14.100,-1.119,-1.231,0.028,-0.658,0.753,0.452,-0.453,-0.768,2497.72,-2.574,3.469,-4.252,0.475,-0.640,0.603,-0.326,0.429,-0.842,2463.70,1.119,-1.790,5.595,-0.362,0.126,0.924,0.425,0.181,0.887,10.989,4.290,-8.595,2.076,0.734,0.511,0.447,10.340,-5.115,-13.420,6.779,none
2.023098,0.627,0.052,-0.777,2435.43,-10.407,-3.469,2.238,0.121,-0.452,0.884,0.713,-0.248,-0.656,2488.46,-19.360,-1.343,6.602,0.033,-0.666,0.745,0.460,-0.441,-0.771,2477.15,-3.581,2.686,-2.574,0.475,-0.645,0.598,-0.327,0.452,-0.830,2488.59,-2.238,-2.910,5.819,-0.364,0.124,0.923,0.411,0.190,0.892,10.989,6.092,-8.000,-1.145,0.727,0.518,0.450,10.307,-4.168,-11.359,4.275,none
2.023256,0.629,0.066,-0.774,2394.37,-8.169,-1.119,7.162,0.116,-0.445,0.888,0.717,-0.269,-0.643,2445.91,-24.507,-0.224,15.667,0.034,-0.652,0.758,0.463,-0.441,-0.769,2480.99,-1.455,2.350,3.357,0.473,-0.647,0.598,-0.331,0.449,-0.830,2487.04,3.133,-0.783,6.491,-0.359,0.123,0.925,0.392,0.193,0.900,11.022,2.641,-4.443,-8.382,0.721,0.524,0.454,10.305,-5.267,-9.924,1.710,none
2.023378,0.632,0.095,-0.770,2370.36,-9.288,2.686,7.833,0.102,-0.468,0.878,0.722,-0.246,-0.647,2431.45,-37.936,2.574,22.717,0.023,-0.657,0.754,0.461,-0.450,-0.765,2471.03,-2.686,5.036,7.274,0.472,-0.647,0.599,-0.319,0.449,-0.835,2485.11,7.945,-0.560,7.833,-0.367,0.125,0.922,0.378,0.195,0.905,11.089,-5.084,-0.366,-17.023,0.702,0.533,0.473,10.295,-8.489,-7.969,0.137,none
2.023494,0.637,-0.019,-0.771,2581.71,-5.595,1.790,10.295,0.140,-0.467,0.873,0.711,-0.165,-0.683,2618.76,-33.684,-4.252,28.760,-0.005,-0.646,0.763,0.462,-0.460,-0.758,2506.07,-6.155,4.812,6.602,0.471,-0.644,0.603,-0.313,0.429,-0.847,2468.47,13.317,3.805,11.526,-0.361,0.123,0.924,0.351,0.195,0.916,11.091,-13.160,-0.595,-27.817,0.644,0.552,0.530,10.379,-16.305,-11.313,-3.282,none
2.023595,0.643,0.054,-0.764,2360.47,-14.212,-4.588,17.905,0.151,-0.442,0.884,0.707,0.047,-0.705,2299.93,-16.003,-5.931,20.926,-0.020,-0.644,0.765,0.466,-0.455,-0.759,2489.34,-9.848,4.812,3.805,0.466,-0.649,0.602,-0.313,0.412,-0.856,2469.54,10.295,5.036,13.317,-0.370,0.134,0.919,0.336,0.194,0.922,11.054,-21.863,-0.229,-42.000,0.686,0.539,0.488,10.274,-30.977,-18.626,-12.458,none
2.023722,0.645,0.076,-0.761,2321.80,-9.624,1.679,19.584,0.137,-0.445,0.885,0.728,-0.123,-0.674,2232.61,1.679,2.014,7.610,-0.020,-0.629,0.777,0.468,-0.449,-0.761,2431.97,-8.952,3.805,2.014,0.465,-0.650,0.601,-0.312,0.435,-0.845,2476.68,4.364,7.162,14.995,-0.373,0.137,0.918,0.543,0.180,0.820,10.839,-25.542,-8.000,-44.656,0.838,0.458,0.296,10.301,-24.733,-22.275,-4.763,none
2.023853,0.630,0.235,-0.740,2331.42,-16.114,8.952,8.841,0.166,-0.440,0.883,0.713,-0.066,-0.698,2829.83,-12.198,3.357,0.783,-0.038,-0.625,0.780,0.482,-0.450,-0.752,2406.71,0.895,0.000,-2.126,0.463,-0.653,0.599,-0.289,0.444,-0.848,2606.41,-0.224,-0.448,10.743,-0.378,0.141,0.915,0.643,0.152,0.751,11.280,-9.710,-12.931,-18.321,0.837,0.454,0.307,10.930,-7.450,9.023,5.573,none
2.023952,0.555,0.388,-0.735,2802.25,-12.981,17.122,-19.695,0.142,-0.447,0.883,0.737,-0.101,-0.669,2514.10,-2.350,-0.671,0.112,-0.046,-0.617,0.786,0.475,-0.484,-0.735,2461.94,16.562,-3.469,-9.624,0.466,-0.656,0.593,-0.301,0.477,-0.826,2631.22,-4.476,-7.722,-1.567,-0.378,0.143,0.915,0.452,0.177,0.874,10.913,1.725,-2.366,-8.748,0.775,0.538,0.330,9.932,10.305,-2.412,2.763,none
2.024044,0.642,-0.107,-0.760,2945.31,5.707,10.743,-11.862,0.143,-0.442,0.886,0.723,-0.050,-0.689,2369.63,12.198,7.722,-21.038,-0.042,-0.618,0.785,0.503,-0.413,-0.759,2478.25,8.729,6.267,6.602,0.470,-0.675,0.569,-0.304,0.436,-0.847,2448.16,-6.491,-5.371,-5.036,-0.378,0.141,0.915,0.433,0.187,0.882,10.881,7.847,-5.313,-4.107,0.769,0.504,0.392,10.138,38.366,-16.656,14.580,none
2.024132,0.623,0.195,-0.757,2512.74,-8.057,6.714,-18.017,0.125,-0.448,0.885,0.718,-0.241,-0.652,2606.90,0.783,4.924,-20.479,-0.030,-0.621,0.783,0.513,-0.352,-0.783,2489.16,13.317,9.176,-0.783,0.471,-0.682,0.559,-0.296,0.447,-0.844,2478.88,-3.693,-6.155,-5.483,-0.375,0.138,0.917,0.435,0.192,0.880,10.903,11.115,-12.901,-3.237,0.675,0.557,0.484,10.300,28.336,-28.107,9.221,none
2.024219,0.665,0.028,-0.746,2472.12,6.043,6.155,-14.660,0.127,-0.462,0.878,0.730,-0.114,-0.674,2509.37,4.924,4.588,-23.053,-0.016,-0.627,0.779,0.486,-0.428,-0.762,2505.82,6.938,11.191,-0.783,0.473,-0.695,0.542,-0.298,0.432,-0.851,2494.11,-6.714,-6.602,-5.707,-0.378,0.142,0.915,0.455,0.192,0.870,10.946,14.687,-16.076,-1.649,0.752,0.526,0.398,10.415,29.359,-25.221,4.687,none
2.024305,0.645,0.156,-0.748,2517.93,-9.848,2.350,-20.143,0.142,-0.467,0.873,0.729,-0.062,-0.681,2525.08,-1.679,3.245,-24.619,0.003,-0.630,0.777,0.504,-0.423,-0.753,2511.45,1.343,13.764,-9.400,0.475,-0.694,0.541,-0.305,0.444,-0.843,2471.16,-6.938,-7.945,-5.595,-0.377,0.137,0.916,0.487,0.200,0.850,10.932,18.260,-13.557,8.550,0.752,0.528,0.395,10.371,21.313,-23.466,3.710,none
2.032567,0.650,0.130,-0.748,2332.86,1.007,2.798,-21.038,0.132,-0.498,0.857,0.733,-0.062,-0.677,2366.74,2.462,-0.783,-27.865,0.033,-0.643,0.765,0.527,-0.404,-0.748,2460.74,-1.567,9.176,-13.205,0.481,-0.692,0.538,-0.305,0.426,-0.852,2436.51,-4.924,-4.924,-6.602,-0.372,0.141,0.917,0.451,0.210,0.867,10.961,17.053,-14.168,12.580,0.753,0.522,0.401,10.336,16.031,-14.931,5.053,none
2.032804,0.651,0.104,-0.752,2451.40,-4.700,-0.224,-22.045,0.179,-0.502,0.846,0.753,-0.173,-0.635,2214.77,6.267,2.126,-31.781,0.066,-0.649,0.758,0.486,-0.451,-0.748,2485.51,-0.448,7.162,-12.533,0.488,-0.689,0.537,-0.312,0.463,-0.830,2452.63,-11.862,-1.790,-5.148,-0.371,0.139,0.918,0.423,0.201,0.883,10.965,12.794,-10.763,11.191,0.752,0.527,0.396,10.349,6.947,-9.435,7.374,none
2.032957,0.641,0.109,-0.759,2349.20,-0.560,-2.462,-12.198,0.164,-0.505,0.848,0.714,-0.188,-0.675,2665.33,8.952,2.238,-16.898,0.084,-0.649,0.756,0.483,-0.445,-0.754,2480.41,-0.336,4.476,-8.505,0.499,-0.683,0.533,-0.321,0.470,-0.822,2437.71,-5.819,1.567,-2.798,-0.373,0.138,0.917,0.446,0.187,0.875,10.992,8.382,-8.794,5.267,0.738,0.533,0.415,10.306,0.702,-7.023,6.107,none
2.033109,0.644,0.066,-0.762,2508.29,-3.245,-2.462,-7.386,0.164,-0.529,0.832,0.746,-0.136,-0.652,2234.11,-5.036,-2.014,-9.960,0.092,-0.655,0.750,0.459,-0.487,-0.743,2504.38,0.224,3.021,-6.602,0.503,-0.682,0.530,-0.349,0.455,-0.819,2472.15,2.350,1.679,0.224,-0.375,0.137,0.917,0.447,0.172,0.878,11.005,5.435,-9.420,1.954,0.754,0.510,0.414,10.368,-0.916,-6.321,5.511,none
2.052317,0.618,0.114,-0.778,2485.24,-4.924,-3.133,-6.602,0.188,-0.529,0.827,0.712,-0.185,-0.678,2494.52,-8.281,-2.910,-9.176,0.110,-0.655,0.748,0.459,-0.469,-0.755,2479.56,-3.245,4.252,-3.581,0.509,-0.679,0.529,-0.351,0.446,-0.824,2483.17,0.336,0.448,1.790,-0.375,0.141,0.916,0.460,0.153,0.874,10.996,3.878,-8.443,-0.931,0.752,0.503,0.426,10.328,-3.603,-8.840,3.450,none
2.072240,0.620,0.072,-0.782,2447.82,-2.798,-3.245,-2.350,0.181,-0.517,0.836,0.714,-0.171,-0.680,2473.68,-7.386,-2.350,-3.917,0.121,-0.657,0.744,0.459,-0.476,-0.750,2481.01,-1.790,1.902,-2.798,0.512,-0.681,0.524,-0.355,0.418,-0.836,2480.94,-0.895,1.455,2.910,-0.376,0.144,0.915,0.475,0.150,0.867,10.926,4.595,-5.435,-0.962,0.770,0.502,0.393,10.354,-1.084,-8.000,1.328,none
2.094465,0.623,0.128,-0.772,2452.17,-4.812,-1.567,-3.133,0.162,-0.543,0.824,0.720,-0.129,-0.682,2436.67,-10.855,-1.455,-3.805,0.126,-0.659,0.742,0.473,-0.450,-0.757,2470.58,-2.014,2.014,-1.455,0.512,-0.679,0.526,-0.326,0.445,-0.834,2463.16,0.336,-0.448,1.902,-0.380,0.146,0.914,0.463,0.186,0.867,10.982,8.107,-8.229,-1.664,0.760,0.527,0.381,10.307,4.824,-7.115,0.382,none
2.116932,0.642,0.114,-0.758,2407.45,-4.029,-1.455,-3.805,0.191,-0.523,0.831,0.730,-0.141,-0.669,2498.03,-6.938,-0.448,-2.350,0.124,-0.663,0.739,0.494,-0.448,-0.745,2483.60,-4.029,5.595,2.798,0.511,-0.682,0.524,-0.319,0.449,-0.835,2485.11,-0.783,-2.126,2.910,-0.382,0.146,0.913,0.472,0.196,0.860,10.944,7.069,-12.244,-0.855,0.756,0.533,0.380,10.246,4.382,-10.870,3.328,none
2.525999,0.644,0.105,-0.758,2433.39,-6.379,-1.790,-2.350,0.185,-0.530,0.827,0.732,-0.100,-0.674,2451.03,-7.833,-1.455,2.350,0.116,-0.658,0.744,0.498,-0.448,-0.743,2463.95,-5.483,-0.448,-1.231,0.509,-0.677,0.532,-0.317,0.456,-0.832,2469.79,5.148,-1.567,5.260,-0.377,0.144,0.915,0.461,0.188,0.867,10.973,5.817,-11.511,-0.855,0.757,0.528,0.384,10.310,5.359,-17.038,5.176,none
2.526236,0.631,0.115,-0.767,2466.83,-4.700,-3.581,6.043,0.172,-0.540,0.824,0.732,-0.140,-0.666,2464.25,-6.379,-2.238,4.588,0.114,-0.661,0.742,0.485,-0.454,-0.747,2490.78,-4.141,-2.350,-0.560,0.509,-0.676,0.533,-0.320,0.438,-0.840,2478.94,8.393,-0.448,6.379,-0.375,0.142,0.916,0.439,0.190,0.878,11.051,1.969,-8.824,-5.145,0.740,0.543,0.397,10.453,-0.672,-14.977,3.130,none
2.526416,0.644,0.118,-0.756,2414.28,-7.162,-3.693,7.722,0.194,-0.526,0.828,0.731,-0.180,-0.659,2508.46,-9.064,-2.126,10.855,0.110,-0.660,0.743,0.490,-0.452,-0.745,2442.92,-4.029,-3.805,-0.448,0.506,-0.679,0.532,-0.315,0.448,-0.837,2488.63,3.245,-0.671,7.833,-0.379,0.150,0.913,0.422,0.198,0.885,11.026,-1.710,-4.565,-12.305,0.733,0.553,0.398,10.404,-9.405,-13.542,-1.267,none
2.526519,0.652,0.051,-0.757,2477.14,-5.819,-3.805,9.960,0.197,-0.529,0.826,0.735,-0.065,-0.675,2402.24,-7.498,-1.790,14.324,0.102,-0.653,0.750,0.475,-0.488,-0.732,2499.73,-3.357,-8.057,0.783,0.503,-0.682,0.531,-0.315,0.461,-0.830,2487.27,6.267,-0.336,9.960,-0.375,0.140,0.916,0.471,0.196,0.860,10.949,-4.412,-1.588,-16.015,0.768,0.539,0.345,10.327,-14.229,-16.015,-2.916,none
2.526612,0.648,0.185,-0.739,2281.30,-9.512,1.231,11.862,0.193,-0.514,0.836,0.738,-0.083,-0.669,2468.04,-6.491,-1.455,11.526,0.091,-0.653,0.752,0.495,-0.452,-0.742,2480.66,-6.714,-4.252,3.245,0.504,-0.683,0.528,-0.306,0.431,-0.849,2500.15,10.519,-0.671,11.974,-0.381,0.152,0.912,0.486,0.193,0.852,10.967,-4.672,-1.008,-15.756,0.770,0.537,0.345,10.291,-13.634,-15.603,-2.489,none
2.526726,0.644,0.098,-0.759,2600.01,-9.512,2.462,9.288,0.196,-0.491,0.849,0.735,-0.067,-0.674,2478.60,-8.281,-1.343,8.281,0.085,-0.639,0.765,0.511,-0.413,-0.754,2480.83,-15.331,-0.448,5.483,0.496,-0.694,0.522,-0.303,0.452,-0.839,2492.56,10.295,-1.790,12.086,-0.384,0.151,0.911,0.470,0.191,0.861,10.942,-4.947,0.824,-16.183,0.770,0.534,0.351,10.348,-11.924,-16.244,-1.374,none
2.526831,0.647,0.145,-0.749,2437.01,-11.414,0.783,10.072,0.194,-0.483,0.854,0.740,-0.155,-0.655,2464.10,-6.491,-0.336,11.191,0.074,-0.636,0.768,0.504,-0.421,-0.754,2454.69,-7.274,1.119,4.476,0.497,-0.696,0.519,-0.301,0.442,-0.845,2501.75,10.631,-3.469,12.757,-0.386,0.158,0.909,0.458,0.189,0.869,10.941,-5.191,2.473,-20.168,0.770,0.535,0.348,10.353,-8.870,-14.580,-3.023,none
2.526940,0.642,0.148,-0.752,2438.64,-12.422,6.155,6.155,0.252,-0.488,0.836,0.734,-0.097,-0.672,2444.15,-7.833,1.119,14.772,0.070,-0.628,0.775,0.476,-0.517,-0.711,2493.27,-11.638,5.707,8.841,0.491,-0.701,0.518,-0.307,0.432,-0.848,2515.71,9.624,-4.476,13.205,-0.390,0.163,0.906,0.488,0.188,0.852,10.916,-4.427,0.809,-21.939,0.782,0.524,0.337,10.399,-9.939,-15.740,-5.359,none
2.527029,0.643,0.148,-0.752,2452.58,-10.072,4.029,7.722,0.244,-0.504,0.828,0.738,-0.084,-0.669,2453.96,-7.722,1.902,15.107,0.062,-0.625,0.778,0.522,-0.410,-0.748,2500.22,-10.072,9.960,12.981,0.484,-0.714,0.505,-0.299,0.437,-0.849,2489.95,8.617,-4.252,11.638,-0.392,0.164,0.905,0.545,0.183,0.818,10.883,-0.366,-0.397,-15.191,0.824,0.493,0.279,10.378,-6.916,-11.603,-2.382,none
2.527115,0.616,0.285,-0.734,2444.89,-7.386,5.260,-0.112,0.228,-0.481,0.846,0.725,0.051,-0.687,2475.47,-8.841,2.350,2.014,0.050,-0.617,0.785,0.547,-0.383,-0.745,2497.35,-6.938,11.079,7.162,0.476,-0.729,0.493,-0.295,0.429,-0.854,2486.84,1.119,-4.588,5.931,-0.398,0.169,0.902,0.507,0.193,0.840,10.968,5.969,0.901,-5.863,0.800,0.517,0.304,10.476,-3.832,-1.313,-2.718,none
2.527202,0.630,0.210,-0.747,2467.96,1.231,8.505,-5.483,0.242,-0.497,0.834,0.724,-0.067,-0.686,2477.85,-2.014,3.469,-2.238,0.055,-0.602,0.797,0.534,-0.390,-0.750,2427.05,0.224,16.450,6.714,0.477,-0.733,0.486,-0.297,0.469,-0.832,2504.61,-3.245,-3.133,1.007,-0.396,0.170,0.902,0.467,0.210,0.859,10.920,5.481,1.695,-8.244,0.773,0.538,0.336,10.308,-3.893,-4.137,-3.389,none
2.527288,0.652,0.141,-0.745,2433.85,-5.148,4.029,-2.798,0.240,-0.487,0.840,0.728,-0.100,-0.678,2450.49,-1.902,3.133,-2.686,0.059,-0.606,0.793,0.513,-0.414,-0.752,2448.98,1.790,19.919,13.093,0.475,-0.739,0.478,-0.300,0.478,-0.825,2477.03,-2.014,-0.448,2.238,-0.404,0.171,0.899,0.503,0.200,0.841,10.885,5.145,0.260,-9.481,0.785,0.517,0.342,10.376,-4.641,-5.481,-4.397,none
2.527372,0.633,0.182,-0.752,2425.78,-6.267,3.357,-1.455,0.246,-0.509,0.825,0.719,-0.088,-0.689,2467.93,-1.790,3.021,0.112,0.052,-0.600,0.799,0.522,-0.412,-0.747,2463.25,1.343,18.912,13.764,0.469,-0.744,0.475,-0.320,0.466,-0.825,2478.53,2.686,2.462,1.455,-0.398,0.169,0.901,0.530,0.185,0.827,10.954,6.122,4.550,-4.550,0.792,0.509,0.338,10.391,-6.901,-2.656,-4.763,none
2.527456,0.630,0.176,-0.756,2452.18,3.469,2.798,2.574,0.270,-0.484,0.832,0.729,-0.057,-0.682,2435.55,4.364,3.357,2.910,0.058,-0.601,0.797,0.520,-0.423,-0.742,2493.34,2.238,13.764,12.422,0.463,-0.751,0.470,-0.313,0.441,-0.841,2465.88,4.141,2.798,-1.567,-0.400,0.171,0.900,0.501,0.188,0.845,10.903,9.740,4.260,2.183,0.787,0.518,0.334,10.339,-5.634,1.573,-4.458,none
2.527541,0.646,0.179,-0.742,2457.00,6.155,2.910,-0.895,0.258,-0.511,0.820,0.732,-0.085,-0.676,2531.36,9.512,3.805,-0.112,0.054,-0.600,0.798,0.530,-0.425,-0.734,2481.70,0.000,11.079,5.595,0.466,-0.749,0.471,-0.299,0.426,-0.854,2485.97,-5.036,2.350,-3.917,-0.404,0.171,0.899,0.499,0.191,0.845,10.888,13.206,-0.244,7.817,0.787,0.520,0.333,10.350,-2.153,1.435,-1.802,none
2.527625,0.643,0.178,-0.745,2421.76,3.245,2.574,-6.043,0.238,-0.512,0.825,0.737,-0.052,-0.674,2450.21,8.505,1.790,-7.162,0.061,-0.604,0.794,0.527,-0.425,-0.736,2499.48,-2.126,9.400,-1.343,0.464,-0.753,0.466,-0.303,0.441,-0.845,2488.04,-9.176,2.014,-4.588,-0.404,0.168,0.899,0.469,0.196,0.861,10.955,13.542,-1.756,9.908,0.780,0.522,0.346,10.342,-0.504,-0.122,0.305,none
2.527722,0.640,0.161,-0.751,2429.36,3.245,2.350,-7.498,0.241,-0.513,0.824,0.736,-0.102,-0.669,2410.90,2.350,0.671,-9.736,0.066,-0.603,0.795,0.506,-0.446,-0.738,2426.87,-1.902,8.057,-1.343,0.471,-0.748,0.468,-0.309,0.443,-0.842,2475.07,-5.931,1.679,-4.588,-0.406,0.173,0.897,0.460,0.182,0.869,10.932,9.252,-0.947,5.832,0.770,0.526,0.362,10.357,-3.145,-3.374,1.573,none
2.528371,0.644,0.108,-0.757,2447.61,4.588,0.783,-2.910,0.259,-0.541,0.800,0.734,-0.078,-0.675,2403.65,1.679,-1.231,-3.133,0.069,-0.612,0.788,0.502,-0.436,-0.747,2463.15,0.560,4.364,0.895,0.476,-0.746,0.467,-0.323,0.433,-0.842,2487.04,-2.350,3.021,-2.910,-0.404,0.168,0.899,0.488,0.171,0.856,10.989,6.763,0.672,3.374,0.766,0.516,0.383,10.337,-3.405,-2.656,0.840,none
2.528485,0.623,0.123,-0.772,2463.60,1.231,0.336,-3.693,0.233,-0.560,0.795,0.719,-0.135,-0.682,2480.66,-0.448,-1.119,-4.588,0.084,-0.614,0.785,0.486,-0.467,-0.739,2465.43,-1.231,1.455,-2.014,0.480,-0.745,0.463,-0.341,0.429,-0.836,2467.47,-2.798,2.238,-1.790,-0.402,0.165,0.901,0.507,0.151,0.849,10.926,7.084,2.885,5.924,0.770,0.510,0.383,10.374,-4.550,-2.382,-0.595,none
2.531753,0.624,0.153,-0.766,2431.91,0.448,-1.231,-2.014,0.224,-0.548,0.806,0.715,-0.136,-0.685,2452.31,1.902,-0.112,-1.343,0.076,-0.613,0.787,0.470,-0.475,-0.744,2486.73,3.245,-2.238,-2.574,0.481,-0.745,0.461,-0.345,0.423,-0.838,2522.28,-4.364,0.448,-2.798,-0.404,0.168,0.899,0.480,0.159,0.863,10.879,11.527,-0.458,10.672,0.777,0.508,0.373,10.250,2.885,-3.282,-4.351,none
2.556106,0.635,0.132,-0.761,2450.24,3.805,4.364,-4.029,0.247,-0.526,0.814,0.729,-0.116,-0.675,2462.09,-4.476,1.679,-4.812,0.083,-0.614,0.785,0.498,-0.451,-0.741,2485.63,0.336,2.238,0.448,0.479,-0.746,0.462,-0.327,0.434,-0.840,2459.17,-3.021,-4.029,-1.231,-0.402,0.168,0.900,0.461,0.176,0.870,10.969,6.733,-11.389,5.878,0.785,0.506,0.357,10.354,5.160,-7.511,3.038,none
2.578409,0.626,0.140,-0.767,2454.11,1.679,1.790,-8.617,0.244,-0.552,0.797,0.715,-0.096,-0.693,2455.43,-4.700,-1.231,-7.162,0.087,-0.626,0.775,0.502,-0.444,-0.742,2482.12,-1.679,-0.448,-3.245,0.483,-0.743,0.462,-0.331,0.454,-0.827,2458.37,-5.707,-3.917,0.783,-0.400,0.161,0.902,0.505,0.178,0.845,10.987,2.107,-4.718,5.420,0.768,0.522,0.372,10.380,-3.527,-10.382,4.366,none
2.599724,0.632,0.123,-0.765,2461.55,5.707,-2.462,-2.574,0.221,-0.548,0.806,0.714,-0.132,-0.688,2457.84,2.574,-4.588,6.379,0.080,-0.622,0.779,0.490,-0.452,-0.745,2483.67,-0.783,-20.143,-12.645,0.481,-0.741,0.469,-0.331,0.474,-0.816,2480.50,-7.050,1.455,0.336,-0.399,0.161,0.903,0.475,0.182,0.861,10.974,1.557,-0.672,5.710,0.775,0.527,0.348,10.450,-9.603,-6.382,2.321,none
2.620933,0.644,0.139,-0.752,2463.81,3.805,-5.483,3.917,0.195,-0.519,0.832,0.727,-0.079,-0.682,2466.30,4.029,-4.029,4.812,0.083,-0.618,0.782,0.518,-0.427,-0.741,2443.63,2.798,-18.912,-6.043,0.491,-0.738,0.464,-0.306,0.464,-0.831,2529.97,-4.252,1.902,-0.336,-0.395,0.155,0.905,0.467,0.196,0.862,10.982,0.595,-1.130,0.015,0.754,0.552,0.357,10.279,-11.924,-5.954,-0.046,none
3.034940,0.663,0.083,-0.744,2493.08,6.826,-4.364,6.379,0.208,-0.532,0.821,0.732,-0.152,-0.664,2516.33,3.133,-3.693,8.729,0.073,-0.630,0.773,0.503,-0.453,-0.736,2499.41,8.057,-19.024,-5.931,0.487,-0.739,0.465,-0.301,0.455,-0.838,2475.29,-1.119,1.567,0.224,-0.396,0.155,0.905,0.479,0.189,0.857,10.946,-1.695,2.229,-1.450,0.765,0.544,0.344,10.312,-13.206,-8.779,0.275,none
3.035940,0.652,0.156,-0.742,2446.26,0.336,-5.483,6.155,0.204,-0.533,0.821,0.738,-0.115,-0.665,2483.99,0.895,-4.252,11.079,0.064,-0.615,0.786,0.519,-0.425,-0.741,2456.45,2.014,-20.703,-6.379,0.493,-0.740,0.458,-0.296,0.460,-0.837,2511.63,-0.448,1.119,1.007,-0.395,0.155,0.906,0.478,0.191,0.857,10.936,-0.412,3.588,-1.359,0.780,0.536,0.323,10.374,-11.160,-6.718,-0.748,none
3.036084,0.648,0.172,-0.742,2446.81,2.126,-3.133,4.700,0.252,-0.525,0.813,0.740,-0.084,-0.667,2461.36,2.798,-2.126,8.729,0.062,-0.622,0.781,0.519,-0.420,-0.744,2459.65,2.350,-13.429,-3.693,0.493,-0.743,0.453,-0.292,0.448,-0.845,2511.88,1.343,1.119,0.112,-0.395,0.150,0.906,0.465,0.189,0.865,10.872,1.573,1.008,-0.885,0.769,0.541,0.340,10.274,-8.809,-5.496,-0.137,none
3.036194,0.655,0.104,-0.749,2451.18,2.574,-1.455,1.567,0.221,-0.513,0.829,0.732,-0.142,-0.667,2478.04,1.790,-1.343,2.686,0.071,-0.624,0.778,0.502,-0.436,-0.747,2463.15,3.357,-6.379,-1.343,0.490,-0.744,0.454,-0.299,0.452,-0.840,2490.39,-0.671,-0.783,0.783,-0.391,0.150,0.908,0.473,0.183,0.862,10.903,3.435,-3.893,0.534,0.766,0.534,0.359,10.277,-7.481,-9.649,2.519,none
3.036294,0.651,0.100,-0.753,2450.38,-2.126,-3.469,0.448,0.228,-0.518,0.824,0.732,-0.128,-0.670,2452.18,-2.686,-3.357,0.783,0.059,-0.617,0.785,0.481,-0.454,-0.750,2492.69,3.805,-8.169,-4.141,0.493,-0.738,0.461,-0.318,0.465,-0.826,2463.26,1.902,-2.350,3.245,-0.391,0.151,0.908,0.485,0.168,0.858,10.995,3.740,-4.046,0.962,0.768,0.526,0.365,10.416,-11.053,-9.664,2.015,none
3.036393,0.634,0.129,-0.762,2421.01,-2.462,-5.036,4.924,0.224,-0.498,0.838,0.717,-0.141,-0.683,2446.85,-1.231,-3.133,5.595,0.066,-0.615,0.786,0.489,-0.438,-0.755,2452.09,-2.798,-12.533,-5.483,0.494,-0.742,0.452,-0.319,0.457,-0.830,2486.68,2.462,-0.448,4.364,-0.392,0.151,0.907,0.487,0.165,0.858,10.967,2.183,-0.092,-0.412,0.756,0.532,0.382,10.343,-15.328,-9.817,-1.145,none
3.036494,0.636,0.100,-0.766,2448.07,0.000,-3.693,6.826,0.249,-0.499,0.830,0.720,-0.129,-0.682,2436.67,-0.336,-2.462,10.072,0.056,-0.610,0.791,0.469,-0.467,-0.750,2469.13,2.014,-16.562,-4.588,0.492,-0.746,0.449,-0.313,0.449,-0.837,2467.23,5.036,1.007,4.588,-0.392,0.152,0.907,0.466,0.166,0.869,10.921,1.649,-1.725,-0.641,0.776,0.521,0.355,10.286,-15.481,-9.252,-1.084,none
3.036590,0.638,0.127,-0.759,2468.53,-2.238,-5.707,10.407,0.223,-0.505,0.834,0.719,-0.177,-0.672,2547.71,-5.595,-5.371,12.310,0.056,-0.608,0.792,0.472,-0.450,-0.758,2453.46,5.371,-13.205,0.448,0.496,-0.748,0.441,-0.304,0.434,-0.848,2479.28,5.260,-0.560,5.931,-0.394,0.157,0.906,0.455,0.173,0.873,10.954,0.168,-3.695,-3.038,0.782,0.519,0.346,10.307,-16.824,-7.466,-1.466,none
3.036696,0.648,0.087,-0.757,2462.67,-0.895,-4.924,10.407,0.241,-0.512,0.824,0.730,-0.068,-0.680,2471.45,-9.400,-4.364,9.736,0.054,-0.604,0.795,0.496,-0.404,-0.768,2435.19,3.469,-11.862,2.574,0.495,-0.751,0.437,-0.307,0.437,-0.845,2487.54,5.148,-2.238,7.945,-0.396,0.162,0.904,0.468,0.172,0.867,10.978,-0.809,-3.130,-7.053,0.767,0.530,0.362,10.396,-18.336,-8.458,-3.130,none
3.036808,0.650,0.130,-0.749,2409.30,-2.798,-4.364,11.191,0.249,-0.482,0.840,0.725,-0.132,-0.675,2445.64,-10.407,-2.462,13.093,0.049,-0.603,0.796,0.484,-0.429,-0.762,2454.16,3.469,-6.602,7.162,0.486,-0.761,0.430,-0.305,0.444,-0.843,2471.16,6.826,-1.902,9.512,-0.393,0.152,0.907,0.466,0.170,0.868,10.929,-1.618,0.626,-8.687,0.793,0.509,0.335,10.302,-20.397,-9.191,-5.038,none
3.036901,0.622,0.228,-0.749,2407.66,-10.743,-5.707,11.862,0.309,-0.477,0.823,0.724,-0.016,-0.690,2451.15,-11.302,-1.231,11.862,0.050,-0.592,0.805,0.512,-0.400,-0.760,2435.54,-0.671,-7.722,7.610,0.483,-0.767,0.424,-0.297,0.416,-0.859,2469.50,8.505,-0.448,9.400,-0.401,0.160,0.902,0.521,0.169,0.837,10.963,-3.237,1.328,-9.664,0.796,0.511,0.324,10.436,-17.344,-8.565,-3.328,none
3.036988,0.627,0.210,-0.750,2433.61,-8.841,-4.924,9.848,0.298,-0.486,0.822,0.723,-0.088,-0.685,2453.47,-5.819,-1.455,10.519,0.036,-0.586,0.810,0.509,-0.416,-0.754,2508.03,-1.007,-6.714,3.917,0.479,-0.770,0.421,-0.288,0.469,-0.835,2484.40,0.895,-0.224,5.819,-0.397,0.160,0.904,0.534,0.174,0.828,10.950,-2.748,7.527,-7.527,0.815,0.502,0.289,10.430,-13.710,-7.359,-2.733,none
3.037074,0.621,0.267,-0.737,2460.48,-3.693,-3.805,8.841,0.303,-0.466,0.831,0.730,0.004,-0.684,2459.25,-0.671,0.336,6.043,0.022,-0.571,0.821,0.538,-0.350,-0.767,2479.46,-1.902,-6.602,2.910,0.477,-0.776,0.412,-0.284,0.466,-0.838,2520.40,-5.148,-0.224,0.112,-0.398,0.155,0.904,0.510,0.180,0.841,10.965,-0.168,15.725,-4.992,0.791,0.517,0.327,10.389,-9.603,-2.794,-3.802,none
3.037160,0.630,0.205,-0.749,2436.45,6.043,0.336,4.812,0.304,-0.468,0.830,0.728,-0.024,-0.685,2410.94,-1.343,1.455,2.574,0.029,-0.582,0.813,0.484,-0.449,-0.751,2476.91,3.133,-6.714,-0.783,0.474,-0.778,0.413,-0.292,0.478,-0.829,2480.21,-0.560,1.343,-3.917,-0.401,0.156,0.903,0.494,0.158,0.855,10.929,-0.229,18.061,-3.344,0.783,0.513,0.351,10.343,-10.504,-0.595,-4.290,none
3.037245,0.633,0.139,-0.762,2459.81,5.260,-0.895,3.133,0.292,-0.456,0.841,0.725,-0.087,-0.683,2489.59,5.707,2.910,-0.560,0.025,-0.575,0.818,0.491,-0.430,-0.758,2519.39,0.671,-6.155,-2.686,0.476,-0.778,0.409,-0.307,0.425,-0.852,2492.03,-0.336,1.679,-5.595,-0.398,0.161,0.903,0.561,0.142,0.815,10.840,4.305,9.893,5.802,0.793,0.500,0.349,10.437,-8.763,7.786,-6.229,none
3.037342,0.619,0.168,-0.767,2452.13,3.693,1.902,-7.274,0.315,-0.452,0.835,0.721,-0.092,-0.687,2461.23,4.924,2.238,-9.736,0.029,-0.580,0.814,0.491,-0.413,-0.767,2500.68,-7.162,0.336,-3.133,0.476,-0.781,0.403,-0.311,0.430,-0.847,2481.66,-8.281,1.790,-8.729,-0.400,0.156,0.903,0.530,0.150,0.835,10.843,15.511,3.740,23.389,0.857,0.444,0.261,10.344,1.771,10.458,6.214,none
3.037438,0.590,0.250,-0.768,2505.10,1.343,1.119,-17.010,0.321,-0.507,0.800,0.695,0.032,-0.718,2452.39,-1.790,-2.574,-18.688,0.032,-0.588,0.808,0.488,-0.377,-0.788,2536.95,-6.155,6.938,-8.393,0.475,-0.780,0.407,-0.310,0.480,-0.821,2490.68,-16.786,4.812,-12.645,-0.401,0.153,0.903,0.418,0.175,0.891,11.054,18.611,4.031,22.779,0.801,0.501,0.327,10.396,12.687,11.084,11.267,none
3.038629,0.641,0.126,-0.757,2411.05,13.988,4.364,-24.395,0.275,-0.495,0.824,0.716,-0.127,-0.686,2392.98,12.533,-2.910,-26.298,0.046,-0.599,0.800,0.467,-0.415,-0.781,2396.89,-1.679,3.021,-15.555,0.483,-0.770,0.416,-0.310,0.502,-0.807,2496.05,-15.331,4.364,-16.786,-0.395,0.149,0.906,0.397,0.179,0.900,11.098,14.336,5.756,12.611,0.719,0.555,0.417,10.313,6.748,6.855,6.061,none
3.038756,0.661,0.036,-0.750,2473.52,10.631,2.798,-16.226,0.272,-0.508,0.817,0.731,-0.200,-0.653,2456.16,5.595,-0.560,-15.555,0.067,-0.604,0.794,0.419,-0.495,-0.761,2507.29,0.000,2.798,-3.581,0.486,-0.760,0.432,-0.310,0.464,-0.829,2489.60,-2.798,0.783,-7.722,-0.385,0.142,0.912,0.382,0.161,0.910,11.045,10.672,6.656,4.046,0.703,0.556,0.444,10.317,-1.740,0.351,-0.718,none
3.041900,0.662,-0.004,-0.749,2394.56,11.862,4.700,-4.029,0.242,-0.510,0.826,0.731,-0.236,-0.640,2533.45,-6.938,1.343,-4.588,0.073,-0.613,0.786,0.419,-0.520,-0.744,2459.21,-0.224,1.902,0.560,0.487,-0.756,0.437,-0.305,0.356,-0.883,2471.88,20.255,-2.014,2.350,-0.385,0.144,0.912,0.450,0.164,0.878,10.959,8.840,-10.687,0.611,0.756,0.529,0.386,10.256,-1.710,-9.160,2.733,none
3.066183,0.635,0.132,-0.761,2450.24,-14.995,-2.350,-7.386,0.256,-0.491,0.833,0.728,-0.117,-0.675,2503.85,-8.505,-0.895,-10.631,0.066,-0.614,0.786,0.475,-0.449,-0.757,2521.33,-10.855,9.064,-0.112,0.486,-0.750,0.448,-0.309,0.448,-0.839,2472.81,12.645,-8.505,7.833,-0.387,0.149,0.910,0.414,0.169,0.894,11.107,3.893,-8.351,-5.099,0.729,0.541,0.420,10.711,-6.687,-14.656,1.267,none
3.088895,0.636,0.124,-0.762,2368.95,-8.057,-3.133,0.895,0.260,-0.509,0.820,0.718,-0.037,-0.696,2402.57,-4.476,-2.126,-0.112,0.059,-0.621,0.782,0.482,-0.428,-0.765,2485.75,-14.212,4.364,-1.231,0.484,-0.753,0.446,-0.308,0.474,-0.825,2478.36,2.574,-3.469,9.176,-0.386,0.148,0.911,0.338,0.170,0.926,11.272,-10.366,6.794,-26.550,0.629,0.583,0.514,10.653,-30.260,-11.008,-14.244,none
3.111217,0.665,-0.013,-0.747,2325.55,-1.679,-1.455,11.862,0.231,-0.522,0.821,0.725,-0.238,-0.647,2555.13,-11.079,-2.014,9.176,0.053,-0.604,0.796,0.465,-0.471,-0.750,2427.18,-10.631,-0.560,4.588,0.484,-0.749,0.452,-0.313,0.409,-0.857,2440.93,21.710,0.671,13.541,-0.390,0.153,0.908,0.426,0.171,0.888,10.906,-18.885,-0.183,-37.878,0.693,0.563,0.450,10.323,-51.679,-21.771,-23.618,none
3.132343,0.655,0.094,-0.750,2406.00,-17.010,1.119,20.479,0.275,-0.495,0.824,0.713,-0.258,-0.652,2625.64,13.653,-1.231,1.231,0.058,-0.598,0.799,0.488,-0.422,-0.764,2474.89,-21.822,2.686,1.455,0.480,-0.756,0.444,-0.292,0.408,-0.865,2475.97,16.674,2.910,17.010,-0.397,0.162,0.903,0.470,0.164,0.867,10.906,-15.023,-3.511,-32.687,0.792,0.511,0.334,10.281,-49.527,-19.313,-22.733,none
3.550908,0.658,0.088,-0.748,2348.64,-5.707,4.588,29.207,0.296,-0.445,0.845,0.728,-0.105,-0.678,2438.19,7.610,-3.245,5.260,0.052,-0.592,0.804,0.497,-0.406,-0.767,2451.11,-21.710,0.224,0.224,0.476,-0.761,0.441,-0.305,0.428,-0.851,2471.09,7.162,4.364,17.569,-0.408,0.175,0.896,0.492,0.158,0.856,10.910,-17.573,-2.168,-32.473,0.821,0.484,0.302,10.291,-40.443,-18.092,-14.260,none
3.554653,0.622,0.208,-0.755,2456.19,-12.533,3.245,24.395,0.282,-0.471,0.836,0.715,-0.044,-0.697,2453.41,9.624,-2.350,7.498,0.043,-0.583,0.811,0.506,-0.362,-0.782,2502.34,-33.236,1.343,-1.679,0.476,-0.769,0.427,-0.303,0.449,-0.841,2488.06,5.931,3.693,17.793,-0.400,0.169,0.901,0.567,0.142,0.811,11.017,-16.794,-0.901,-28.031,0.873,0.432,0.227,10.538,-26.076,-14.519,-5.267,none
3.554812,0.583,0.323,-0.746,2551.45,-8.729,5.483,15.219,0.295,-0.484,0.824,0.689,0.063,-0.722,2503.82,3.805,-3.581,1.007,0.043,-0.577,0.815,0.530,-0.340,-0.777,2407.11,-20.814,3.917,0.000,0.469,-0.777,0.419,-0.291,0.474,-0.831,2518.58,6.379,3.693,12.981,-0.411,0.178,0.894,0.668,0.149,0.729,11.406,-6.748,5.954,-11.969,0.831,0.472,0.295,10.773,-9.466,3.420,-2.244,none
3.554924,0.611,0.288,-0.737,2514.41,-5.148,3.581,-2.798,0.284,-0.492,0.823,0.708,-0.110,-0.698,2507.03,25.179,2.686,2.686,0.044,-0.571,0.819,0.516,-0.359,-0.778,2416.84,-1.007,0.448,-2.798,0.468,-0.778,0.419,-0.298,0.510,-0.807,2533.44,-5.036,2.126,-4.700,-0.407,0.180,0.896,0.534,0.142,0.834,10.842,-3.847,15.130,-3.740,0.800,0.486,0.353,10.205,-10.168,9.557,-4.702,none
3.555020,0.635,0.139,-0.760,2466.15,15.219,7.945,2.798,0.298,-0.471,0.830,0.719,-0.036,-0.694,2466.28,19.472,-0.560,-2.574,0.036,-0.564,0.825,0.498,-0.418,-0.760,2523.82,7.050,-2.574,5.595,0.470,-0.774,0.424,-0.299,0.449,-0.842,2485.89,-3.021,3.469,-7.386,-0.413,0.181,0.893,0.559,0.142,0.817,10.859,7.878,5.618,15.023,0.829,0.466,0.310,10.350,-1.908,-1.389,5.267,none
3.555112,0.603,0.250,-0.757,2628.90,0.000,0.671,-3.469,0.270,-0.472,0.839,0.724,-0.142,-0.675,2490.94,12.645,0.000,-12.422,0.049,-0.570,0.820,0.504,-0.388,-0.771,2512.32,8.841,2.686,4.252,0.471,-0.776,0.418,-0.293,0.442,-0.848,2503.42,-6.491,5.483,-11.750,-0.412,0.178,0.893,0.536,0.147,0.831,10.948,16.748,3.038,25.588,0.840,0.455,0.295,10.448,11.252,0.611,12.321,none
3.555209,0.594,0.269,-0.758,2472.69,7.386,-1.679,-21.374,0.273,-0.476,0.836,0.678,0.060,-0.732,2441.49,1.007,-2.350,-20.926,0.048,-0.576,0.816,0.526,-0.303,-0.795,2502.02,12.645,11.079,-0.112,0.470,-0.776,0.421,-0.302,0.497,-0.814,2464.09,-23.276,7.610,-18.129,-0.407,0.170,0.897,0.493,0.160,0.855,11.024,20.687,9.435,31.695,0.786,0.508,0.352,10.322,16.153,6.076,13.206,none
3.555358,0.643,0.145,-0.752,2494.53,16.226,1.119,-20.367,0.278,-0.479,0.833,0.709,-0.187,-0.680,2516.35,11.079,-0.783,-16.003,0.064,-0.597,0.800,0.493,-0.368,-0.788,2410.00,17.681,3.133,-0.224,0.471,-0.769,0.433,-0.290,0.487,-0.824,2494.68,-13.988,8.729,-21.598,-0.405,0.160,0.900,0.406,0.163,0.899,10.976,21.802,10.855,29.374,0.731,0.538,0.419,10.282,14.794,7.405,10.137,none
3.555521,0.667,-0.058,-0.743,2524.50,19.695,4.924,-14.100,0.250,-0.499,0.829,0.704,-0.208,-0.679,2690.26,20.255,1.343,-11.079,0.073,-0.605,0.793,0.465,-0.412,-0.784,2511.72,15.779,-2.014,-6.602,0.475,-0.754,0.454,-0.305,0.417,-0.856,2442.61,1.007,7.162,-14.548,-0.396,0.153,0.905,0.427,0.147,0.892,11.046,16.244,6.809,16.336,0.730,0.530,0.432,10.470,7.679,5.481,5.588,none
3.555673,0.645,0.092,-0.758,2457.75,14.772,6.826,-13.876,0.234,-0.508,0.829,0.701,-0.337,-0.629,2673.48,25.515,1.231,-9.848,0.081,-0.621,0.780,0.473,-0.446,-0.760,2407.81,8.057,-3.469,-12.198,0.485,-0.741,0.464,-0.299,0.457,-0.838,2486.55,-7.945,5.483,-14.100,-0.397,0.156,0.904,0.370,0.150,0.917,11.083,13.695,5.450,11.389,0.695,0.551,0.463,10.326,4.427,2.962,3.756,none
3.555854,0.682,-0.085,-0.726,2540.47,13.429,5.371,-9.624,0.193,-0.530,0.826,0.712,-0.336,-0.617,2741.53,22.829,1.567,-8.841,0.083,-0.630,0.772,0.444,-0.501,-0.742,2452.97,5.819,0.895,-7.610,0.491,-0.730,0.476,-0.287,0.419,-0.861,2453.28,0.336,3.245,-5.707,-0.393,0.153,0.907,0.389,0.148,0.909,11.071,8.489,1.649,3.145,0.706,0.549,0.447,10.424,0.260,-2.198,2.672,none
3.555961,0.673,0.004,-0.739,2441.48,6.155,3.021,-7.162,0.193,-0.510,0.838,0.730,-0.259,-0.633,2578.81,-5.595,-0.783,-6.491,0.097,-0.636,0.765,0.471,-0.460,-0.753,2418.66,2.574,4.924,0.112,0.495,-0.723,0.481,-0.282,0.409,-0.868,2468.51,0.336,-0.895,-0.560,-0.393,0.151,0.907,0.441,0.148,0.885,10.956,7.053,-5.496,-0.931,0.752,0.520,0.405,10.278,-3.298,-6.565,2.229,none
3.556091,0.662,0.060,-0.747,2440.66,-9.176,-1.455,-4.364,0.215,-0.524,0.824,0.722,-0.196,-0.663,2549.99,-15.555,-3.581,-6.938,0.102,-0.639,0.763,0.486,-0.428,-0.762,2505.82,-1.455,3.805,-2.686,0.494,-0.721,0.485,-0.299,0.477,-0.827,2486.12,-2.126,-3.469,2.910,-0.396,0.151,0.906,0.465,0.148,0.873,11.018,5.740,-4.504,-1.328,0.770,0.512,0.382,10.372,-4.183,-7.664,1.374,none
3.556225,0.642,0.124,-0.756,2453.00,-3.021,-0.112,-2.350,0.203,-0.539,0.817,0.720,-0.129,-0.682,2436.67,-9.176,-1.343,-5.148,0.104,-0.646,0.756,0.504,-0.401,-0.765,2432.23,1.455,2.238,-0.560,0.494,-0.718,0.490,-0.296,0.474,-0.829,2478.39,-1.790,-2.350,1.902,-0.392,0.148,0.908,0.462,0.156,0.873,11.005,4.473,-2.840,-1.115,0.767,0.516,0.382,10.315,-5.878,-6.427,0.748,none
3.556363,0.651,0.104,-0.752,2451.40,-1.567,-0.224,0.336,0.173,-0.507,0.844,0.723,-0.117,-0.681,2441.04,-3.581,0.448,-2.462,0.107,-0.640,0.761,0.477,-0.434,-0.765,2472.07,5.707,2.798,3.693,0.496,-0.717,0.490,-0.298,0.455,-0.839,2494.09,1.343,-4.029,1.902,-0.394,0.147,0.907,0.446,0.152,0.882,10.976,5.053,-4.916,-2.687,0.742,0.529,0.411,10.117,-6.656,-16.824,3.282,none
3.556475,0.660,0.048,-0.750,2447.27,-1.567,0.112,0.783,0.195,-0.505,0.841,0.718,-0.205,-0.665,2485.04,-8.281,-0.783,1.679,0.109,-0.644,0.757,0.462,-0.455,-0.761,2507.57,4.364,1.567,2.574,0.492,-0.719,0.491,-0.308,0.450,-0.839,2482.72,9.176,-5.483,6.043,-0.396,0.154,0.905,0.415,0.140,0.899,11.023,3.786,-2.824,-6.473,0.726,0.534,0.433,10.445,-6.794,-27.847,-1.939,none
3.556614,0.655,0.043,-0.754,2509.51,-5.371,-0.671,10.183,0.191,-0.504,0.842,0.725,-0.155,-0.671,2475.35,-10.407,0.783,9.512,0.097,-0.639,0.763,0.484,-0.458,-0.746,2494.60,-0.224,-0.224,5.483,0.489,-0.722,0.489,-0.305,0.436,-0.847,2471.66,9.400,-5.260,7.945,-0.393,0.153,0.907,0.477,0.141,0.867,10.925,-0.992,-2.305,-13.878,0.761,0.513,0.397,10.442,-12.198,-16.260,-5.359,none
3.563326,0.647,0.099,-0.756,2465.47,-8.057,-2.014,8.617,0.204,-0.516,0.832,0.720,-0.147,-0.678,2464.68,-5.260,1.790,9.512,0.093,-0.635,0.767,0.484,-0.473,-0.736,2515.59,-1.119,0.783,5.483,0.488,-0.726,0.484,-0.308,0.451,-0.838,2476.85,6.826,-4.141,7.722,-0.396,0.155,0.905,0.466,0.140,0.874,10.859,2.290,-6.366,-6.611,0.808,0.482,0.338,10.339,-12.840,-12.901,-3.664,none
3.563481,0.619,0.239,-0.748,2465.32,-10.183,-3.245,5.036,0.204,-0.516,0.832,0.714,0.012,-0.700,2499.20,-12.869,-1.567,4.924,0.079,-0.631,0.772,0.533,-0.372,-0.759,2540.08,-4.364,2.798,2.126,0.486,-0.729,0.482,-0.296,0.421,-0.857,2511.63,-0.336,-3.133,7.498,-0.396,0.157,0.905,0.510,0.150,0.847,11.028,5.328,-1.969,-1.282,0.819,0.482,0.313,10.474,-7.466,-10.580,-0.504,none
3.563610,0.628,0.211,-0.749,2461.67,0.112,0.000,0.895,0.212,-0.483,0.849,0.708,-0.008,-0.706,2450.21,-2.350,-0.560,1.343,0.085,-0.637,0.766,0.535,-0.362,-0.763,2477.12,-3.693,1.343,-2.574,0.481,-0.735,0.478,-0.293,0.487,-0.823,2473.34,-6.714,0.336,1.119,-0.396,0.155,0.905,0.495,0.149,0.856,11.083,4.504,7.939,-1.160,0.788,0.504,0.354,10.421,-6.687,-2.901,-2.443,none
3.572398,0.645,0.143,-0.750,2471.02,6.379,0.783,3.021,0.225,-0.495,0.839,0.718,-0.127,-0.684,2470.86,11.526,1.902,5.483,0.077,-0.630,0.773,0.513,-0.402,-0.759,2452.26,2.350,-3.245,-3.917,0.482,-0.736,0.475,-0.301,0.470,-0.830,2500.95,-3.021,1.790,-3.133,-0.397,0.149,0.906,0.498,0.138,0.856,10.900,5.740,6.458,1.023,0.784,0.502,0.365,10.380,-6.656,1.267,-3.542,none
3.596261,0.636,0.161,-0.755,2430.50,1.902,0.560,-0.783,0.192,-0.518,0.834,0.725,-0.113,-0.680,2529.73,8.841,2.462,3.917,0.086,-0.629,0.772,0.515,-0.402,-0.757,2497.18,-4.364,2.798,0.448,0.481,-0.741,0.469,-0.302,0.431,-0.850,2496.26,0.448,1.902,-4.364,-0.396,0.153,0.905,0.503,0.139,0.853,11.004,12.412,-0.397,10.427,0.817,0.473,0.331,10.258,-4.229,10.473,-1.481,none
3.619025,0.627,0.187,-0.756,2465.18,3.805,1.679,-6.938,0.222,-0.515,0.828,0.714,-0.103,-0.692,2484.76,7.610,1.343,-6.267,0.076,-0.624,0.778,0.520,-0.371,-0.769,2471.16,-4.029,11.526,1.343,0.482,-0.742,0.465,-0.305,0.448,-0.840,2468.89,-12.645,4.700,-9.064,-0.392,0.148,0.908,0.491,0.146,0.859,10.955,14.275,-0.855,14.992,0.832,0.466,0.301,10.377,7.145,8.489,8.260,none
3.642118,0.603,0.284,-0.746,2419.58,7.050,2.014,-16.674,0.224,-0.515,0.827,0.708,-0.041,-0.705,2397.69,11.974,-0.671,-21.822,0.092,-0.625,0.775,0.520,-0.353,-0.778,2453.64,-1.007,9.512,-10.519,0.484,-0.738,0.470,-0.301,0.505,-0.809,2503.37,-17.122,5.819,-12.981,-0.393,0.150,0.907,0.508,0.156,0.847,10.992,16.015,3.695,17.221,0.782,0.508,0.360,10.287,10.809,8.779,9.389,none
4.055718,0.650,0.095,-0.754,2485.02,13.876,5.148,-19.136,0.172,-0.496,0.851,0.703,-0.205,-0.681,2482.16,17.457,-0.448,-19.472,0.118,-0.643,0.756,0.469,-0.439,-0.766,2491.08,8.952,4.029,-11.079,0.490,-0.723,0.487,-0.300,0.523,-0.798,2512.47,-13.205,6.491,-15.443,-0.389,0.139,0.911,0.384,0.154,0.910,11.134,15.267,7.664,12.504,0.732,0.536,0.420,10.263,6.824,8.000,4.534,none
4.063389,0.667,0.044,-0.744,2437.76,8.281,3.133,-12.310,0.156,-0.548,0.822,0.723,-0.270,-0.636,2506.58,11.862,0.000,-12.533,0.128,-0.649,0.750,0.459,-0.492,-0.740,2501.12,10.295,0.783,-4.700,0.495,-0.711,0.499,-0.303,0.474,-0.827,2520.04,-0.112,5.483,-12.086,-0.389,0.143,0.910,0.426,0.142,0.893,10.968,10.672,7.237,4.015,0.729,0.530,0.433,10.384,1.374,2.779,0.962,none
4.063594,0.667,0.008,-0.745,2436.23,7.945,3.357,-5.931,0.159,-0.566,0.809,0.730,-0.240,-0.640,2535.83,6.826,0.895,-6.714,0.142,-0.659,0.738,0.457,-0.516,-0.724,2555.36,8.841,1.567,-1.119,0.500,-0.703,0.506,-0.300,0.427,-0.853,2477.43,7.050,2.126,-5.036,-0.383,0.142,0.913,0.391,0.143,0.909,10.965,9.099,2.947,3.053,0.726,0.534,0.433,10.261,-2.244,-1.328,0.153,none
4.063772,0.666,0.056,-0.744,2439.26,2.126,1.567,-2.574,0.163,-0.576,0.801,0.744,-0.182,-0.643,2477.44,-1.455,-0.783,-3.805,0.136,-0.662,0.737,0.484,-0.481,-0.731,2517.07,-0.783,0.671,-1.007,0.502,-0.697,0.512,-0.290,0.431,-0.854,2496.76,-2.350,-0.336,-0.560,-0.384,0.141,0.913,0.445,0.150,0.883,10.936,6.992,-5.130,-0.779,0.760,0.517,0.395,10.306,-3.405,-7.328,1.817,none
4.063970,0.645,0.144,-0.751,2444.51,-2.014,0.112,-2.574,0.123,-0.547,0.828,0.725,-0.092,-0.683,2448.25,-12.310,-4.141,-6.379,0.138,-0.659,0.740,0.512,-0.420,-0.749,2509.80,-9.288,1.567,-5.148,0.500,-0.695,0.517,-0.296,0.467,-0.833,2477.76,-7.162,-1.231,2.014,-0.386,0.140,0.912,0.470,0.152,0.869,11.010,5.817,-4.504,-0.702,0.776,0.509,0.373,10.379,-4.855,-6.427,1.084,none
4.064129,0.642,0.145,-0.753,2438.07,-0.783,-0.336,-0.336,0.142,-0.542,0.829,0.716,-0.105,-0.690,2436.35,-5.707,-1.231,-2.126,0.145,-0.663,0.734,0.507,-0.408,-0.759,2437.76,-7.945,0.895,-4.252,0.503,-0.695,0.514,-0.299,0.485,-0.822,2486.66,-1.455,0.224,0.560,-0.384,0.146,0.912,0.462,0.153,0.874,10.915,5.328,0.794,-1.634,0.770,0.514,0.379,10.339,-6.901,-4.458,-0.656,none
4.064274,0.646,0.132,-0.752,2453.58,0.000,-0.112,2.126,0.155,-0.546,0.824,0.727,-0.119,-0.677,2469.96,0.671,1.343,1.007,0.141,-0.662,0.736,0.502,-0.423,-0.754,2465.71,0.112,0.783,2.238,0.502,-0.695,0.515,-0.302,0.449,-0.841,2466.70,4.364,-0.783,0.448,-0.388,0.143,0.910,0.466,0.145,0.873,10.942,5.618,0.748,-1.863,0.770,0.509,0.384,10.310,-6.901,-5.374,-0.092,none
4.064409,0.644,0.124,-0.754,2445.45,-2.014,-1.007,1.007,0.175,-0.554,0.814,0.724,-0.146,-0.674,2478.40,-2.686,0.448,0.112,0.139,-0.664,0.735,0.503,-0.421,-0.755,2478.27,2.686,1.231,2.350,0.503,-0.693,0.517,-0.300,0.446,-0.843,2481.86,3.469,-2.350,1.007,-0.387,0.141,0.911,0.466,0.147,0.872,10.997,5.130,-1.008,-2.458,0.752,0.523,0.401,10.180,-6.992,-14.397,0.336,none
4.064565,0.658,0.055,-0.751,2469.15,2.014,0.112,3.581,0.147,-0.538,0.830,0.717,-0.216,-0.663,2505.17,0.448,0.224,2.798,0.139,-0.669,0.730,0.489,-0.443,-0.751,2489.38,3.805,-2.014,-0.224,0.502,-0.695,0.515,-0.309,0.460,-0.832,2469.25,-0.224,-3.357,1.790,-0.386,0.144,0.911,0.471,0.141,0.871,10.981,5.053,-2.366,-2.214,0.784,0.499,0.369,10.399,-6.519,-16.672,-0.916,none
4.064719,0.633,0.169,-0.755,2441.35,-3.805,-1.343,4.364,0.149,-0.541,0.828,0.721,-0.096,-0.687,2462.89,-2.014,-0.448,5.707,0.134,-0.662,0.738,0.520,-0.398,-0.756,2474.05,1.790,-2.910,0.000,0.502,-0.695,0.515,-0.307,0.460,-0.833,2489.68,4.588,-0.783,2.238,-0.385,0.141,0.912,0.471,0.142,0.870,10.978,5.282,1.817,-1.939,0.788,0.496,0.364,10.410,-6.427,-9.405,-2.015,none
4.064851,0.639,0.177,-0.749,2435.95,0.560,0.112,3.469,0.134,-0.554,0.822,0.737,-0.063,-0.673,2338.40,9.736,2.462,4.588,0.134,-0.664,0.735,0.523,-0.402,-0.751,2476.48,1.343,-1.007,1.455,0.500,-0.698,0.513,-0.303,0.451,-0.839,2517.73,0.000,0.560,0.224,-0.386,0.146,0.911,0.459,0.145,0.877,10.953,5.359,3.267,-2.382,0.778,0.507,0.372,10.352,-6.244,-3.985,-2.275,none
4.064966,0.647,0.124,-0.752,2451.15,2.798,1.007,2.126,0.159,-0.533,0.831,0.729,-0.091,-0.678,2363.99,37.600,2.462,18.464,0.123,-0.655,0.745,0.505,-0.423,-0.753,2470.74,0.224,0.895,1.343,0.499,-0.697,0.515,-0.305,0.445,-0.842,2507.93,0.112,-0.448,0.112,-0.387,0.142,0.911,0.461,0.144,0.876,10.958,6.153,0.763,-2.489,0.777,0.506,0.374,10.348,-5.588,-3.863,-1.939,none
4.065070,0.645,0.137,-0.752,2426.98,3.357,1.679,2.462,0.157,-0.541,0.826,0.728,-0.166,-0.666,2304.82,41.629,1.119,24.060,0.115,-0.648,0.753,0.506,-0.419,-0.754,2466.53,-1.231,2.462,0.448,0.499,-0.696,0.517,-0.297,0.448,-0.843,2469.60,3.581,-0.112,1.567,-0.387,0.143,0.911,0.467,0.149,0.872,10.986,6.412,-0.611,-2.321,0.775,0.510,0.374,10.351,-5.252,-3.924,-1.603,none
4.066529,0.650,0.119,-0.751,2469.77,7.386,2.014,2.574,0.156,-0.548,0.822,0.713,-0.226,-0.664,2473.93,39.055,-1.902,22.605,0.105,-0.639,0.762,0.518,-0.417,-0.747,2503.29,-4.924,1.119,-3.357,0.498,-0.696,0.517,-0.283,0.442,-0.851,2458.71,-0.783,-0.895,1.007,-0.386,0.142,0.912,0.463,0.153,0.873,11.010,4.824,-0.748,-1.450,0.771,0.515,0.374,10.328,-6.244,-5.725,-0.046,none
4.066646,0.655,0.111,-0.748,2467.25,5.483,-0.112,1.679,0.131,-0.547,0.827,0.719,-0.229,-0.656,2576.82,7.050,-4.029,10.855,0.092,-0.639,0.763,0.515,-0.413,-0.751,2477.92,-4.252,-0.224,-3.693,0.497,-0.697,0.516,-0.290,0.457,-0.841,2465.88,-4.924,-4.252,0.560,-0.387,0.145,0.911,0.456,0.153,0.877,10.951,3.725,-1.359,-1.954,0.773,0.514,0.373,10.341,-8.061,-7.924,1.389,none
4.066810,0.647,0.106,-0.755,2482.21,1.231,-4.700,2.126,0.154,-0.540,0.827,0.772,-0.214,-0.599,1840.50,-19.024,-10.631,-2.798,0.104,-0.643,0.759,0.506,-0.417,-0.755,2503.46,-4.364,-1.343,-2.462,0.500,-0.696,0.515,-0.325,0.469,-0.821,2526.14,-6.043,-8.505,0.448,-0.392,0.146,0.908,0.464,0.147,0.874,10.978,4.763,0.092,-2.550,0.771,0.515,0.375,10.386,-8.809,-5.863,-0.870,none
4.066958,0.641,0.113,-0.760,2429.04,-1.231,-3.581,0.783,0.156,-0.549,0.821,0.702,-0.134,-0.700,2711.42,-20.814,-6.491,-1.790,0.116,-0.653,0.748,0.507,-0.422,-0.752,2500.12,1.007,-0.895,0.895,0.500,-0.697,0.515,-0.323,0.459,-0.827,2516.35,-0.783,-4.700,0.224,-0.386,0.142,0.911,0.446,0.151,0.882,10.947,7.206,0.183,-2.427,0.761,0.522,0.386,10.257,-7.908,-5.695,-3.069,none
4.068358,0.659,0.056,-0.750,2434.22,-1.231,-2.238,3.245,0.166,-0.540,0.825,0.680,-0.270,-0.682,3055.48,6.491,-10.631,12.198,0.128,-0.651,0.748,0.501,-0.422,-0.756,2449.67,4.252,-4.364,-2.126,0.498,-0.698,0.514,-0.305,0.445,-0.842,2440.93,2.126,-1.790,0.671,-0.384,0.140,0.913,0.444,0.156,0.882,10.954,7.359,-4.107,-2.611,0.768,0.519,0.375,10.330,-7.389,-6.519,-0.702,none
4.068526,0.656,0.112,-0.746,2445.76,-8.729,-4.029,1.679,0.178,-0.541,0.822,0.686,-0.219,-0.694,3087.47,6.379,-38.943,33.572,0.149,-0.656,0.740,0.520,-0.414,-0.748,2474.85,3.133,-3.357,-2.238,0.499,-0.699,0.512,-0.293,0.461,-0.838,2508.68,0.671,-1.455,1.567,-0.389,0.147,0.910,0.449,0.162,0.879,11.016,6.061,-0.122,-4.244,0.760,0.530,0.376,10.297,-6.992,-6.198,-1.817,none
4.068636,0.666,0.100,-0.739,2441.04,-8.393,-2.798,2.238,0.183,-0.554,0.812,0.744,-0.193,-0.640,2290.24,2.350,-42.860,41.741,0.200,-0.656,0.728,0.514,-0.467,-0.719,2464.94,6.267,-1.007,0.448,0.501,-0.701,0.508,-0.297,0.455,-0.839,2472.30,2.910,-1.119,1.567,-0.393,0.154,0.906,0.451,0.163,0.877,10.969,5.237,-0.885,-5.130,0.761,0.530,0.373,10.335,-7.679,-7.969,-2.061,none
4.089123,0.657,0.128,-0.743,2442.99,-10.295,-3.021,3.357,0.204,-0.543,0.815,0.787,-0.170,-0.593,1678.97,-12.869,-12.198,20.814,0.218,-0.659,0.720,0.537,-0.414,-0.735,2450.97,2.238,5.819,7.945,0.505,-0.704,0.500,-0.292,0.458,-0.840,2480.64,2.462,0.224,2.238,-0.392,0.148,0.908,0.466,0.172,0.868,10.929,5.771,0.137,-2.046,0.771,0.527,0.357,10.327,-8.076,-5.298,-0.901,none
4.117125,0.654,0.157,-0.740,2438.11,-8.729,-4.364,2.574,0.212,-0.559,0.802,0.728,-0.215,-0.651,2235.72,-38.496,23.500,2.350,0.205,-0.643,0.738,0.531,-0.429,-0.731,2477.48,7.722,8.952,10.519,0.500,-0.712,0.493,-0.283,0.456,-0.844,2491.17,-0.224,3.021,0.560,-0.396,0.147,0.906,0.437,0.171,0.883,10.941,3.969,-0.687,-5.099,0.755,0.536,0.379,10.337,-9.008,-8.153,-0.855,none
4.140037,0.665,0.112,-0.739,2444.12,-5.707,-4.812,6.491,0.241,-0.544,0.804,0.690,-0.180,-0.701,2998.47,-45.098,22.605,9.064,0.170,-0.645,0.746,0.512,-0.439,-0.738,2491.67,2.350,7.050,9.624,0.501,-0.724,0.474,-0.263,0.462,-0.847,2459.00,-1.567,3.469,2.910,-0.402,0.150,0.903,0.437,0.177,0.882,10.959,2.229,-4.412,-6.214,0.760,0.535,0.368,10.329,-10.687,-11.573,-0.305,none
4.162113,0.666,0.110,-0.738,2499.60,-8.952,-5.260,5.371,0.276,-0.568,0.775,0.704,-0.144,-0.695,2784.82,-39.055,-4.700,24.172,0.153,-0.626,0.764,0.537,-0.424,-0.729,2484.52,-1.455,6.938,8.505,0.500,-0.736,0.455,-0.265,0.453,-0.851,2505.62,2.238,-0.336,4.924,-0.405,0.154,0.901,0.460,0.175,0.871,10.947,2.214,-5.145,-6.397,0.774,0.528,0.349,10.302,-10.305,-10.824,-0.366,none
4.566263,0.663,0.152,-0.733,2449.70,-12.645,-5.819,3.245,0.298,-0.570,0.766,0.737,-0.093,-0.669,2204.98,-34.467,-1.567,19.472,0.164,-0.622,0.766,0.547,-0.425,-0.721,2457.43,-1.790,6.714,6.938,0.502,-0.756,0.420,-0.273,0.459,-0.846,2475.23,-4.476,0.112,4.700,-0.412,0.153,0.898,0.443,0.172,0.880,10.935,1.466,-6.244,-6.962,0.772,0.525,0.357,10.310,-9.939,-9.496,1.405,none
4.568827,0.657,0.139,-0.741,2474.23,-12.310,-6.491,2.126,0.321,-0.558,0.765,0.731,-0.146,-0.667,2226.51,-34.131,7.945,15.107,0.159,-0.609,0.777,0.542,-0.417,-0.730,2481.51,-2.126,6.379,6.379,0.507,-0.767,0.394,-0.276,0.467,-0.840,2477.96,-2.798,0.895,5.036,-0.416,0.155,0.896,0.509,0.161,0.845,10.962,2.198,-3.771,-2.885,0.788,0.505,0.351,10.403,-11.252,-10.290,2.397,none
4.569051,0.635,0.172,-0.753,2449.23,-13.317,-9.624,4.252,0.365,-0.554,0.749,0.696,-0.115,-0.709,2564.73,-39.167,10.519,18.800,0.163,-0.606,0.779,0.538,-0.416,-0.733,2482.70,-2.014,5.483,6.714,0.506,-0.784,0.360,-0.288,0.469,-0.835,2484.40,-1.679,1.343,3.693,-0.422,0.158,0.893,0.494,0.152,0.856,10.946,5.542,-1.328,2.397,0.792,0.497,0.354,10.367,-10.977,-6.427,2.580,none
4.569204,0.626,0.177,-0.760,2441.01,-9.176,-8.952,4.252,0.410,-0.568,0.714,0.699,0.022,-0.714,2256.33,-36.146,5.595,21.374,0.166,-0.599,0.783,0.519,-0.413,-0.749,2458.04,-2.238,3.021,4.476,0.505,-0.797,0.330,-0.293,0.456,-0.840,2469.35,-2.014,3.357,1.231,-0.427,0.160,0.890,0.448,0.150,0.881,10.983,6.794,1.893,4.580,0.775,0.501,0.386,10.347,-11.847,-4.824,2.489,none
4.569353,0.633,0.164,-0.757,2396.99,-7.162,-7.386,3.581,0.466,-0.555,0.689,0.660,-0.082,-0.747,2971.54,-19.919,12.757,6.714,0.167,-0.588,0.791,0.507,-0.440,-0.742,2440.82,2.574,-0.560,3.469,0.504,-0.812,0.294,-0.296,0.454,-0.840,2478.18,0.336,3.133,2.462,-0.435,0.166,0.885,0.449,0.139,0.883,11.017,4.748,0.656,0.580,0.780,0.498,0.380,10.356,-12.687,-2.656,1.573,none
4.569497,0.636,0.124,-0.761,2461.03,-5.148,-6.826,3.469,0.476,-0.590,0.652,0.711,-0.267,-0.650,2315.07,-5.148,-5.931,3.581,0.168,-0.584,0.794,0.490,-0.440,-0.753,2484.97,3.469,-3.693,0.783,0.507,-0.821,0.262,-0.311,0.455,-0.835,2519.73,1.790,-0.448,2.574,-0.433,0.160,0.887,0.464,0.118,0.878,10.975,2.366,-1.282,-3.160,0.779,0.479,0.405,10.233,-10.580,-6.260,2.519,none
4.569649,0.595,0.108,-0.797,2451.46,-6.826,-5.036,0.783,0.509,-0.592,0.625,0.693,-0.171,-0.700,2304.31,-27.417,1.679,-0.895,0.194,-0.571,0.798,0.475,-0.448,-0.758,2482.42,0.783,-2.686,-0.448,0.514,-0.822,0.246,-0.342,0.441,-0.830,2487.85,1.231,-1.679,4.812,-0.440,0.166,0.882,0.470,0.107,0.876,10.983,0.092,-0.977,-2.565,0.790,0.468,0.397,10.337,-10.931,-8.855,2.962,none
4.569800,0.605,0.141,-0.784,2426.99,-7.610,-5.371,1.343,0.542,-0.600,0.589,0.667,-0.055,-0.743,2513.45,-22.941,8.281,-15.779,0.207,-0.561,0.801,0.482,-0.436,-0.760,2486.76,0.336,-6.043,-3.581,0.511,-0.827,0.232,-0.326,0.444,-0.835,2494.22,-2.126,-2.014,4.588,-0.447,0.170,0.878,0.445,0.119,0.888,11.011,-0.153,-2.336,-4.855,0.779,0.480,0.402,10.332,-9.237,-7.557,2.275,none
4.569923,0.619,0.120,-0.776,2451.35,-5.148,-2.574,-0.336,0.574,-0.567,0.591,0.677,-0.152,-0.720,2648.18,-12.869,4.141,-15.107,0.217,-0.555,0.803,0.473,-0.435,-0.766,2490.95,-2.238,0.224,-0.560,0.514,-0.835,0.197,-0.318,0.454,-0.832,2525.18,-4.476,-4.700,4.700,-0.443,0.165,0.881,0.446,0.119,0.887,10.944,-3.481,-3.679,-10.992,0.768,0.491,0.411,10.286,-7.740,-13.298,1.710,none
4.570040,0.613,0.101,-0.784,2426.68,-8.952,-0.224,-1.343,0.605,-0.553,0.573,0.692,-0.170,-0.702,2423.25,-25.403,4.588,-14.772,0.237,-0.547,0.803,0.467,-0.464,-0.753,2483.40,-3.357,4.029,0.895,0.512,-0.840,0.177,-0.326,0.468,-0.821,2490.49,-0.448,-8.729,8.617,-0.445,0.170,0.879,0.484,0.110,0.868,10.918,-3.542,-6.687,-13.527,0.791,0.465,0.398,10.323,-8.427,-19.344,-0.290,none
4.570167,0.586,0.156,-0.795,2454.40,-9.176,0.448,1.567,0.616,-0.560,0.554,0.683,-0.163,-0.712,2525.50,-30.215,8.169,-14.772,0.245,-0.546,0.801,0.473,-0.423,-0.773,2469.98,-3.357,5.483,5.483,0.509,-0.844,0.170,-0.342,0.456,-0.821,2488.84,4.252,-9.512,10.072,-0.447,0.173,0.878,0.518,0.109,0.849,10.965,-1.649,-8.779,-10.947,0.802,0.461,0.379,10.314,-9.221,-19.679,-1.130,none
4.570299,0.589,0.161,-0.792,2427.68,-7.162,0.560,3.245,0.628,-0.561,0.539,0.698,-0.126,-0.705,2414.21,-41.293,8.617,-17.905,0.275,-0.550,0.789,0.482,-0.411,-0.774,2466.54,0.560,5.707,7.050,0.508,-0.846,0.163,-0.336,0.462,-0.821,2502.84,3.693,-9.400,9.512,-0.448,0.178,0.876,0.468,0.113,0.876,10.943,-2.061,-6.595,-11.863,0.799,0.470,0.375,10.337,-9.420,-19.969,-2.977,none
4.570413,0.618,0.125,-0.776,2438.63,-8.169,1.455,3.693,0.642,-0.543,0.541,0.737,-0.058,-0.673,2366.79,-54.051,13.317,-26.634,0.271,-0.543,0.795,0.476,-0.457,-0.752,2476.37,3.133,7.498,9.624,0.509,-0.845,0.161,-0.327,0.483,-0.812,2515.92,3.469,-7.274,10.072,-0.448,0.175,0.877,0.521,0.116,0.846,10.896,-3.420,-7.084,-14.794,0.826,0.451,0.338,10.351,-9.160,-18.916,-3.878,none
4.570527,0.578,0.225,-0.785,2488.10,-19.136,0.336,-0.336,0.659,-0.552,0.510,0.747,0.030,-0.664,2636.93,-73.970,22.941,-52.148,0.279,-0.535,0.797,0.530,-0.357,-0.769,2481.75,6.938,7.162,8.841,0.508,-0.848,0.150,-0.317,0.479,-0.819,2472.63,9.064,-9.400,8.169,-0.446,0.176,0.877,0.538,0.129,0.833,11.039,0.763,-2.962,-7.618,0.843,0.448,0.297,10.406,-6.061,-13.496,-1.924,none
4.570642,0.595,0.233,-0.769,2484.82,-17.010,-0.895,-4.700,0.643,-0.533,0.550,0.783,0.049,-0.621,2819.17,-89.637,45.546,-103.849,0.297,-0.536,0.790,0.546,-0.351,-0.761,2445.75,14.883,2.910,3.133,0.509,-0.845,0.162,-0.299,0.472,-0.829,2488.83,4.029,-8.169,3.469,-0.451,0.180,0.874,0.484,0.136,0.864,10.997,-1.603,1.176,-9.588,0.795,0.495,0.350,10.298,-5.710,-11.176,-0.641,none
4.570798,0.629,0.170,-0.758,2472.65,-18.688,-3.581,-7.050,0.672,-0.511,0.537,0.720,0.061,-0.691,1906.09,-86.727,55.729,-131.154,0.352,-0.498,0.792,0.512,-0.466,-0.721,2510.93,28.536,1.007,1.567,0.513,-0.841,0.172,-0.315,0.469,-0.825,2488.28,1.790,-8.617,1.902,-0.448,0.180,0.876,0.474,0.149,0.868,10.906,-2.183,-0.031,-9.878,0.801,0.492,0.342,10.474,-7.176,-11.527,1.038,none
4.570934,0.624,0.211,-0.753,2462.92,-21.150,-6.714,-6.602,0.662,-0.547,0.512,0.856,0.193,-0.480,2747.52,-73.522,82.586,-132.161,0.389,-0.497,0.776,0.523,-0.465,-0.715,2479.25,29.096,-2.350,3.245,0.517,-0.838,0.176,-0.300,0.460,-0.836,2515.44,4.476,-10.295,1.119,-0.446,0.178,0.877,0.480,0.146,0.865,10.863,1.603,-1.023,-6.351,0.799,0.493,0.345,10.425,-8.748,-10.504,3.069,none
4.579132,0.632,0.163,-0.758,2461.90,-14.212,-6.826,-5.260,0.662,-0.520,0.540,0.830,0.236,-0.506,2741.07,-110.339,83.146,-127.573,0.445,-0.408,0.797,0.532,-0.449,-0.718,2455.69,20.926,-2.014,1.231,0.521,-0.836,0.176,-0.304,0.453,-0.838,2509.34,-0.560,-7.833,1.231,-0.453,0.189,0.871,0.475,0.135,0.870,10.891,2.931,0.137,-2.427,0.798,0.487,0.356,10.326,-9.084,-9.634,4.504,none
4.579315,0.608,0.173,-0.775,2429.74,-22.157,-6.043,-10.519,0.681,-0.522,0.514,0.561,0.561,-0.608,2812.62,-105.863,48.455,-79.229,0.460,-0.368,0.808,0.504,-0.477,-0.720,2515.43,11.079,-1.007,-3.917,0.520,-0.837,0.172,-0.315,0.452,-0.834,2425.63,-0.895,-4.588,2.350,-0.448,0.186,0.874,0.514,0.139,0.847,10.945,5.634,-2.000,1.282,0.804,0.482,0.348,10.396,-8.382,-8.153,3.313,none
4.584806,0.586,0.267,-0.765,2423.47,-14.436,-4.029,-7.498,0.687,-0.514,0.513,0.545,0.072,-0.835,2857.90,7.833,35.362,-34.019,0.472,-0.348,0.810,0.512,-0.477,-0.714,2494.43,7.945,-2.910,-4.252,0.525,-0.834,0.172,-0.340,0.466,-0.817,2418.29,0.224,-4.364,0.783,-0.449,0.187,0.874,0.469,0.136,0.873,11.051,4.779,0.748,1.756,0.802,0.486,0.347,10.437,-8.107,-4.977,0.595,none
4.608827,0.601,0.251,-0.758,2457.57,0.671,-2.126,1.567,0.667,-0.534,0.520,0.687,0.332,-0.646,2509.37,3.245,4.924,-1.231,0.459,-0.347,0.818,0.516,-0.454,-0.726,2492.98,4.141,-5.260,-1.343,0.520,-0.836,0.173,-0.316,0.480,-0.818,2509.94,0.560,1.343,-2.014,-0.457,0.196,0.868,0.495,0.136,0.858,11.011,7.038,5.954,3.145,0.802,0.483,0.352,10.377,-9.618,-2.229,-3.511,none
4.631159,0.607,0.213,-0.766,2434.82,16.674,2.798,10.519,0.715,-0.490,0.499,0.707,0.059,-0.705,2510.30,53.827,-16.450,81.691,0.450,-0.343,0.824,0.507,-0.469,-0.723,2478.94,-0.448,-7.050,-2.798,0.526,-0.835,0.162,-0.316,0.456,-0.832,2445.43,4.700,4.700,-2.350,-0.450,0.193,0.872,0.461,0.129,0.878,10.931,6.824,6.229,3.145,0.799,0.485,0.356,10.329,-8.824,-1.008,-4.260,none
4.654399,0.614,0.184,-0.767,2452.83,22.493,2.462,11.862,0.693,-0.500,0.519,0.608,0.409,-0.681,2756.53,69.494,-66.696,137.085,0.426,-0.364,0.828,0.497,-0.470,-0.730,2471.15,-10.631,-6.491,-4.924,0.527,-0.833,0.168,-0.305,0.444,-0.843,2471.16,4.476,4.252,-1.790,-0.450,0.188,0.873,0.475,0.128,0.870,10.947,6.977,2.595,2.611,0.800,0.480,0.359,10.350,-6.794,-2.168,-3.374,none
5.076884,0.602,0.189,-0.776,2439.47,15.891,1.455,7.945,0.681,-0.519,0.516,0.654,0.448,-0.609,2758.44,142.904,-91.091,158.794,0.396,-0.398,0.828,0.494,-0.468,-0.733,2483.58,-12.422,-6.938,-7.386,0.522,-0.837,0.167,-0.324,0.475,-0.818,2475.09,0.560,2.462,-1.790,-0.453,0.192,0.870,0.485,0.129,0.865,10.942,7.573,5.008,3.023,0.806,0.473,0.357,10.449,-7.863,1.664,-5.008,none
5.078055,0.596,0.197,-0.779,2431.16,20.143,2.126,10.407,0.667,-0.526,0.528,0.756,0.470,-0.456,1878.50,156.332,-81.691,129.139,0.371,-0.419,0.829,0.492,-0.448,-0.746,2415.58,-12.981,-12.869,-8.169,0.524,-0.836,0.163,-0.321,0.460,-0.828,2470.10,0.224,3.469,-3.469,-0.449,0.192,0.873,0.459,0.128,0.879,10.948,7.954,7.099,2.031,0.793,0.482,0.372,10.327,-8.489,8.397,-5.603,none
5.078225,0.610,0.153,-0.777,2435.78,26.410,2.126,13.876,0.665,-0.511,0.545,0.924,-0.229,-0.306,1324.93,149.506,-29.655,46.777,0.363,-0.456,0.813,0.462,-0.475,-0.749,2444.13,-6.043,-11.862,-2.686,0.528,-0.832,0.171,-0.332,0.458,-0.825,2478.73,8.393,-0.560,-0.560,-0.453,0.192,0.871,0.428,0.124,0.895,11.017,5.618,4.672,1.496,0.753,0.500,0.428,10.127,-9.115,2.198,-3.649,none
5.078344,0.626,-0.008,-0.780,2565.23,29.431,2.126,15.107,0.644,-0.549,0.533,0.794,-0.399,-0.458,2579.55,70.724,39.615,-12.869,0.322,-0.472,0.821,0.430,-0.532,-0.730,2535.29,4.141,-17.010,-3.469,0.533,-0.827,0.176,-0.332,0.450,-0.829,2477.91,13.317,-3.693,5.819,-0.443,0.184,0.877,0.349,0.099,0.932,11.126,-5.359,11.420,-11.252,0.713,0.507,0.485,10.509,-20.687,-4.321,-5.847,none
5.078438,0.636,-0.084,-0.767,2556.70,17.345,-5.819,23.724,0.618,-0.554,0.558,0.815,-0.145,-0.561,2646.61,-28.872,-44.762,57.296,0.275,-0.477,0.835,0.413,-0.572,-0.708,2543.96,3.581,-23.500,2.126,0.536,-0.825,0.179,-0.358,0.380,-0.853,2626.63,19.807,-7.610,11.191,-0.448,0.193,0.873,0.339,0.087,0.937,11.005,-12.260,6.687,-24.672,0.675,0.514,0.529,10.417,-32.351,-10.214,-11.817,none
5.078529,0.619,-0.063,-0.783,2481.77,-3.133,-12.198,32.117,0.656,-0.523,0.543,0.723,-0.298,-0.624,2633.21,39.615,-7.498,40.286,0.265,-0.480,0.836,0.394,-0.629,-0.670,2515.12,-10.407,-13.876,13.764,0.527,-0.833,0.169,-0.337,0.381,-0.861,2465.50,24.507,-6.602,21.598,-0.454,0.200,0.868,0.383,0.102,0.918,11.116,-18.092,-0.260,-33.878,0.705,0.515,0.487,10.327,-42.687,-14.000,-17.588,none
5.078621,0.640,-0.044,-0.767,2445.33,-11.079,-13.653,44.427,0.666,-0.505,0.550,0.769,-0.206,-0.605,2422.19,-1.679,-17.905,51.253,0.246,-0.462,0.852,0.430,-0.546,-0.719,2467.05,-13.093,-7.945,29.207,0.514,-0.846,0.145,-0.329,0.391,-0.859,2528.29,12.869,-6.826,27.641,-0.456,0.201,0.867,0.436,0.108,0.893,11.029,-20.397,-5.786,-40.153,0.756,0.499,0.424,10.288,-45.969,-23.130,-19.954,none
5.078734,0.637,0.032,-0.770,2443.18,-23.836,-11.079,41.517,0.699,-0.483,0.528,0.717,-0.167,-0.677,2585.10,-10.519,-10.967,46.777,0.218,-0.451,0.865,0.476,-0.425,-0.770,2455.32,-25.850,1.902,34.355,0.493,-0.861,0.123,-0.318,0.407,-0.856,2525.04,14.324,-8.617,32.788,-0.460,0.204,0.864,0.512,0.109,0.852,10.917,-17.221,-6.321,-38.916,0.827,0.456,0.329,10.308,-41.038,-24.672,-19.023,none
5.078981,0.589,0.225,-0.776,2439.81,-26.745,-8.057,34.915,0.730,-0.459,0.506,0.716,-0.016,-0.698,2561.64,-2.910,-10.967,34.691,0.209,-0.439,0.874,0.499,-0.408,-0.765,2460.43,-22.493,2.238,26.857,0.475,-0.874,0.098,-0.318,0.440,-0.840,2492.57,18.688,-10.631,30.103,-0.467,0.209,0.859,0.578,0.123,0.807,10.932,-10.046,-3.985,-27.832,0.848,0.445,0.288,10.479,-33.481,-22.153,-16.244,none
5.079137,0.591,0.231,-0.773,2501.01,-14.995,-6.155,31.222,0.755,-0.436,0.490,0.724,-0.063,-0.687,2477.19,1.231,-5.595,21.374,0.190,-0.415,0.890,0.524,-0.288,-0.801,2566.69,-23.053,-2.014,19.024,0.467,-0.881,0.077,-0.297,0.479,-0.826,2474.05,7.833,-6.267,22.605,-0.465,0.209,0.860,0.571,0.133,0.810,11.023,-2.595,-1.206,-15.557,0.880,0.419,0.224,10.580,-23.191,-16.321,-12.107,none
5.079254,0.562,0.351,-0.749,2541.48,-11.974,-2.798,19.919,0.772,-0.455,0.443,0.710,0.024,-0.704,2499.63,-2.574,-0.783,15.443,0.190,-0.423,0.886,0.531,-0.313,-0.787,2550.00,-14.995,-5.260,9.288,0.460,-0.885,0.075,-0.292,0.490,-0.821,2478.23,6.714,-0.112,14.100,-0.467,0.208,0.859,0.550,0.154,0.821,11.035,2.672,6.824,-5.679,0.856,0.455,0.245,10.619,-11.405,-2.168,-7.374,none
5.079365,0.597,0.309,-0.740,2505.47,3.133,1.343,9.960,0.760,-0.468,0.452,0.719,0.100,-0.688,2442.50,3.917,-0.560,5.371,0.186,-0.383,0.905,0.541,-0.350,-0.765,2506.77,-0.783,-3.245,4.588,0.452,-0.890,0.068,-0.257,0.500,-0.827,2509.07,-2.350,6.155,-1.790,-0.467,0.208,0.859,0.499,0.182,0.847,10.983,4.870,11.481,-1.634,0.809,0.508,0.297,10.489,-7.069,8.947,-5.924,none
5.079476,0.655,0.204,-0.728,2451.26,13.653,3.469,5.931,0.750,-0.456,0.479,0.746,-0.032,-0.665,2497.85,18.017,2.686,-2.126,0.158,-0.395,0.905,0.519,-0.414,-0.748,2499.13,-0.336,-2.574,5.595,0.450,-0.890,0.068,-0.233,0.482,-0.845,2523.14,-5.931,6.267,-6.379,-0.462,0.200,0.864,0.447,0.184,0.875,10.939,6.031,11.924,1.053,0.764,0.540,0.353,10.335,-6.611,10.366,-5.084,none
5.079583,0.679,0.095,-0.728,2465.67,16.338,4.588,4.029,0.758,-0.461,0.461,0.770,-0.119,-0.626,2480.58,19.919,1.119,-5.260,0.158,-0.386,0.909,0.506,-0.431,-0.747,2464.60,-1.231,-2.238,2.014,0.449,-0.891,0.067,-0.242,0.450,-0.860,2504.34,-1.343,4.252,-5.707,-0.464,0.192,0.865,0.430,0.152,0.890,10.956,5.313,7.634,0.443,0.760,0.516,0.394,10.296,-7.466,2.962,-2.901,none
5.079704,0.637,0.091,-0.766,2459.40,7.274,0.671,3.805,0.773,-0.433,0.464,0.738,-0.179,-0.651,2523.95,6.043,-1.231,-2.798,0.151,-0.396,0.906,0.482,-0.432,-0.762,2528.90,-7.498,-7.833,-1.455,0.444,-0.894,0.063,-0.297,0.395,-0.869,2475.54,-0.224,5.483,-3.917,-0.465,0.191,0.865,0.495,0.119,0.861,10.892,8.366,-0.107,5.053,0.801,0.471,0.370,10.438,-8.122,7.145,-1.069,none
5.079821,0.608,0.176,-0.774,2445.48,1.455,-3.133,0.224,0.758,-0.432,0.488,0.727,-0.133,-0.674,2508.86,0.671,-2.798,-6.043,0.139,-0.387,0.912,0.482,-0.402,-0.779,2426.79,-17.010,-7.274,-5.819,0.443,-0.894,0.065,-0.296,0.421,-0.857,2511.63,-9.960,6.491,-6.602,-0.463,0.190,0.866,0.511,0.112,0.852,10.906,13.023,-3.832,12.687,0.823,0.453,0.343,10.282,-0.977,4.626,5.405,none
5.082536,0.593,0.188,-0.783,2456.87,5.483,-0.112,-7.722,0.733,-0.476,0.485,0.719,-0.064,-0.692,2442.16,-5.371,-3.805,-13.205,0.146,-0.399,0.905,0.463,-0.389,-0.797,2483.52,-4.700,-1.567,-8.057,0.442,-0.894,0.067,-0.310,0.432,-0.847,2494.44,-7.050,5.371,-9.960,-0.459,0.186,0.869,0.477,0.108,0.872,11.021,16.229,-1.786,19.008,0.811,0.453,0.370,10.432,4.870,6.534,6.351,none
5.082736,0.589,0.151,-0.794,2458.74,10.967,2.798,-13.764,0.753,-0.454,0.477,0.699,-0.144,-0.701,2455.13,-0.671,-2.350,-15.107,0.147,-0.412,0.899,0.424,-0.413,-0.806,2454.46,6.043,-4.700,-13.093,0.442,-0.894,0.069,-0.326,0.458,-0.827,2460.47,-7.386,6.491,-13.764,-0.464,0.190,0.865,0.431,0.105,0.896,11.018,12.962,0.718,13.725,0.765,0.476,0.435,10.275,4.885,3.710,6.321,none
5.082865,0.604,0.024,-0.797,2463.31,16.114,4.029,-11.414,0.738,-0.448,0.504,0.709,-0.219,-0.671,2418.59,10.072,-1.343,-9.176,0.151,-0.416,0.896,0.383,-0.483,-0.787,2486.84,9.176,-5.036,-10.631,0.444,-0.893,0.077,-0.335,0.456,-0.825,2514.71,-7.945,2.238,-11.414,-0.459,0.184,0.869,0.443,0.089,0.892,10.974,9.832,0.046,6.580,0.776,0.458,0.434,10.296,2.061,-0.931,4.244,none
5.082988,0.584,0.044,-0.810,2444.96,14.100,3.469,-9.064,0.744,-0.436,0.507,0.695,-0.118,-0.709,2425.33,5.707,-0.224,-3.917,0.170,-0.417,0.893,0.411,-0.471,-0.780,2483.85,9.288,-6.826,-6.155,0.453,-0.887,0.086,-0.348,0.431,-0.833,2478.23,1.119,0.224,-6.826,-0.454,0.182,0.872,0.468,0.080,0.880,10.992,10.244,2.656,7.908,0.784,0.452,0.425,10.345,1.618,1.099,2.809,none
5.096096,0.584,0.084,-0.807,2444.83,12.086,0.448,-4.141,0.723,-0.459,0.517,0.703,-0.159,-0.693,2468.24,11.638,-0.895,-2.014,0.164,-0.422,0.892,0.421,-0.442,-0.792,2447.79,12.422,-11.526,-5.036,0.452,-0.887,0.091,-0.334,0.425,-0.841,2487.58,0.224,2.014,-8.505,-0.453,0.182,0.873,0.446,0.095,0.890,10.945,11.679,4.947,9.252,0.764,0.471,0.440,10.300,1.298,0.275,2.397,none
5.118942,0.612,0.040,-0.790,2446.86,10.855,0.224,-3.245,0.719,-0.439,0.539,0.713,-0.190,-0.675,2432.17,10.407,-1.567,0.000,0.152,-0.435,0.888,0.403,-0.497,-0.769,2535.48,18.464,-13.317,-7.945,0.451,-0.888,0.090,-0.318,0.425,-0.848,2491.74,-4.812,2.014,-7.610,-0.446,0.176,0.877,0.408,0.113,0.906,11.012,9.527,3.969,4.992,0.746,0.497,0.443,10.301,-0.519,-4.076,1.527,none
5.140759,0.620,0.020,-0.784,2463.08,6.714,-0.336,-1.790,0.727,-0.436,0.531,0.714,-0.205,-0.669,2483.83,3.021,-1.679,3.581,0.156,-0.423,0.893,0.409,-0.485,-0.773,2496.00,8.952,-13.205,-6.714,0.452,-0.887,0.096,-0.311,0.449,-0.838,2485.50,-1.790,1.455,-3.917,-0.447,0.171,0.878,0.429,0.123,0.895,11.045,6.168,4.168,-0.733,0.759,0.497,0.421,10.380,-4.489,-6.198,-0.565,none
5.163926,0.626,0.076,-0.776,2439.22,2.686,-1.007,2.350,0.734,-0.418,0.535,0.724,-0.146,-0.674,2492.38,5.260,-0.448,7.498,0.145,-0.419,0.896,0.439,-0.456,-0.774,2480.34,1.455,-8.057,-1.567,0.448,-0.888,0.106,-0.292,0.446,-0.846,2483.55,2.126,-0.336,-0.671,-0.442,0.169,0.881,0.449,0.135,0.884,10.947,4.229,5.374,-3.267,0.766,0.505,0.397,10.291,-7.145,-5.084,-2.260,none
5.588932,0.636,0.084,-0.767,2445.24,1.231,-0.671,4.252,0.708,-0.425,0.564,0.736,-0.120,-0.666,2450.36,6.155,-0.336,8.952,0.139,-0.421,0.896,0.462,-0.431,-0.775,2464.06,-1.231,-7.498,-0.448,0.447,-0.887,0.114,-0.286,0.443,-0.850,2498.76,0.112,1.119,0.560,-0.438,0.166,0.884,0.454,0.147,0.879,10.943,4.870,3.435,-2.641,0.773,0.507,0.382,10.344,-7.496,-3.847,-2.504,none
5.589128,0.634,0.120,-0.764,2454.22,1.231,0.000,3.245,0.739,-0.400,0.543,0.746,-0.080,-0.661,2454.69,4.252,-2.686,9.848,0.147,-0.414,0.899,0.476,-0.425,-0.770,2455.32,-3.357,-5.483,0.224,0.442,-0.890,0.113,-0.268,0.461,-0.846,2484.74,4.141,1.902,0.336,-0.443,0.166,0.881,0.450,0.155,0.879,10.998,6.214,3.359,-0.489,0.774,0.515,0.368,10.372,-6.840,-1.313,-2.336,none
5.589260,0.652,0.136,-0.746,2446.54,3.805,0.112,2.574,0.731,-0.427,0.532,0.744,-0.123,-0.657,2544.46,6.043,-4.924,9.736,0.122,-0.418,0.900,0.499,-0.423,-0.756,2536.80,-1.902,-3.917,-0.560,0.441,-0.890,0.117,-0.265,0.458,-0.848,2477.75,3.021,2.238,-1.902,-0.439,0.164,0.883,0.460,0.155,0.874,10.983,6.885,3.252,2.122,0.776,0.514,0.366,10.363,-5.771,3.298,-1.771,none
5.589388,0.645,0.144,-0.751,2444.51,6.938,0.448,1.567,0.727,-0.404,0.555,0.744,-0.087,-0.663,2477.05,5.931,-4.141,6.826,0.112,-0.419,0.901,0.495,-0.409,-0.767,2478.65,-4.029,-5.707,-3.693,0.436,-0.892,0.119,-0.257,0.451,-0.854,2471.94,-0.224,4.476,-4.364,-0.438,0.164,0.884,0.443,0.157,0.883,10.965,7.588,4.000,4.931,0.760,0.525,0.382,10.286,-5.206,5.954,-1.405,none
5.589515,0.651,0.071,-0.756,2466.83,11.079,1.679,-0.671,0.734,-0.411,0.540,0.757,-0.101,-0.646,2434.61,10.743,-2.462,-1.679,0.108,-0.408,0.906,0.469,-0.427,-0.773,2468.74,-2.910,-3.805,-3.357,0.437,-0.891,0.124,-0.258,0.449,-0.856,2467.89,-1.343,3.693,-5.819,-0.438,0.163,0.884,0.432,0.138,0.891,11.024,6.397,2.168,3.282,0.764,0.507,0.399,10.269,-5.954,4.519,0.351,none
5.589635,0.631,0.064,-0.773,2448.35,5.931,-0.895,-1.902,0.737,-0.415,0.534,0.725,-0.170,-0.667,2475.72,5.819,-1.455,-2.910,0.101,-0.408,0.908,0.435,-0.436,-0.788,2460.53,-6.491,-4.364,-3.245,0.437,-0.891,0.126,-0.302,0.444,-0.843,2493.31,-4.700,2.350,-4.700,-0.441,0.163,0.883,0.461,0.115,0.880,10.952,8.122,0.504,4.351,0.786,0.477,0.393,10.317,-3.053,2.061,1.710,none
5.589749,0.612,0.096,-0.785,2447.51,3.021,0.448,-6.043,0.724,-0.412,0.553,0.707,-0.161,-0.689,2497.04,9.736,-0.895,-6.155,0.121,-0.419,0.900,0.436,-0.414,-0.799,2476.17,-3.245,-0.448,-3.693,0.434,-0.892,0.128,-0.308,0.447,-0.840,2478.68,-5.707,1.679,-4.588,-0.436,0.157,0.886,0.482,0.115,0.869,10.957,9.252,0.076,6.534,0.783,0.478,0.399,10.320,-0.275,0.809,2.733,none
5.589859,0.614,0.096,-0.784,2439.67,5.371,1.119,-6.826,0.727,-0.383,0.570,0.710,-0.123,-0.693,2469.10,8.617,-2.910,-8.169,0.109,-0.430,0.896,0.437,-0.423,-0.794,2493.08,-1.119,-1.679,-5.707,0.436,-0.890,0.135,-0.304,0.458,-0.836,2482.87,-4.588,1.679,-5.707,-0.439,0.157,0.885,0.477,0.105,0.873,10.929,10.855,2.015,9.237,0.806,0.455,0.379,10.365,2.076,2.672,3.969,none
5.589968,0.586,0.166,-0.793,2422.65,7.050,0.448,-9.288,0.717,-0.398,0.572,0.708,-0.170,-0.686,2480.22,12.645,-3.917,-7.274,0.119,-0.433,0.893,0.436,-0.421,-0.795,2523.49,2.238,-5.036,-8.729,0.434,-0.890,0.139,-0.319,0.452,-0.833,2489.62,-5.148,2.574,-10.743,-0.433,0.157,0.887,0.476,0.109,0.873,10.928,12.687,1.405,12.702,0.791,0.466,0.396,10.360,4.397,4.046,5.679,none
5.590067,0.602,0.115,-0.790,2470.25,10.295,1.343,-11.414,0.741,-0.388,0.548,0.704,-0.134,-0.698,2493.13,9.960,-3.917,-7.833,0.120,-0.434,0.893,0.447,-0.392,-0.804,2484.90,3.133,-7.722,-12.198,0.438,-0.886,0.149,-0.308,0.459,-0.833,2476.75,-7.050,6.155,-13.093,-0.431,0.151,0.890,0.411,0.138,0.901,11.051,13.282,7.176,13.191,0.744,0.515,0.426,10.332,4.718,7.405,4.763,none
5.590164,0.646,0.028,-0.763,2455.99,15.107,2.350,-11.302,0.708,-0.412,0.573,0.731,-0.188,-0.657,2456.89,16.562,-0.783,-7.274,0.106,-0.463,0.880,0.427,-0.445,-0.787,2436.25,9.176,-5.707,-10.183,0.443,-0.882,0.159,-0.271,0.462,-0.844,2457.30,-3.581,6.267,-12.981,-0.430,0.153,0.890,0.400,0.146,0.905,11.027,9.985,9.618,5.908,0.717,0.537,0.444,10.298,1.924,7.084,2.260,none
5.590259,0.654,0.016,-0.756,2453.28,8.729,1.455,-8.281,0.703,-0.403,0.586,0.746,-0.224,-0.627,2495.12,18.017,0.895,-6.602,0.109,-0.454,0.885,0.431,-0.479,-0.765,2485.06,4.141,5.148,1.231,0.442,-0.880,0.173,-0.279,0.436,-0.856,2491.99,-0.783,1.790,-7.833,-0.431,0.153,0.889,0.445,0.134,0.886,10.985,8.580,7.130,2.687,0.712,0.531,0.459,10.317,0.565,4.809,1.863,none
5.590360,0.649,-0.043,-0.759,2518.82,0.000,0.448,-8.841,0.691,-0.385,0.611,0.739,-0.198,-0.644,2428.15,11.526,2.014,-6.491,0.110,-0.466,0.878,0.427,-0.508,-0.748,2577.70,3.021,8.729,2.350,0.443,-0.878,0.183,-0.291,0.452,-0.843,2492.08,1.567,-0.112,-5.483,-0.428,0.152,0.891,0.410,0.116,0.904,10.922,9.557,3.969,4.702,0.773,0.486,0.407,10.256,0.641,1.359,2.870,none
5.590461,0.618,0.088,-0.781,2436.94,1.119,1.119,-6.155,0.697,-0.429,0.574,0.724,-0.080,-0.685,2452.51,-5.483,-0.783,-13.541,0.109,-0.468,0.877,0.454,-0.424,-0.783,2551.90,-0.671,11.750,-0.224,0.444,-0.877,0.185,-0.308,0.418,-0.855,2507.64,-1.119,-0.560,-4.029,-0.429,0.153,0.890,0.456,0.116,0.883,10.889,11.176,3.313,6.443,0.758,0.491,0.429,10.310,2.504,1.527,3.634,none
5.590561,0.618,0.089,-0.781,2422.95,3.357,2.910,-9.960,0.687,-0.401,0.606,0.717,-0.186,-0.671,2430.71,0.560,0.560,-13.429,0.109,-0.484,0.868,0.446,-0.427,-0.787,2377.14,-1.007,11.862,-1.567,0.439,-0.876,0.199,-0.312,0.458,-0.832,2479.54,-6.267,0.895,-4.924,-0.419,0.144,0.896,0.406,0.117,0.906,11.037,10.916,2.550,5.573,0.744,0.499,0.445,10.316,-0.321,-0.733,1.557,none
5.590659,0.622,0.036,-0.782,2456.33,1.343,2.126,-5.371,0.662,-0.418,0.622,0.718,-0.217,-0.661,2484.75,-0.224,1.343,-8.505,0.116,-0.487,0.866,0.438,-0.451,-0.778,2466.10,-7.386,8.952,-0.671,0.446,-0.870,0.211,-0.301,0.448,-0.842,2472.59,-7.498,1.119,-3.469,-0.419,0.145,0.896,0.428,0.122,0.895,11.075,7.924,2.519,-0.092,0.757,0.494,0.427,10.327,-2.473,-1.817,0.122,none
5.590769,0.622,0.080,-0.779,2455.55,-1.119,1.679,-4.029,0.682,-0.403,0.610,0.722,-0.152,-0.676,2460.08,-7.162,0.783,-8.729,0.126,-0.485,0.866,0.450,-0.435,-0.780,2446.27,-8.169,8.505,1.567,0.443,-0.871,0.212,-0.303,0.449,-0.841,2488.06,-0.336,-1.007,-1.455,-0.415,0.143,0.898,0.444,0.126,0.887,10.974,6.977,2.580,-0.489,0.763,0.494,0.417,10.300,-3.893,-1.603,-0.504,none
5.601833,0.621,0.080,-0.779,2441.54,-0.783,0.671,-2.686,0.674,-0.427,0.603,0.722,-0.144,-0.676,2443.14,-4.476,0.671,-4.700,0.114,-0.494,0.862,0.454,-0.427,-0.782,2466.27,0.224,4.029,2.014,0.443,-0.872,0.209,-0.305,0.448,-0.840,2468.89,-2.686,-0.448,-1.455,-0.412,0.138,0.901,0.432,0.125,0.893,10.965,6.718,1.573,-0.366,0.749,0.499,0.435,10.292,-5.084,-2.565,-0.107,none
5.602074,0.632,0.036,-0.774,2444.90,-0.112,0.336,-1.119,0.660,-0.424,0.620,0.726,-0.180,-0.664,2457.93,0.671,0.224,0.000,0.109,-0.495,0.862,0.443,-0.448,-0.777,2483.46,1.567,1.679,1.343,0.444,-0.868,0.223,-0.304,0.434,-0.848,2479.28,1.007,-0.448,-0.224,-0.420,0.145,0.896,0.435,0.123,0.892,11.015,6.489,-3.863,-1.649,0.761,0.492,0.422,10.305,-5.908,-5.740,1.298,none
5.602258,0.617,0.091,-0.782,2459.64,-6.155,-1.455,-1.007,0.692,-0.396,0.603,0.721,-0.143,-0.678,2463.22,-4.029,-1.007,-1.455,0.117,-0.484,0.867,0.460,-0.433,-0.775,2475.35,-1.007,1.231,-0.671,0.442,-0.867,0.229,-0.302,0.455,-0.838,2497.93,0.895,-1.119,1.343,-0.418,0.142,0.897,0.445,0.124,0.887,11.009,6.031,-0.885,-2.336,0.765,0.493,0.414,10.322,-5.603,-6.656,-0.092,none
5.616897,0.625,0.100,-0.774,2444.42,-3.469,-1.007,1.343,0.665,-0.398,0.632,0.726,-0.140,-0.673,2455.63,-2.014,-0.112,0.000,0.114,-0.494,0.862,0.469,-0.430,-0.772,2472.59,4.141,5.707,1.343,0.444,-0.869,0.220,-0.297,0.443,-0.846,2473.59,-1.343,-0.112,0.112,-0.417,0.141,0.898,0.446,0.128,0.886,10.937,6.260,0.321,-1.527,0.765,0.496,0.410,10.315,-5.176,-5.603,-0.290,none
5.640541,0.627,0.096,-0.773,2448.30,-1.455,0.112,-0.336,0.681,-0.404,0.611,0.730,-0.128,-0.672,2458.89,-0.671,0.448,-1.231,0.115,-0.501,0.858,0.466,-0.435,-0.771,2489.73,4.476,7.274,1.790,0.440,-0.872,0.214,-0.304,0.442,-0.844,2480.44,-0.895,-0.560,-0.336,-0.419,0.142,0.897,0.446,0.123,0.887,10.941,7.130,0.137,-0.061,0.763,0.490,0.421,10.326,-4.473,-5.008,-0.336,none
5.663207,0.621,0.088,-0.779,2442.36,-0.560,0.783,-0.895,0.681,-0.417,0.602,0.716,-0.151,-0.682,2465.07,1.119,0.560,-0.895,0.113,-0.491,0.864,0.453,-0.438,-0.776,2471.81,1.343,3.357,-0.895,0.445,-0.868,0.221,-0.316,0.447,-0.837,2478.74,-1.343,0.000,-0.671,-0.415,0.143,0.898,0.438,0.112,0.892,10.963,7.344,-0.427,0.046,0.764,0.482,0.429,10.301,-4.687,-4.733,-0.183,none
6.094899,0.610,0.084,-0.788,2438.79,-1.007,0.112,-0.783,0.664,-0.412,0.624,0.712,-0.164,-0.682,2448.55,0.336,0.448,-0.336,0.121,-0.496,0.860,0.450,-0.439,-0.778,2467.30,0.224,1.455,-0.336,0.441,-0.872,0.215,-0.320,0.446,-0.836,2481.08,-1.231,0.336,-0.112,-0.418,0.141,0.897,0.442,0.115,0.889,10.988,6.275,-0.214,-1.298,0.767,0.484,0.422,10.329,-5.298,-4.641,-0.366,none
6.095367,0.614,0.092,-0.784,2452.70,-0.336,0.336,-0.336,0.652,-0.437,0.620,0.720,-0.152,-0.678,2452.88,-0.336,0.112,-0.448,0.122,-0.500,0.857,0.456,-0.437,-0.775,2475.90,0.336,0.783,0.671,0.443,-0.871,0.213,-0.308,0.451,-0.838,2476.85,0.224,1.343,0.560,-0.420,0.146,0.896,0.442,0.124,0.888,10.997,5.939,0.321,-1.878,0.765,0.490,0.418,10.308,-5.740,-4.489,-0.580,none
6.095488,0.621,0.088,-0.779,2442.36,-0.560,-0.224,0.224,0.664,-0.427,0.614,0.725,-0.155,-0.671,2475.35,-1.231,0.000,-0.783,0.121,-0.500,0.857,0.464,-0.437,-0.771,2477.37,0.448,0.336,1.455,0.442,-0.870,0.219,-0.304,0.446,-0.842,2484.03,0.336,0.895,0.224,-0.421,0.148,0.895,0.446,0.126,0.886,10.975,5.863,0.473,-1.893,0.764,0.494,0.415,10.354,-5.725,-4.763,-0.916,none
6.095615,0.624,0.104,-0.774,2445.45,-1.231,-0.224,0.560,0.672,-0.402,0.622,0.729,-0.119,-0.675,2463.88,-2.462,0.112,-1.231,0.110,-0.502,0.858,0.465,-0.434,-0.772,2473.02,0.895,0.448,0.448,0.443,-0.870,0.218,-0.296,0.442,-0.847,2482.90,0.336,0.671,-0.112,-0.418,0.141,0.897,0.439,0.124,0.890,10.982,6.641,0.260,-1.282,0.764,0.492,0.418,10.320,-5.237,-4.595,-0.947,none
6.095735,0.621,0.092,-0.778,2443.26,-0.671,0.560,0.000,0.686,-0.415,0.598,0.720,-0.129,-0.682,2436.67,-0.336,0.671,-0.671,0.114,-0.496,0.861,0.457,-0.442,-0.772,2471.79,0.560,0.895,-0.560,0.443,-0.870,0.216,-0.304,0.447,-0.841,2476.46,-0.224,0.448,-0.112,-0.420,0.141,0.897,0.440,0.121,0.890,10.979,6.916,0.076,-1.099,0.765,0.488,0.420,10.302,-5.053,-4.443,-0.855,none
6.095828,0.621,0.080,-0.779,2441.54,-0.336,0.448,0.000,0.688,-0.412,0.597,0.719,-0.154,-0.677,2481.67,1.567,0.560,0.112,0.117,-0.491,0.863,0.457,-0.439,-0.773,2468.16,0.783,1.007,0.000,0.441,-0.870,0.221,-0.304,0.442,-0.844,2480.44,0.336,0.671,0.112,-0.412,0.134,0.901,0.441,0.123,0.889,10.994,6.733,-0.641,-1.328,0.767,0.489,0.416,10.314,-4.840,-4.763,-0.458,none
6.095938,0.621,0.088,-0.779,2442.36,-1.343,0.560,-1.007,0.658,-0.431,0.617,0.723,-0.155,-0.673,2468.11,0.000,0.336,-1.343,0.121,-0.490,0.863,0.458,-0.436,-0.775,2463.79,-0.224,1.679,1.231,0.446,-0.867,0.223,-0.308,0.447,-0.840,2478.68,0.224,0.448,0.224,-0.419,0.146,0.896,0.445,0.122,0.887,10.960,6.519,0.076,-1.359,0.764,0.488,0.422,10.335,-5.206,-4.366,-0.626,none
6.096030,0.616,0.096,-0.782,2445.82,-0.895,0.336,-0.336,0.675,-0.423,0.605,0.721,-0.140,-0.679,2448.63,0.671,0.448,-0.560,0.120,-0.489,0.864,0.453,-0.438,-0.776,2471.81,0.224,0.671,0.224,0.445,-0.868,0.220,-0.313,0.444,-0.840,2470.31,0.560,1.343,0.224,-0.419,0.140,0.897,0.433,0.115,0.894,10.971,6.321,2.275,-0.534,0.764,0.486,0.424,10.319,-5.084,-3.893,-0.931,none
6.096116,0.617,0.088,-0.782,2443.98,-1.679,0.560,-1.007,0.682,-0.413,0.603,0.722,-0.163,-0.672,2413.89,2.798,0.895,0.224,0.109,-0.496,0.862,0.451,-0.436,-0.779,2462.92,1.007,1.679,2.350,0.440,-0.872,0.215,-0.310,0.444,-0.840,2490.71,1.007,0.783,0.224,-0.420,0.143,0.896,0.436,0.124,0.891,10.934,6.977,-2.885,-1.939,0.762,0.492,0.422,10.322,-4.168,-5.206,-1.099,none
6.096243,0.618,0.092,-0.781,2437.84,-2.574,1.902,-2.462,0.682,-0.427,0.595,0.718,-0.127,-0.684,2400.88,-1.343,-1.567,1.231,0.123,-0.496,0.859,0.453,-0.443,-0.774,2469.56,4.252,4.924,5.148,0.446,-0.868,0.218,-0.308,0.450,-0.839,2482.72,0.224,-0.336,2.910,-0.420,0.143,0.896,0.451,0.130,0.883,10.976,5.649,-5.130,-2.611,0.765,0.493,0.415,10.306,-4.656,-5.557,-1.695,none
6.096400,0.622,0.108,-0.776,2440.17,-1.567,2.350,-1.455,0.670,-0.436,0.601,0.702,-0.083,-0.707,2959.52,6.155,-2.462,10.855,0.106,-0.490,0.865,0.468,-0.442,-0.765,2496.25,4.252,4.700,5.371,0.442,-0.870,0.217,-0.279,0.466,-0.840,2458.18,0.783,1.231,2.910,-0.416,0.141,0.898,0.436,0.130,0.891,10.926,5.267,-2.595,-4.412,0.763,0.496,0.415,10.312,-6.015,-4.733,-1.771,none
6.096529,0.631,0.087,-0.771,2466.77,0.783,1.343,1.231,0.670,-0.423,0.609,0.729,-0.173,-0.663,2611.07,18.353,-0.671,13.876,0.106,-0.475,0.873,0.469,-0.446,-0.762,2493.06,1.790,2.238,4.029,0.442,-0.869,0.223,-0.284,0.434,-0.855,2481.90,1.679,-0.336,1.790,-0.420,0.141,0.897,0.450,0.124,0.884,10.967,4.870,-0.443,-3.160,0.762,0.494,0.418,10.293,-6.855,-5.069,-0.336,none
6.096638,0.628,0.087,-0.773,2460.48,0.336,-1.231,1.567,0.668,-0.430,0.607,0.723,-0.202,-0.661,2618.64,-8.057,-0.448,-2.126,0.097,-0.485,0.869,0.463,-0.445,-0.766,2479.28,-0.671,-1.343,1.902,0.441,-0.869,0.226,-0.295,0.431,-0.853,2453.57,-0.671,-7.498,0.112,-0.415,0.143,0.899,0.444,0.125,0.887,10.973,5.298,0.534,-1.603,0.764,0.493,0.417,10.336,-6.809,-5.618,0.565,none
6.096754,0.623,0.100,-0.776,2452.18,-1.567,-2.574,0.671,0.682,-0.399,0.613,0.703,-0.091,-0.705,2899.96,-16.898,-2.686,-5.483,0.092,-0.491,0.866,0.443,-0.448,-0.777,2508.35,-1.902,-1.902,2.910,0.438,-0.872,0.217,-0.325,0.449,-0.832,2527.61,-4.588,-5.931,-0.448,-0.418,0.143,0.897,0.444,0.131,0.887,10.958,6.031,1.389,-2.687,0.770,0.483,0.417,10.363,-5.435,-6.901,-0.458,none
6.096852,0.615,0.088,-0.784,2451.81,-3.133,-0.783,1.007,0.666,-0.422,0.615,0.712,-0.102,-0.694,2491.70,-1.007,0.112,1.567,0.113,-0.493,0.863,0.453,-0.430,-0.781,2407.37,4.141,3.133,10.855,0.441,-0.870,0.219,-0.340,0.476,-0.811,2533.40,1.902,-3.581,1.679,-0.415,0.141,0.899,0.429,0.123,0.895,11.019,2.092,-2.168,-7.725,0.767,0.486,0.418,10.365,-6.672,-6.153,-0.718,none
6.096943,0.621,0.084,-0.779,2442.36,2.686,1.119,2.462,0.695,-0.414,0.588,0.715,-0.117,-0.689,2425.63,16.003,2.238,9.288,0.101,-0.487,0.867,0.460,-0.457,-0.761,2496.87,5.371,1.231,7.162,0.436,-0.872,0.223,-0.322,0.465,-0.825,2525.96,6.267,1.119,4.252,-0.418,0.142,0.897,0.453,0.120,0.883,10.941,1.405,2.214,-8.382,0.767,0.490,0.415,10.313,-6.534,-3.924,-2.947,none
6.097036,0.616,0.100,-0.781,2446.80,4.364,1.455,4.364,0.674,-0.409,0.615,0.747,-0.166,-0.644,2427.89,21.150,0.895,13.764,0.104,-0.495,0.863,0.465,-0.459,-0.757,2511.47,4.252,0.783,5.483,0.433,-0.875,0.218,-0.285,0.439,-0.852,2477.73,3.917,6.267,2.350,-0.415,0.142,0.899,0.443,0.124,0.888,10.906,3.603,3.237,-5.618,0.761,0.495,0.418,10.308,-6.611,-2.473,-3.786,none
6.117597,0.632,0.079,-0.771,2479.22,6.714,0.336,6.043,0.678,-0.413,0.608,0.729,-0.200,-0.654,2553.31,20.255,-2.014,13.317,0.084,-0.494,0.866,0.461,-0.459,-0.759,2490.03,1.231,-0.560,2.462,0.431,-0.875,0.220,-0.282,0.430,-0.858,2462.30,4.476,5.036,1.119,-0.415,0.145,0.898,0.444,0.129,0.887,10.959,4.061,2.214,-3.756,0.759,0.498,0.420,10.286,-6.870,-4.336,-1.710,none
6.117786,0.636,0.075,-0.768,2477.09,3.245,-1.902,3.469,0.652,-0.423,0.630,0.727,-0.226,-0.648,2640.36,8.169,-1.007,4.924,0.076,-0.483,0.872,0.458,-0.455,-0.764,2487.72,-1.007,-2.126,0.560,0.431,-0.875,0.221,-0.265,0.435,-0.861,2477.03,0.783,-2.574,0.336,-0.419,0.149,0.895,0.397,0.133,0.908,11.049,1.359,3.115,-6.733,0.705,0.511,0.492,10.704,-13.099,-6.855,-2.656,none
6.117908,0.625,0.007,-0.781,2789.02,6.043,-6.491,3.917,0.655,-0.439,0.615,0.690,-0.232,-0.686,3338.95,-13.093,-2.462,-8.617,0.072,-0.481,0.874,0.465,-0.426,-0.776,2449.71,-5.819,-2.798,2.126,0.434,-0.874,0.217,-0.284,0.477,-0.832,2483.04,-3.021,-13.205,0.671,-0.416,0.142,0.898,0.314,0.117,0.942,11.611,-10.611,19.771,-26.061,0.591,0.539,0.600,11.166,-49.847,7.542,-28.061,none
6.118027,0.608,-0.197,-0.769,3379.59,22.381,-20.479,21.598,0.677,-0.425,0.600,0.669,-0.499,-0.551,2871.72,14.660,-6.602,54.834,0.093,-0.492,0.866,0.504,-0.313,-0.805,2554.10,-27.193,0.112,10.407,0.429,-0.879,0.210,-0.267,0.465,-0.844,2422.23,5.260,5.036,-0.112,-0.418,0.151,0.896,0.048,0.103,0.994,13.186,-49.969,39.435,-83.008,0.481,0.556,0.678,12.144,-110.763,1.206,-61.145,none
6.137806,0.604,-0.116,-0.789,3990.70,-13.876,-74.417,57.743,0.686,-0.387,0.616,0.703,-0.283,-0.652,4083.29,-1.902,-96.575,92.882,0.148,-0.468,0.872,0.564,0.035,-0.825,2942.46,-24.843,-3.133,-55.505,0.416,-0.863,0.287,-0.268,0.457,-0.848,2593.69,1.455,6.938,0.448,-0.427,0.156,0.891,0.284,0.139,0.949,16.170,-118.977,16.916,-132.611,0.811,0.428,0.399,18.203,-173.817,-22.229,-9.313,none
6.154935,0.598,0.156,-0.786,3144.09,-22.493,-144.359,86.951,0.681,-0.321,0.658,0.723,-0.369,-0.584,3537.17,-18.017,-135.182,132.944,0.255,-0.453,0.854,0.503,-0.391,-0.770,3470.80,28.424,-22.829,-79.565,0.402,-0.782,0.477,-0.229,0.549,-0.803,3031.94,-10.631,-4.700,-17.122,-0.426,0.163,0.890,0.537,0.171,0.826,15.609,-151.298,-7.557,-121.466,0.890,0.394,0.231,16.404,-173.450,16.321,49.832,none
6.190263,0.510,0.448,-0.735,3725.09,-24.395,-146.932,66.584,0.672,-0.297,0.679,0.779,-0.058,-0.624,2378.63,-94.225,-106.534,174.125,0.319,-0.421,0.849,0.464,-0.482,-0.744,3450.59,47.112,-55.170,-38.496,0.391,-0.618,0.682,-0.233,0.551,-0.801,3112.14,-7.386,-20.926,-41.965,-0.426,0.167,0.889,0.828,0.185,0.530,14.473,-128.092,-36.351,-53.847,0.946,0.323,0.035,12.828,-118.427,23.435,88.565,none
6.616990,0.417,0.594,-0.688,3334.08,-0.112,-129.587,2.014,0.633,-0.329,0.701,0.385,0.558,-0.735,4887.72,-142.680,-93.665,128.468,0.347,-0.408,0.845,0.461,-0.355,-0.813,3469.38,4.252,-59.982,-9.064,0.436,-0.495,0.752,-0.327,0.611,-0.721,3028.78,-35.362,-35.698,-60.877,-0.421,0.171,0.891,0.925,0.135,0.356,12.748,-49.420,-44.916,20.733,0.982,0.189,-0.010,11.999,-55.313,12.336,96.947,none
6.619060,0.195,0.660,-0.726,2853.75,3.021,-93.329,-46.777,0.624,-0.353,0.697,0.385,0.281,-0.879,3562.56,35.586,-157.899,26.857,0.404,-0.430,0.807,0.456,0.060,-0.888,3057.38,-11.302,-85.608,6.602,0.540,-0.438,0.719,-0.450,0.639,-0.624,2915.44,-41.293,-26.745,-79.565,-0.417,0.163,0.894,0.894,0.081,0.440,12.142,24.046,-43.344,68.763,0.990,0.033,-0.134,11.379,10.550,15.802,100.198,none
6.619271,0.033,0.765,-0.644,2576.25,14.660,-61.884,-83.929,0.548,-0.436,0.713,0.078,0.297,-0.952,1879.98,40.510,-165.621,7.050,0.419,-0.511,0.750,0.377,-0.028,-0.926,2604.34,19.136,-93.665,-49.239,0.618,-0.398,0.678,-0.524,0.618,-0.586,2951.70,-44.427,-15.331,-90.196,-0.404,0.157,0.901,0.754,0.038,0.655,12.488,41.893,-23.802,92.763,0.999,-0.004,-0.033,9.886,73.176,31.420,92.580,none
6.619427,-0.092,0.800,-0.593,2168.19,31.334,-6.491,-127.349,0.531,-0.504,0.681,0.011,0.079,-0.997,1725.55,36.369,-128.468,-23.724,0.480,-0.539,0.692,0.222,-0.215,-0.951,2306.47,19.360,-83.258,-63.451,0.893,-0.117,0.434,-0.639,0.519,-0.568,2512.07,-43.196,2.798,-93.441,-0.387,0.141,0.911,0.710,-0.036,0.703,9.983,34.397,-10.611,107.786,0.943,0.070,0.325,9.695,92.351,46.748,85.725,none
6.619576,0.133,0.258,-0.957,1824.28,49.462,54.610,-164.837,0.492,-0.604,0.627,-0.070,-0.099,-0.993,1692.47,10.855,-99.149,-50.470,0.596,-0.623,0.507,0.132,-0.148,-0.980,2088.51,14.883,-71.284,-79.901,0.879,0.453,0.150,-0.677,0.480,-0.558,2327.37,-51.253,19.024,-89.748,-0.352,0.111,0.930,0.594,-0.129,0.794,8.344,34.198,-6.397,92.840,0.853,0.062,0.519,7.722,88.840,51.511,81.374,none
6.619755,0.161,0.049,-0.986,1981.47,44.539,60.093,-151.632,0.534,-0.723,0.439,-0.425,-0.065,-0.903,1363.70,0.224,-41.741,-92.322,0.712,-0.659,0.243,0.064,-0.298,-0.952,2024.21,10.519,-60.205,-99.372,0.511,0.850,0.130,-0.720,0.454,-0.524,2328.11,-61.212,39.279,-70.836,-0.330,0.095,0.939,0.659,-0.186,0.729,8.125,38.687,7.695,63.252,0.743,0.046,0.667,7.072,76.565,31.221,52.489,none
6.619903,0.153,0.015,-0.988,1966.39,44.203,55.617,-124.215,0.554,-0.832,0.037,0.032,-0.252,-0.967,2144.22,1.790,2.014,-106.758,0.769,-0.607,-0.201,0.063,-0.224,-0.973,1731.33,6.043,-51.141,-117.277,0.062,0.956,0.287,-0.691,0.414,-0.593,2272.11,-57.631,58.974,-59.198,-0.269,0.051,0.962,0.709,-0.170,0.685,8.691,56.061,18.397,59.557,0.885,0.029,0.465,8.318,71.908,19.130,35.771,none
6.620041,0.203,0.136,-0.970,1870.63,37.824,54.051,-111.011,0.515,-0.809,-0.282,0.226,-0.240,-0.944,2735.73,9.960,-16.338,-87.063,0.704,-0.350,-0.618,0.118,-0.436,-0.892,1920.45,15.219,-38.943,-143.575,-0.212,0.827,0.520,-0.639,0.432,-0.637,2223.94,-49.127,73.075,-57.967,-0.252,0.040,0.967,0.513,-0.129,0.848,10.647,52.107,30.504,57.496,0.844,0.142,0.518,10.249,65.145,24.855,42.107,none
6.624294,0.366,0.144,-0.919,2241.89,37.265,61.884,-111.794,0.428,-0.719,-0.548,0.211,-0.254,-0.944,2279.64,18.017,-43.531,-71.172,0.426,0.058,-0.903,0.180,-0.461,-0.869,2242.98,22.045,-29.879,-140.889,-0.289,0.627,0.723,-0.559,0.468,-0.684,2241.42,-44.874,73.522,-61.996,-0.175,0.007,0.985,0.527,-0.086,0.846,11.402,34.992,31.069,65.130,0.759,0.229,0.610,10.226,59.908,38.351,46.718,none
6.624571,0.437,-0.012,-0.900,2485.52,51.700,64.234,-111.682,0.261,-0.639,-0.724,0.211,-0.288,-0.934,1903.55,23.500,-27.641,-71.508,0.096,0.438,-0.894,0.194,-0.510,-0.838,2336.96,29.431,-30.774,-128.244,-0.222,0.411,0.884,-0.500,0.452,-0.738,2250.88,-37.265,69.605,-64.346,-0.130,0.005,0.992,0.452,-0.095,0.887,9.972,35.588,34.504,78.779,0.742,0.247,0.623,9.782,59.023,46.763,45.344,none
6.624755,0.458,-0.112,-0.882,2367.95,66.920,56.736,-98.365,-0.088,-0.571,-0.816,0.294,-0.334,-0.895,2261.46,26.857,-14.772,-69.046,-0.440,0.861,-0.256,0.265,-0.424,-0.866,2297.57,27.305,-35.027,-114.815,-0.051,0.207,0.977,-0.464,0.425,-0.777,2214.10,-33.684,67.255,-63.674,-0.088,0.020,0.996,0.330,-0.102,0.938,9.964,32.855,37.206,72.214,0.635,0.278,0.721,10.199,40.626,48.427,43.191,none
6.624886,0.470,-0.142,-0.871,2703.83,63.674,44.539,-80.796,-0.747,-0.416,-0.518,0.330,-0.408,-0.851,2643.32,26.186,-23.053,-52.820,-0.462,0.857,0.228,0.289,-0.466,-0.836,2176.76,28.424,-43.979,-115.711,0.160,0.041,0.986,-0.445,0.414,-0.795,2202.47,-27.417,68.263,-60.541,-0.063,0.062,0.996,0.296,-0.105,0.949,10.750,19.282,37.298,57.969,0.608,0.284,0.742,10.609,16.504,47.878,42.183,none
6.625007,0.479,-0.176,-0.860,2839.71,65.689,15.891,-55.170,-0.904,-0.057,0.423,0.357,-0.438,-0.825,2774.58,24.507,-45.210,-25.850,-0.441,0.710,0.549,0.303,-0.538,-0.787,2177.67,38.608,-34.355,-110.115,0.336,-0.041,0.941,-0.404,0.378,-0.833,2255.32,-13.764,67.591,-58.079,-0.057,0.133,0.989,0.187,-0.094,0.978,12.196,-0.824,38.260,54.305,0.534,0.317,0.784,11.770,-9.908,47.450,45.527,none
6.625123,0.543,-0.219,-0.810,2773.03,74.641,-21.598,-23.500,-0.529,0.041,0.847,0.356,-0.452,-0.818,2367.21,27.417,-55.505,-10.743,-0.395,0.546,0.739,0.265,-0.647,-0.715,2601.11,35.250,-31.557,-91.987,0.436,-0.062,0.898,-0.288,0.378,-0.880,2411.60,-11.414,62.891,-54.051,-0.043,0.197,0.979,0.178,-0.077,0.981,11.952,-20.504,28.702,39.527,0.531,0.353,0.770,11.172,-34.519,47.267,43.679,none
6.625297,0.596,-0.121,-0.794,2446.25,63.003,-32.453,-4.700,-0.323,-0.057,0.945,0.405,-0.437,-0.803,2422.56,33.124,-42.412,-4.252,-0.435,0.447,0.782,0.405,-0.483,-0.776,2788.30,23.165,-44.427,-68.934,0.463,0.027,0.886,-0.230,0.389,-0.892,2466.39,-6.267,47.672,-47.672,-0.060,0.273,0.960,0.236,-0.013,0.972,11.853,-33.649,25.328,36.321,0.604,0.371,0.705,10.778,-44.901,40.687,42.763,none
6.625456,0.597,-0.094,-0.797,2524.06,64.793,-28.872,-3.917,-0.255,-0.158,0.954,0.418,-0.411,-0.810,2670.97,28.984,-33.348,-0.671,-0.369,0.375,0.850,0.442,-0.422,-0.791,2662.38,18.241,-54.051,-57.072,0.429,0.122,0.895,-0.214,0.440,-0.872,2604.25,-5.148,32.900,-40.174,-0.084,0.356,0.931,0.243,0.003,0.970,11.080,-32.397,21.053,32.076,0.650,0.385,0.655,10.006,-37.878,34.000,39.374,none
6.625575,0.612,-0.057,-0.789,2574.95,50.581,-28.424,-4.029,-0.163,-0.198,0.967,0.448,-0.335,-0.829,2691.28,13.317,-33.572,5.371,-0.388,0.317,0.865,0.475,-0.352,-0.806,2768.45,10.072,-55.729,-56.065,0.351,0.204,0.914,-0.173,0.457,-0.872,2657.24,-2.462,29.319,-36.034,-0.093,0.419,0.903,0.229,0.039,0.973,11.395,-20.641,16.779,30.611,0.613,0.435,0.659,10.061,-17.832,21.817,33.206,none
6.625703,0.660,-0.067,-0.748,2491.01,37.041,-13.764,-16.226,-0.183,-0.280,0.942,0.462,-0.324,-0.826,2630.86,6.826,-29.431,3.917,-0.437,0.224,0.871,0.485,-0.373,-0.791,2773.41,8.057,-52.148,-44.874,0.319,0.267,0.909,-0.107,0.502,-0.858,2749.16,-3.469,17.681,-29.991,-0.097,0.438,0.894,0.169,0.052,0.984,12.676,-9.878,21.191,26.580,0.570,0.443,0.692,11.646,-13.084,24.916,19.908,none
6.625834,0.661,0.047,-0.749,2724.96,39.950,-3.133,-11.862,-0.242,-0.332,0.912,0.491,-0.290,-0.821,2535.04,8.617,-21.934,11.638,-0.460,0.185,0.869,0.533,-0.301,-0.791,2562.20,6.938,-49.015,-27.641,0.323,0.259,0.910,-0.076,0.500,-0.863,2824.13,7.610,12.310,-25.403,-0.091,0.441,0.893,0.166,0.058,0.984,12.759,-15.115,26.427,21.740,0.602,0.449,0.660,11.576,-15.664,33.313,11.023,none
6.625937,0.676,-0.008,-0.737,2649.96,56.065,1.119,-6.602,-0.245,-0.342,0.907,0.501,-0.197,-0.843,2541.90,14.660,-10.519,15.331,-0.475,0.144,0.868,0.570,-0.240,-0.786,2754.85,14.212,-40.958,-24.395,0.301,0.295,0.907,-0.081,0.496,-0.864,3000.05,18.800,10.183,-22.269,-0.091,0.434,0.896,0.202,0.067,0.977,12.786,-15.817,25.985,18.916,0.657,0.460,0.597,10.850,-7.618,33.069,8.870,none
6.627947,0.679,0.018,-0.734,2753.13,51.141,5.036,-5.036,-0.266,-0.336,0.904,0.531,-0.141,-0.835,2786.47,20.591,8.729,-3.021,-0.461,0.175,0.870,0.583,-0.174,-0.794,3233.73,13.317,-41.181,-35.922,0.307,0.340,0.889,-0.076,0.440,-0.895,3073.30,21.934,14.436,-23.053,-0.089,0.418,0.904,0.204,0.024,0.979,13.662,-13.878,4.901,26.611,0.708,0.415,0.571,12.383,19.863,18.366,18.702,none
6.643087,0.688,0.156,-0.709,2946.35,42.524,7.498,-32.900,-0.297,-0.357,0.886,0.559,-0.220,-0.800,3561.94,5.148,5.819,-38.831,-0.447,0.128,0.886,0.499,-0.375,-0.781,4011.86,32.900,-29.096,-42.524,0.298,0.334,0.894,0.031,0.394,-0.919,2608.45,8.505,5.707,-33.460,-0.085,0.404,0.911,0.142,0.033,0.989,11.089,-31.527,-14.153,49.206,0.528,0.481,0.699,10.358,29.557,28.092,46.504,none
6.667572,0.718,-0.262,-0.644,2618.42,56.401,16.003,-57.855,-0.344,-0.339,0.876,0.540,-0.370,-0.756,2068.58,9.064,-28.536,-45.322,-0.524,0.084,0.847,0.560,-0.470,-0.682,1490.26,16.562,-54.051,22.269,0.299,0.355,0.886,-0.047,0.415,-0.908,2239.04,8.617,-28.984,-42.860,-0.077,0.359,0.930,-0.084,0.001,0.996,9.478,-21.038,-5.695,32.122,0.193,0.504,0.842,8.714,34.672,22.336,13.328,none
6.690492,0.652,-0.452,-0.608,1888.13,37.936,28.536,-33.684,-0.362,-0.287,0.887,0.352,-0.717,-0.602,1668.83,39.503,-2.126,-21.822,-0.509,0.147,0.848,0.525,-0.369,-0.767,1685.29,24.955,-26.857,16.003,0.348,0.351,0.869,-0.197,0.402,-0.894,2287.12,8.057,-16.003,-26.186,-0.082,0.358,0.930,0.052,-0.032,0.998,8.940,-12.443,21.985,5.557,0.417,0.453,0.788,8.414,-0.382,22.824,-14.916,none
7.115924,0.709,-0.022,-0.705,1780.95,27.641,26.857,-2.238,-0.343,-0.355,0.870,0.389,-0.607,-0.693,1761.87,13.988,21.598,-0.224,-0.488,0.076,0.870,0.492,-0.293,-0.820,2293.31,16.674,2.238,-7.050,0.334,0.394,0.856,-0.187,0.388,-0.903,2350.83,7.274,10.295,-3.133,-0.079,0.355,0.931,0.109,-0.063,0.992,10.843,-2.275,27.466,-8.397,0.586,0.419,0.693,8.842,6.321,17.832,-26.656,none
7.123535,0.735,-0.068,-0.674,1877.84,30.886,46.105,-10.407,-0.370,-0.328,0.869,0.467,-0.302,-0.831,2306.28,1.790,37.488,-6.155,-0.477,0.095,0.874,0.416,-0.377,-0.827,2948.39,3.581,-10.631,-22.045,0.292,0.408,0.865,-0.155,0.381,-0.912,2520.97,24.955,11.079,4.364,-0.069,0.349,0.935,0.100,-0.055,0.994,12.410,-20.015,30.824,-17.405,0.553,0.422,0.719,9.973,13.298,17.008,-28.321,none
7.123713,0.934,0.264,-0.241,1225.72,-11.191,104.856,-38.608,-0.396,-0.314,0.863,0.456,-0.413,-0.789,2494.55,2.238,41.629,-12.645,-0.555,0.084,0.828,0.368,-0.373,-0.852,2723.35,-8.729,-21.374,-13.876,0.297,0.369,0.881,-0.209,0.355,-0.911,2619.73,10.631,2.462,9.512,-0.063,0.367,0.928,0.258,-0.114,0.959,11.492,-34.718,20.336,-26.015,0.559,0.344,0.754,10.105,20.443,13.969,-36.046,none
