0.003898,BNO0_UnitAccX,BNO0_UnitAccY,BNO0_UnitAccZ,BNO0_RawAccMag,BNO0_GyrX,BNO0_GyrY,BNO0_GyrZ,BNO0_MagX,BNO0_MagY,BNO0_MagZ,BNO1_UnitAccX,BNO1_UnitAccY,BNO1_UnitAccZ,BNO1_RawAccMag,BNO1_GyrX,BNO1_GyrY,BNO1_GyrZ,BNO1_MagX,BNO1_MagY,BNO1_MagZ,BNO2_UnitAccX,BNO2_UnitAccY,BNO2_UnitAccZ,BNO2_RawAccMag,BNO2_GyrX,BNO2_GyrY,BNO2_GyrZ,BNO2_MagX,BNO2_MagY,BNO2_MagZ,BNO3_UnitAccX,BNO3_UnitAccY,BNO3_UnitAccZ,BNO3_RawAccMag,BNO3_GyrX,BNO3_GyrY,BNO3_GyrZ,BNO3_MagX,BNO3_MagY,BNO3_MagZ,MPU0_UnitAccX,MPU0_UnitAccY,MPU0_UnitAccZ,MPU0_RawAccMag,MPU0_GyrX,MPU0_GyrY,MPU0_GyrZ,MPU1_UnitAccX,MPU1_UnitAccY,MPU1_UnitAccZ,MPU1_RawAccMag,MPU1_GyrX,MPU1_GyrY,MPU1_GyrZ,none
0.045886,0.808,0.587,0.056,2540.41,0.000,1.007,-1.679,-0.886,-0.357,-0.297,0.911,0.412,-0.032,2473.58,-0.448,0.448,-0.112,-0.934,-0.356,0.040,0.529,-0.292,-0.797,2495.70,-0.112,0.336,-0.112,-0.653,0.109,0.750,0.460,0.584,-0.669,2450.93,-0.560,-0.560,-0.783,-0.364,-0.121,0.924,0.537,0.829,-0.159,9.929,9.802,-0.336,-1.817,0.291,0.753,-0.590,10.545,-3.252,-4.947,-1.618,none
0.046201,0.817,0.575,0.051,2559.12,-0.448,1.790,-1.567,-0.882,-0.351,-0.314,0.913,0.407,-0.032,2477.69,0.112,-0.224,-0.224,-0.935,-0.352,0.046,0.531,-0.293,-0.795,2486.94,0.336,-0.112,0.224,-0.636,0.073,0.769,0.457,0.581,-0.673,2463.68,-0.224,-0.224,-0.336,-0.347,-0.102,0.932,0.533,0.831,-0.157,9.978,8.534,-0.183,-1.618,0.291,0.752,-0.592,10.573,-4.290,-4.656,-1.221,none
0.060427,0.822,0.568,0.040,2555.13,-0.224,0.448,-0.560,-0.887,-0.334,-0.318,0.913,0.407,-0.028,2477.39,0.895,0.224,0.448,-0.940,-0.338,0.036,0.528,-0.295,-0.796,2498.34,0.336,-0.112,0.000,-0.654,0.078,0.752,0.461,0.580,-0.672,2468.94,0.560,-0.560,-0.112,-0.349,-0.110,0.931,0.530,0.831,-0.171,9.897,7.191,-0.382,-1.481,0.283,0.749,-0.599,10.532,-4.718,-5.038,-1.008,none
0.084664,0.812,0.581,0.055,2549.96,-0.671,-0.112,-0.336,-0.888,-0.326,-0.326,0.911,0.410,-0.032,2481.78,0.224,-0.112,0.000,-0.938,-0.344,0.037,0.528,-0.291,-0.798,2501.28,-0.112,0.000,-0.224,-0.675,0.085,0.733,0.459,0.583,-0.671,2456.96,0.336,-0.336,0.224,-0.364,-0.115,0.924,0.536,0.827,-0.172,9.901,7.115,-0.595,-1.908,0.288,0.746,-0.600,10.543,-4.214,-5.511,-1.511,none
0.107077,0.810,0.584,0.051,2555.25,-1.007,0.895,-0.783,-0.897,-0.323,-0.302,0.910,0.413,-0.032,2486.80,0.224,0.000,-0.560,-0.936,-0.347,0.060,0.530,-0.288,-0.798,2492.00,-0.224,-0.448,-0.224,-0.633,0.137,0.762,0.455,0.582,-0.674,2476.90,-1.679,-0.448,0.224,-0.358,-0.113,0.927,0.536,0.830,-0.156,9.987,6.275,0.168,-2.427,0.294,0.756,-0.584,10.577,-5.237,-4.977,-2.321,none
0.128512,0.822,0.569,0.036,2568.91,-0.224,1.007,0.560,-0.896,-0.323,-0.304,0.913,0.405,-0.040,2488.45,3.805,0.783,0.112,-0.942,-0.334,0.012,0.526,-0.292,-0.799,2490.42,0.895,-0.112,-0.112,-0.646,0.072,0.760,0.453,0.589,-0.669,2464.79,0.000,-1.343,0.336,-0.353,-0.115,0.929,0.542,0.824,-0.167,9.908,4.336,0.336,-1.832,0.300,0.748,-0.593,10.546,-6.977,-4.809,-1.252,none
0.152163,0.807,0.588,0.051,2553.01,-0.336,-1.567,1.679,-0.881,-0.351,-0.317,0.907,0.421,-0.028,2464.34,3.133,-0.224,0.448,-0.940,-0.338,0.036,0.526,-0.292,-0.799,2490.42,0.895,-0.336,-0.336,-0.633,0.113,0.766,0.453,0.585,-0.673,2464.96,1.679,-0.895,0.224,-0.353,-0.115,0.929,0.539,0.823,-0.181,9.839,5.130,0.824,-1.573,0.292,0.739,-0.607,10.500,-6.244,-4.366,-1.267,none
0.173429,0.811,0.583,0.055,2541.03,0.448,-0.560,0.560,-0.882,-0.351,-0.314,0.911,0.412,-0.032,2473.58,1.007,-0.224,0.224,-0.932,-0.359,0.047,0.528,-0.295,-0.796,2498.34,0.671,0.112,-0.112,-0.665,0.110,0.739,0.460,0.580,-0.673,2451.82,2.574,-0.783,0.000,-0.357,-0.115,0.927,0.533,0.827,-0.179,9.852,6.122,-0.015,-1.176,0.289,0.745,-0.601,10.489,-5.023,-4.870,-0.580,none
0.195562,0.814,0.578,0.052,2542.81,-0.224,0.000,-0.336,-0.878,-0.365,-0.309,0.914,0.405,-0.036,2488.07,1.007,-2.238,0.000,-0.933,-0.357,0.040,0.531,-0.295,-0.794,2502.31,0.112,0.224,0.112,-0.639,0.104,0.762,0.460,0.580,-0.673,2451.82,-1.007,-0.224,-0.112,-0.351,-0.104,0.931,0.533,0.829,-0.168,9.903,6.153,-0.351,-0.901,0.288,0.749,-0.597,10.518,-4.916,-4.992,-0.260,none
0.215487,0.814,0.579,0.048,2542.37,-0.336,-0.224,-0.895,-0.899,-0.330,-0.289,0.911,0.412,-0.036,2473.00,0.112,-2.462,-0.112,-0.935,-0.349,0.060,0.531,-0.293,-0.795,2486.94,-0.336,0.112,0.000,-0.649,0.088,0.756,0.458,0.586,-0.669,2462.80,-1.679,-0.112,-0.224,-0.345,-0.107,0.933,0.538,0.824,-0.178,9.866,5.588,-0.412,-0.672,0.294,0.743,-0.601,10.522,-5.435,-5.115,0.137,none
0.237417,0.814,0.579,0.040,2556.23,-0.560,-1.343,-0.783,-0.885,-0.368,-0.285,0.923,0.368,-0.112,2632.66,-0.336,-7.274,0.112,-0.940,-0.341,0.035,0.528,-0.287,-0.799,2499.19,-0.560,0.112,0.224,-0.624,0.131,0.771,0.461,0.582,-0.670,2444.43,-0.224,0.671,-0.336,-0.350,-0.110,0.930,0.539,0.824,-0.173,9.920,6.458,-1.267,0.229,0.293,0.744,-0.600,10.560,-4.489,-5.435,1.084,none
0.257598,0.810,0.585,0.044,2567.48,-1.679,-1.902,-1.679,-0.893,-0.355,-0.276,0.923,0.379,-0.066,2527.01,2.126,-18.353,3.805,-0.946,-0.321,0.031,0.527,-0.294,-0.797,2503.91,-0.448,0.112,-0.224,-0.640,0.081,0.764,0.461,0.589,-0.664,2467.26,0.895,0.671,-0.671,-0.353,-0.106,0.930,0.539,0.823,-0.178,9.904,5.038,-1.710,0.809,0.296,0.752,-0.589,10.607,-6.229,-6.611,2.489,none
0.281127,0.841,0.540,0.013,2578.00,-2.574,-7.610,-0.448,-0.885,-0.361,-0.295,0.947,0.271,-0.171,2812.55,-2.126,-42.188,13.541,-0.937,-0.341,0.080,0.524,-0.295,-0.799,2498.66,1.119,0.671,0.224,-0.655,0.105,0.748,0.455,0.581,-0.675,2499.41,0.224,1.679,-0.895,-0.352,-0.114,0.929,0.547,0.825,-0.144,10.197,6.931,-3.405,2.015,0.305,0.753,-0.584,10.774,-6.290,-7.695,4.641,none
0.303950,0.815,0.579,0.028,2625.90,-4.141,-9.960,0.224,-0.885,-0.365,-0.290,0.897,0.436,0.072,2291.44,-5.148,-56.960,24.619,-0.940,-0.335,0.072,0.527,-0.296,-0.796,2519.58,2.014,1.455,-1.343,-0.672,0.101,0.733,0.450,0.587,-0.673,2505.98,0.112,-0.336,-1.343,-0.356,-0.112,0.928,0.534,0.829,-0.164,9.976,2.656,-0.733,2.794,0.287,0.756,-0.588,10.537,-8.626,-5.863,4.473,none
0.323847,0.820,0.570,0.045,2512.15,-0.448,-10.183,1.119,-0.895,-0.343,-0.285,0.858,0.510,0.064,2283.05,-15.331,-26.074,10.407,-0.934,-0.341,0.108,0.532,-0.291,-0.795,2499.67,2.574,2.686,-1.902,-0.636,0.121,0.762,0.455,0.588,-0.669,2435.56,1.119,-1.119,-0.895,-0.353,-0.106,0.930,0.531,0.825,-0.194,9.655,3.405,-0.656,-0.183,0.283,0.732,-0.620,10.288,-8.992,-6.290,1.435,none
0.346110,0.781,0.618,0.092,2476.63,-1.455,-9.288,3.917,-0.897,-0.334,-0.288,0.903,0.425,-0.062,2396.06,-5.371,-14.436,4.364,-0.940,-0.331,0.085,0.527,-0.297,-0.796,2484.30,1.343,0.895,-0.671,-0.637,0.123,0.761,0.458,0.589,-0.666,2398.53,1.679,0.783,0.000,-0.344,-0.105,0.933,0.538,0.817,-0.207,9.614,6.626,-0.504,-1.756,0.289,0.719,-0.632,10.309,-4.763,-5.634,-0.931,none
0.367126,0.786,0.612,0.089,2483.77,-1.007,-2.686,0.783,-0.893,-0.370,-0.256,0.902,0.430,-0.038,2346.42,-3.245,-10.631,3.133,-0.935,-0.334,0.117,0.532,-0.294,-0.794,2478.99,-0.560,0.000,0.336,-0.644,0.104,0.758,0.457,0.583,-0.672,2423.18,0.783,1.231,-0.224,-0.353,-0.111,0.929,0.532,0.826,-0.183,9.725,9.832,-0.748,-2.626,0.287,0.742,-0.606,10.398,-1.786,-5.527,-2.244,none
0.389091,0.807,0.587,0.064,2506.45,-0.224,4.141,-2.462,-0.904,-0.341,-0.259,0.897,0.442,-0.029,2348.92,-2.238,-0.895,-1.119,-0.940,-0.332,0.079,0.532,-0.294,-0.794,2478.99,-2.462,-0.783,0.448,-0.650,0.125,0.750,0.458,0.583,-0.671,2439.84,-2.350,1.790,0.224,-0.361,-0.113,0.926,0.536,0.827,-0.173,9.866,9.802,-0.580,-4.122,0.288,0.746,-0.600,10.494,-2.061,-5.740,-3.725,none
0.411922,0.813,0.580,0.052,2535.49,-0.895,5.148,-1.231,-0.897,-0.334,-0.288,0.917,0.389,-0.084,2465.60,-0.560,6.267,-2.910,-0.933,-0.343,0.109,0.527,-0.294,-0.797,2503.91,-3.021,-1.567,0.671,-0.665,0.101,0.740,0.457,0.581,-0.673,2463.68,-2.910,2.574,0.560,-0.367,-0.109,0.924,0.542,0.821,-0.181,9.947,13.511,-1.695,-4.580,0.300,0.745,-0.596,10.657,-1.389,-5.924,-3.832,none
0.433189,0.814,0.580,0.031,2604.89,-1.007,6.155,-1.679,-0.892,-0.329,-0.311,0.913,0.401,-0.075,2488.57,0.224,8.952,-3.245,-0.933,-0.344,0.103,0.528,-0.295,-0.796,2498.34,-2.350,-1.119,0.000,-0.664,0.095,0.742,0.458,0.586,-0.669,2479.93,-1.902,1.231,0.448,-0.358,-0.110,0.927,0.546,0.823,-0.156,10.100,11.710,-0.824,-3.099,0.304,0.748,-0.589,10.703,-2.076,-4.748,-2.611,none
0.455592,0.814,0.580,0.028,2604.62,-0.224,4.924,-2.014,-0.891,-0.337,-0.305,0.908,0.411,-0.079,2502.42,0.783,9.176,-3.693,-0.942,-0.318,0.113,0.529,-0.292,-0.797,2495.70,-0.671,-0.448,0.000,-0.645,0.071,0.761,0.456,0.586,-0.669,2491.89,-0.671,-0.448,-0.336,-0.351,-0.109,0.930,0.537,0.826,-0.171,10.012,11.466,0.031,-2.305,0.298,0.744,-0.598,10.612,-3.115,-3.557,-2.015,none
0.477410,0.811,0.583,0.043,2575.59,2.574,4.364,-1.231,-0.893,-0.359,-0.271,0.908,0.415,-0.056,2450.71,3.357,11.750,-4.700,-0.943,-0.323,0.077,0.530,-0.290,-0.797,2506.84,0.000,0.112,0.336,-0.637,0.136,0.759,0.459,0.583,-0.671,2456.96,-1.679,-1.455,-0.560,-0.348,-0.105,0.932,0.531,0.826,-0.191,9.913,9.221,1.176,-2.183,0.286,0.741,-0.607,10.538,-2.947,-3.023,-2.718,none
0.502165,0.810,0.584,0.056,2535.36,2.574,5.371,-1.679,-0.883,-0.393,-0.257,0.918,0.386,-0.087,2484.73,4.141,14.883,-6.379,-0.936,-0.343,0.080,0.530,-0.288,-0.798,2492.00,0.112,0.112,0.448,-0.652,0.110,0.750,0.460,0.589,-0.665,2450.13,-1.567,-1.007,-0.560,-0.360,-0.115,0.926,0.536,0.823,-0.186,9.850,9.420,0.489,-2.733,0.292,0.738,-0.609,10.510,-2.855,-4.015,-2.748,none
0.521197,0.814,0.579,0.036,2555.85,1.679,4.364,-1.007,-0.895,-0.362,-0.263,0.921,0.376,-0.098,2521.40,2.350,10.631,-3.917,-0.947,-0.311,0.081,0.529,-0.292,-0.797,2495.70,0.336,0.112,0.671,-0.673,0.116,0.731,0.461,0.582,-0.670,2444.43,-0.783,-0.224,-0.336,-0.361,-0.118,0.925,0.536,0.826,-0.174,9.967,9.634,0.321,-1.832,0.292,0.748,-0.596,10.585,-2.366,-3.985,-2.000,none
0.543827,0.817,0.576,0.040,2572.54,0.671,3.693,-2.126,-0.884,-0.368,-0.289,0.919,0.388,-0.071,2495.62,1.790,6.043,-2.574,-0.939,-0.330,0.099,0.526,-0.292,-0.799,2490.42,0.112,0.224,0.112,-0.638,0.114,0.761,0.461,0.580,-0.672,2468.94,0.112,-0.895,-0.560,-0.360,-0.117,0.926,0.527,0.832,-0.171,9.987,6.809,0.687,-1.985,0.283,0.759,-0.587,10.565,-4.840,-4.137,-1.954,none
0.565576,0.828,0.559,0.036,2560.81,0.671,2.350,-0.448,-0.889,-0.338,-0.310,0.925,0.373,-0.075,2490.72,0.783,1.119,0.783,-0.935,-0.342,0.096,0.528,-0.295,-0.796,2498.34,0.336,-0.336,-0.224,-0.639,0.104,0.762,0.458,0.581,-0.672,2480.80,-0.112,-0.560,0.112,-0.353,-0.104,0.930,0.539,0.822,-0.186,9.957,4.947,-0.260,-1.924,0.296,0.742,-0.602,10.591,-6.275,-5.023,-1.237,none
0.587837,0.810,0.585,0.043,2581.65,-1.119,-0.671,0.895,-0.888,-0.346,-0.304,0.906,0.418,-0.067,2485.32,-0.560,0.560,1.455,-0.939,-0.338,0.064,0.527,-0.294,-0.797,2503.91,0.112,0.448,-0.224,-0.635,0.130,0.762,0.452,0.587,-0.671,2471.49,-0.112,-1.119,0.336,-0.359,-0.109,0.927,0.544,0.816,-0.196,9.870,5.725,0.244,-1.084,0.299,0.732,-0.612,10.536,-5.267,-4.427,-0.565,none
0.609189,0.805,0.592,0.048,2551.43,0.448,0.224,-0.783,-0.890,-0.359,-0.281,0.907,0.414,-0.071,2482.76,0.336,1.455,-0.783,-0.929,-0.365,0.063,0.530,-0.288,-0.798,2492.00,0.448,0.560,0.000,-0.642,0.099,0.760,0.456,0.590,-0.666,2428.21,0.336,-0.895,-0.336,-0.349,-0.109,0.931,0.540,0.820,-0.192,9.807,6.641,0.519,-0.397,0.294,0.735,-0.611,10.468,-4.321,-4.000,-0.137,none
0.631930,0.805,0.591,0.056,2524.28,1.119,0.448,-1.567,-0.892,-0.351,-0.284,0.909,0.414,-0.057,2436.58,1.567,1.790,-2.126,-0.942,-0.326,0.077,0.531,-0.289,-0.796,2484.83,0.448,0.560,0.224,-0.661,0.068,0.747,0.454,0.586,-0.671,2442.25,-0.336,-0.560,-0.671,-0.351,-0.106,0.930,0.533,0.823,-0.195,9.772,7.542,0.229,-1.038,0.287,0.737,-0.612,10.434,-3.527,-4.198,-0.809,none
0.654103,0.806,0.588,0.064,2519.58,0.895,1.343,-1.790,-0.883,-0.355,-0.306,0.911,0.409,-0.048,2440.51,1.119,4.812,-3.917,-0.935,-0.343,0.088,0.528,-0.293,-0.797,2481.65,-0.671,0.000,0.336,-0.661,0.117,0.741,0.458,0.583,-0.671,2439.84,-1.119,0.224,-0.671,-0.353,-0.111,0.929,0.533,0.824,-0.194,9.836,8.580,-0.351,-1.328,0.287,0.738,-0.611,10.502,-2.290,-4.565,-1.084,none
0.675399,0.808,0.587,0.056,2540.41,0.224,2.574,-2.350,-0.889,-0.346,-0.300,0.912,0.406,-0.052,2458.34,0.783,6.714,-4.588,-0.936,-0.340,0.088,0.531,-0.293,-0.795,2486.94,-1.455,0.112,0.000,-0.644,0.104,0.758,0.459,0.583,-0.671,2456.96,-2.014,0.895,-0.336,-0.361,-0.117,0.925,0.530,0.828,-0.182,9.927,8.427,-0.046,-1.893,0.283,0.747,-0.601,10.565,-2.656,-4.565,-1.664,none
0.698346,0.815,0.577,0.051,2564.88,0.336,3.133,-1.679,-0.887,-0.354,-0.297,0.917,0.393,-0.059,2488.46,1.119,7.498,-4.364,-0.937,-0.339,0.081,0.529,-0.292,-0.797,2495.70,-1.679,-0.448,0.112,-0.616,0.116,0.779,0.456,0.588,-0.668,2469.34,-1.902,0.783,-0.112,-0.356,-0.115,0.927,0.541,0.820,-0.187,9.956,7.069,0.122,-2.122,0.297,0.741,-0.602,10.643,-4.031,-4.519,-1.664,none
0.720722,0.808,0.588,0.039,2587.10,0.448,1.902,-0.783,-0.889,-0.371,-0.268,0.913,0.402,-0.067,2509.43,1.567,7.386,-3.245,-0.941,-0.330,0.071,0.530,-0.290,-0.797,2506.84,-1.007,-0.112,0.671,-0.651,0.105,0.752,0.455,0.586,-0.670,2476.03,-0.895,0.448,-0.224,-0.366,-0.115,0.923,0.543,0.817,-0.196,9.935,6.931,0.275,-0.809,0.297,0.733,-0.612,10.575,-4.061,-4.107,-0.427,none
0.743843,0.804,0.593,0.051,2564.23,0.448,0.560,-1.455,-0.894,-0.332,-0.301,0.913,0.400,-0.078,2520.73,1.231,2.798,-2.798,-0.936,-0.342,0.081,0.529,-0.292,-0.797,2495.70,-0.783,0.448,1.119,-0.653,0.098,0.751,0.458,0.586,-0.669,2462.80,-0.336,0.448,-0.783,-0.356,-0.113,0.927,0.534,0.824,-0.189,9.884,7.435,0.305,-0.779,0.285,0.741,-0.608,10.545,-3.618,-4.122,-0.489,none
0.766203,0.809,0.584,0.060,2535.13,1.007,1.119,-1.902,-0.887,-0.368,-0.280,0.913,0.406,-0.045,2437.34,1.567,2.686,-2.686,-0.942,-0.331,0.063,0.530,-0.288,-0.798,2492.00,-1.119,0.112,0.895,-0.656,0.093,0.749,0.453,0.589,-0.669,2464.79,-0.895,0.448,-0.671,-0.351,-0.113,0.930,0.536,0.823,-0.189,9.855,7.130,0.321,-1.405,0.288,0.740,-0.608,10.527,-4.000,-4.275,-1.069,none
0.789321,0.809,0.586,0.051,2546.34,0.895,1.679,-1.119,-0.892,-0.351,-0.284,0.910,0.411,-0.060,2476.74,1.119,4.252,-2.574,-0.937,-0.344,0.053,0.526,-0.292,-0.799,2490.42,-1.343,-0.112,0.560,-0.648,0.111,0.753,0.457,0.590,-0.666,2445.55,-1.119,0.560,-0.448,-0.350,-0.119,0.929,0.539,0.820,-0.193,9.861,7.099,-0.031,-1.374,0.296,0.736,-0.609,10.532,-3.893,-4.504,-0.931,none
0.817221,0.806,0.589,0.055,2547.09,0.224,1.007,-1.455,-0.881,-0.369,-0.296,0.914,0.401,-0.067,2488.06,0.783,3.805,-2.574,-0.936,-0.349,0.046,0.527,-0.289,-0.799,2486.72,-0.671,0.224,0.336,-0.653,0.086,0.753,0.457,0.590,-0.666,2445.55,-0.783,0.783,-0.448,-0.357,-0.118,0.927,0.537,0.822,-0.189,9.875,7.053,0.321,-1.160,0.292,0.739,-0.607,10.519,-3.954,-4.290,-0.809,none
0.835030,0.807,0.588,0.048,2552.57,0.224,1.119,-1.679,-0.887,-0.360,-0.290,0.910,0.411,-0.052,2475.62,0.895,2.238,-2.126,-0.934,-0.347,0.090,0.526,-0.292,-0.799,2490.42,-0.671,0.000,0.112,-0.647,0.108,0.755,0.453,0.589,-0.669,2464.79,-0.448,0.560,-0.671,-0.344,-0.108,0.933,0.533,0.825,-0.189,9.920,7.008,0.275,-1.802,0.287,0.740,-0.608,10.539,-4.122,-4.550,-1.496,none
0.855300,0.809,0.585,0.055,2547.68,0.112,1.343,-0.895,-0.883,-0.321,-0.341,0.911,0.410,-0.048,2461.01,0.560,2.910,-1.790,-0.936,-0.345,0.067,0.526,-0.292,-0.799,2490.42,-0.671,-0.112,0.336,-0.645,0.095,0.758,0.456,0.588,-0.668,2452.22,-1.119,0.671,-0.224,-0.363,-0.115,0.925,0.538,0.822,-0.190,9.908,6.687,0.168,-2.015,0.291,0.738,-0.609,10.547,-4.366,-4.580,-1.603,none
0.877997,0.809,0.586,0.051,2560.29,0.224,1.790,-0.560,-0.891,-0.359,-0.277,0.912,0.406,-0.052,2479.74,0.560,3.357,-1.455,-0.928,-0.364,0.079,0.526,-0.292,-0.799,2490.42,-0.560,-0.112,0.000,-0.661,0.093,0.745,0.458,0.590,-0.665,2462.01,-1.007,0.224,-0.224,-0.345,-0.111,0.932,0.535,0.825,-0.184,9.974,6.183,0.458,-2.031,0.291,0.745,-0.600,10.590,-4.794,-4.489,-1.710,none
0.901028,0.814,0.579,0.048,2556.30,0.336,1.231,-0.112,-0.891,-0.355,-0.282,0.915,0.400,-0.059,2496.00,0.336,2.574,-1.007,-0.933,-0.349,0.090,0.529,-0.292,-0.797,2495.70,-0.112,-0.112,0.000,-0.626,0.113,0.771,0.456,0.588,-0.668,2469.34,-0.671,0.000,0.000,-0.360,-0.123,0.925,0.537,0.823,-0.185,9.926,4.794,0.672,-2.244,0.292,0.742,-0.604,10.571,-6.305,-4.595,-1.771,none
0.923104,0.810,0.584,0.051,2568.38,0.112,0.336,1.119,-0.884,-0.351,-0.310,0.914,0.401,-0.051,2485.74,0.560,1.231,0.448,-0.937,-0.347,0.044,0.529,-0.292,-0.797,2495.70,-0.112,-0.112,-0.224,-0.646,0.129,0.752,0.458,0.586,-0.669,2462.80,0.112,-0.112,0.224,-0.356,-0.112,0.928,0.538,0.820,-0.197,9.900,4.244,0.779,-1.802,0.293,0.736,-0.611,10.561,-6.489,-4.550,-1.282,none
0.944357,0.803,0.594,0.055,2543.57,-0.112,-0.224,0.671,-0.871,-0.378,-0.313,0.909,0.413,-0.055,2489.38,0.112,0.224,0.448,-0.935,-0.350,0.060,0.530,-0.288,-0.798,2492.00,0.336,0.112,-0.336,-0.662,0.115,0.740,0.458,0.590,-0.665,2462.01,0.112,-0.112,0.112,-0.345,-0.113,0.932,0.539,0.818,-0.203,9.866,4.901,0.534,-1.542,0.293,0.731,-0.616,10.532,-5.847,-4.534,-1.008,none
0.966536,0.802,0.594,0.059,2558.11,0.000,-0.112,0.448,-0.876,-0.384,-0.292,0.908,0.416,-0.044,2469.76,0.448,0.448,-0.112,-0.933,-0.352,0.076,0.531,-0.287,-0.797,2503.15,-0.112,0.224,-0.112,-0.642,0.099,0.760,0.456,0.592,-0.664,2450.79,-0.336,0.224,-0.112,-0.354,-0.117,0.928,0.538,0.819,-0.199,9.836,5.847,0.290,-1.405,0.291,0.733,-0.616,10.508,-5.023,-4.473,-0.901,none
0.989286,0.803,0.593,0.059,2544.95,0.112,0.560,-0.560,-0.885,-0.385,-0.262,0.910,0.411,-0.048,2475.13,0.224,1.119,-0.783,-0.937,-0.347,0.045,0.530,-0.288,-0.798,2492.00,-0.112,0.000,0.000,-0.648,0.087,0.757,0.456,0.592,-0.664,2450.79,-0.895,0.224,-0.224,-0.353,-0.116,0.928,0.536,0.823,-0.191,9.913,6.015,0.534,-1.985,0.287,0.740,-0.608,10.538,-4.962,-4.382,-1.527,none
1.011280,0.810,0.584,0.055,2554.97,0.224,0.895,-0.336,-0.900,-0.352,-0.258,0.912,0.408,-0.044,2470.62,0.671,1.007,-0.560,-0.939,-0.339,0.057,0.531,-0.293,-0.795,2486.94,-0.112,0.112,0.224,-0.637,0.090,0.765,0.459,0.587,-0.667,2456.79,-0.895,0.336,-0.224,-0.354,-0.114,0.928,0.533,0.825,-0.189,9.897,4.931,0.916,-1.740,0.288,0.741,-0.606,10.571,-5.771,-4.397,-1.313,none
1.032978,0.814,0.579,0.051,2556.74,0.224,0.336,0.224,-0.879,-0.376,-0.293,0.914,0.401,-0.051,2485.74,0.224,0.783,-0.224,-0.937,-0.348,0.036,0.530,-0.290,-0.797,2506.84,-0.336,-0.448,0.000,-0.630,0.085,0.772,0.458,0.586,-0.669,2462.80,0.224,0.448,0.000,-0.356,-0.115,0.927,0.535,0.822,-0.198,9.901,4.809,0.305,-1.588,0.287,0.736,-0.613,10.545,-5.878,-4.824,-0.977,none
1.053675,0.804,0.591,0.059,2552.98,-0.112,-0.224,0.224,-0.883,-0.355,-0.306,0.910,0.413,-0.040,2465.19,-0.112,0.671,0.000,-0.930,-0.357,0.084,0.528,-0.291,-0.798,2501.28,-0.560,-0.336,-0.112,-0.674,0.074,0.735,0.458,0.590,-0.665,2462.01,0.224,0.112,0.336,-0.360,-0.108,0.927,0.538,0.820,-0.197,9.883,5.588,0.107,-1.969,0.292,0.733,-0.614,10.558,-5.344,-4.947,-1.344,none
1.075678,0.804,0.593,0.051,2564.23,-0.448,0.560,0.112,-0.900,-0.311,-0.306,0.907,0.418,-0.052,2483.01,0.000,1.231,-0.224,-0.929,-0.364,0.072,0.527,-0.289,-0.799,2486.72,-0.112,-0.112,0.560,-0.663,0.061,0.746,0.453,0.593,-0.665,2463.44,-0.224,0.224,0.000,-0.354,-0.125,0.927,0.543,0.818,-0.189,9.881,5.618,0.458,-1.771,0.297,0.738,-0.607,10.536,-5.374,-4.595,-1.206,none
1.097417,0.808,0.588,0.044,2552.11,0.224,0.336,-0.112,-0.888,-0.377,-0.265,0.911,0.410,-0.048,2461.01,0.112,0.448,-0.560,-0.945,-0.324,0.055,0.527,-0.289,-0.799,2486.72,0.224,0.112,0.336,-0.627,0.116,0.770,0.456,0.592,-0.664,2450.79,0.000,0.448,0.000,-0.352,-0.111,0.930,0.534,0.823,-0.193,9.848,5.710,0.397,-1.954,0.287,0.738,-0.611,10.502,-5.328,-4.718,-1.374,none
1.117223,0.806,0.588,0.060,2533.72,0.112,-0.224,0.112,-0.898,-0.329,-0.291,0.912,0.407,-0.048,2449.63,0.336,0.895,-0.224,-0.939,-0.341,0.043,0.526,-0.292,-0.799,2490.42,-0.336,-0.112,0.000,-0.641,0.078,0.763,0.456,0.588,-0.668,2452.22,1.455,0.671,0.000,-0.353,-0.110,0.929,0.536,0.820,-0.201,9.846,6.031,0.000,-2.198,0.290,0.734,-0.614,10.527,-4.962,-4.931,-1.588,none
1.139516,0.805,0.592,0.051,2551.88,0.112,1.119,-0.112,-0.883,-0.360,-0.301,0.909,0.415,-0.044,2477.94,-0.336,1.455,-0.560,-0.936,-0.348,0.052,0.529,-0.292,-0.797,2495.70,-0.560,0.000,-0.224,-0.639,0.095,0.763,0.461,0.584,-0.668,2468.06,0.000,0.671,0.224,-0.361,-0.116,0.925,0.536,0.823,-0.191,9.930,6.321,0.000,-1.756,0.290,0.738,-0.610,10.546,-4.565,-4.855,-1.130,none
1.162997,0.808,0.586,0.055,2561.63,-0.448,0.783,-0.783,-0.881,-0.380,-0.282,0.913,0.403,-0.055,2498.53,-0.112,1.455,-1.119,-0.935,-0.352,0.046,0.529,-0.292,-0.797,2495.70,-0.560,-0.112,0.000,-0.648,0.113,0.753,0.458,0.590,-0.665,2462.01,-1.231,0.783,-0.224,-0.358,-0.122,0.926,0.533,0.825,-0.186,9.939,5.817,0.046,-1.832,0.288,0.744,-0.603,10.571,-5.328,-4.931,-1.206,none
1.185083,0.810,0.584,0.055,2554.97,-0.112,0.224,-0.112,-0.886,-0.311,-0.343,0.912,0.408,-0.044,2470.62,-0.112,0.000,0.000,-0.933,-0.348,0.097,0.529,-0.292,-0.797,2495.70,-0.112,-0.224,0.000,-0.647,0.134,0.750,0.457,0.592,-0.664,2467.99,-0.448,0.224,0.112,-0.359,-0.120,0.926,0.536,0.821,-0.198,9.892,5.374,0.092,-1.939,0.290,0.733,-0.615,10.547,-5.695,-4.977,-1.252,none
1.207390,0.804,0.592,0.055,2551.60,-0.224,0.224,0.560,-0.889,-0.349,-0.297,0.907,0.420,-0.048,2474.35,0.112,0.783,0.112,-0.930,-0.364,0.057,0.531,-0.287,-0.797,2503.15,-0.112,-0.112,0.448,-0.635,0.107,0.765,0.459,0.591,-0.663,2455.36,1.119,0.671,0.112,-0.357,-0.121,0.926,0.540,0.818,-0.201,9.834,6.015,-0.092,-1.679,0.290,0.731,-0.617,10.507,-4.977,-4.931,-0.947,none
1.228690,0.801,0.596,0.059,2550.09,0.112,0.336,-0.448,-0.877,-0.345,-0.334,0.907,0.420,-0.040,2472.61,-0.112,0.224,-0.336,-0.935,-0.347,0.075,0.528,-0.281,-0.801,2481.82,-1.119,-0.336,1.231,-0.635,0.098,0.766,0.460,0.589,-0.665,2450.13,0.560,0.560,0.112,-0.358,-0.127,0.925,0.534,0.824,-0.192,9.857,6.534,-0.183,-2.046,0.285,0.737,-0.613,10.509,-4.595,-5.176,-1.405,none
1.250672,0.808,0.586,0.064,2527.66,-0.336,0.783,-0.336,-0.885,-0.361,-0.295,0.909,0.414,-0.040,2457.01,-0.112,0.895,-0.783,-0.940,-0.336,0.057,0.530,-0.288,-0.798,2492.00,-1.231,-0.336,0.671,-0.643,0.103,0.759,0.459,0.591,-0.663,2455.36,-0.783,1.455,0.112,-0.362,-0.127,0.924,0.536,0.821,-0.197,9.886,6.504,-0.550,-2.351,0.291,0.734,-0.614,10.531,-4.565,-5.466,-1.664,none
1.272671,0.806,0.589,0.055,2547.09,-0.448,1.231,-0.112,-0.876,-0.370,-0.308,0.910,0.411,-0.048,2475.13,-0.671,0.783,-0.671,-0.931,-0.360,0.056,0.527,-0.289,-0.799,2486.72,-1.343,-0.671,0.448,-0.639,0.105,0.762,0.458,0.590,-0.665,2462.01,-1.231,1.343,0.448,-0.356,-0.110,0.928,0.537,0.821,-0.192,9.911,6.443,-0.305,-2.427,0.291,0.740,-0.607,10.546,-4.718,-5.313,-1.771,none
1.294936,0.809,0.586,0.051,2560.29,-0.448,1.119,-0.224,-0.883,-0.355,-0.306,0.910,0.411,-0.048,2475.13,-0.224,0.783,-0.112,-0.929,-0.363,0.078,0.525,-0.288,-0.801,2493.92,-1.007,-0.560,0.112,-0.647,0.118,0.753,0.453,0.593,-0.665,2463.44,-0.560,1.007,0.448,-0.357,-0.116,0.927,0.539,0.821,-0.190,9.920,6.061,0.061,-2.382,0.293,0.738,-0.608,10.569,-5.099,-5.115,-1.786,none
1.317459,0.805,0.591,0.051,2571.47,-0.783,0.560,0.224,-0.883,-0.355,-0.306,0.911,0.408,-0.051,2492.93,0.000,0.448,0.000,-0.936,-0.346,0.067,0.526,-0.292,-0.799,2490.42,-0.448,-0.224,0.112,-0.638,0.091,0.765,0.461,0.589,-0.664,2467.26,0.783,0.671,0.112,-0.353,-0.107,0.929,0.536,0.822,-0.193,9.922,6.260,-0.107,-1.725,0.291,0.737,-0.610,10.583,-4.718,-5.008,-1.038,none
1.339259,0.807,0.588,0.059,2554.12,-0.112,0.448,-0.448,-0.892,-0.363,-0.269,0.910,0.411,-0.048,2475.13,-0.224,0.000,-0.112,-0.938,-0.345,0.046,0.522,-0.289,-0.802,2488.68,-0.560,0.336,0.000,-0.637,0.088,0.766,0.456,0.588,-0.668,2469.34,-0.336,0.671,0.000,-0.356,-0.115,0.927,0.533,0.824,-0.193,9.913,5.969,0.031,-1.878,0.286,0.739,-0.610,10.555,-5.084,-4.977,-1.313,none
1.360710,0.808,0.586,0.055,2561.63,0.224,0.671,-0.336,-0.885,-0.342,-0.315,0.910,0.411,-0.048,2475.13,0.000,0.224,-0.224,-0.934,-0.357,0.032,0.527,-0.289,-0.799,2486.72,-0.560,-0.112,0.000,-0.642,0.088,0.762,0.459,0.591,-0.663,2455.36,-1.007,0.448,-0.112,-0.352,-0.114,0.929,0.534,0.823,-0.195,9.912,5.939,0.000,-1.893,0.290,0.737,-0.610,10.547,-5.053,-4.962,-1.298,none
1.382800,0.807,0.588,0.055,2552.74,-0.336,0.560,0.000,-0.884,-0.351,-0.310,0.910,0.411,-0.048,2475.13,-0.224,0.112,-0.224,-0.938,-0.337,0.080,0.531,-0.289,-0.796,2484.83,-0.224,-0.112,-0.224,-0.628,0.128,0.768,0.462,0.590,-0.662,2460.63,-0.560,0.448,0.000,-0.352,-0.117,0.929,0.534,0.823,-0.195,9.906,5.542,0.183,-2.000,0.288,0.738,-0.610,10.531,-5.573,-4.901,-1.344,none
1.404719,0.807,0.587,0.067,2555.38,0.112,0.112,0.336,-0.885,-0.342,-0.317,0.910,0.411,-0.044,2474.71,0.224,0.336,-0.224,-0.937,-0.344,0.059,0.530,-0.288,-0.798,2492.00,-0.448,-0.224,-0.112,-0.663,0.085,0.744,0.459,0.591,-0.663,2455.36,0.560,0.448,0.112,-0.357,-0.114,0.927,0.535,0.821,-0.199,9.889,5.359,0.275,-1.893,0.288,0.733,-0.616,10.546,-5.618,-4.748,-1.298,none
1.429140,0.804,0.591,0.059,2552.98,-0.224,0.560,0.112,-0.879,-0.355,-0.318,0.907,0.420,-0.044,2473.94,-0.560,-0.112,-0.112,-0.929,-0.362,0.071,0.528,-0.287,-0.799,2499.19,-0.112,-0.112,0.112,-0.639,0.105,0.762,0.459,0.591,-0.663,2455.36,0.224,0.560,0.000,-0.350,-0.111,0.930,0.535,0.820,-0.201,9.887,5.771,0.198,-1.679,0.286,0.731,-0.619,10.528,-5.084,-4.840,-1.084,none
1.451513,0.804,0.591,0.063,2553.59,-0.224,0.560,-0.336,-0.882,-0.357,-0.307,0.908,0.416,-0.044,2469.76,-0.560,0.000,-0.112,-0.931,-0.361,0.056,0.529,-0.284,-0.800,2496.33,-0.560,-0.112,-0.112,-0.640,0.081,0.764,0.458,0.590,-0.665,2462.01,-1.007,0.783,-0.112,-0.357,-0.122,0.926,0.535,0.824,-0.188,9.932,6.412,0.092,-1.878,0.290,0.738,-0.609,10.561,-4.687,-4.779,-1.374,none
1.472189,0.808,0.586,0.055,2561.63,-0.112,0.895,-0.448,-0.893,-0.332,-0.304,0.910,0.411,-0.048,2475.13,-1.119,-0.224,0.112,-0.944,-0.327,0.041,0.530,-0.288,-0.798,2492.00,0.224,0.000,0.224,-0.651,0.121,0.749,0.461,0.593,-0.660,2465.29,-0.671,0.671,-0.224,-0.359,-0.120,0.926,0.533,0.825,-0.190,9.906,5.450,0.473,-1.695,0.287,0.738,-0.610,10.577,-5.496,-4.595,-1.160,none
1.494571,0.808,0.586,0.055,2561.63,0.112,0.224,-0.112,-0.869,-0.341,-0.359,0.913,0.407,-0.044,2478.83,-0.336,-0.224,0.224,-0.933,-0.355,0.054,0.530,-0.288,-0.798,2492.00,0.000,0.000,0.224,-0.637,0.114,0.762,0.462,0.586,-0.666,2460.73,0.112,0.783,0.000,-0.350,-0.111,0.930,0.533,0.824,-0.196,9.905,4.611,0.290,-1.145,0.286,0.734,-0.616,10.537,-5.328,-4.656,-0.611,none
1.516011,0.806,0.589,0.063,2547.47,-0.112,0.448,-0.112,-0.875,-0.359,-0.323,0.909,0.413,-0.047,2488.35,-1.007,-0.560,-0.448,-0.938,-0.344,0.037,0.530,-0.288,-0.798,2492.00,-0.560,0.000,0.224,-0.649,0.105,0.753,0.462,0.590,-0.662,2460.63,-0.224,0.448,0.000,-0.356,-0.123,0.926,0.525,0.830,-0.185,9.860,3.832,0.107,-1.588,0.286,0.738,-0.611,10.551,-5.160,-4.672,-0.977,none
1.538426,0.805,0.590,0.059,2558.61,-0.336,0.224,-0.560,-0.876,-0.345,-0.337,0.909,0.415,-0.044,2477.94,-1.455,-0.671,0.112,-0.944,-0.330,0.010,0.528,-0.281,-0.801,2481.82,-1.231,-0.112,1.119,-0.666,0.068,0.743,0.463,0.588,-0.663,2454.08,-0.895,0.783,0.112,-0.355,-0.120,0.927,0.538,0.820,-0.194,9.869,4.214,0.366,-1.725,0.297,0.736,-0.608,10.547,-5.679,-4.656,-1.069,none
1.560035,0.805,0.590,0.055,2558.85,-0.671,-0.224,0.112,-0.889,-0.340,-0.307,0.909,0.415,-0.048,2478.35,-0.895,-0.448,0.000,-0.941,-0.335,0.058,0.527,-0.285,-0.800,2483.85,-0.671,0.000,0.783,-0.639,0.105,0.762,0.459,0.587,-0.667,2456.79,-0.112,0.783,0.224,-0.356,-0.118,0.927,0.537,0.824,-0.179,9.895,2.626,0.885,-0.687,0.292,0.735,-0.612,10.513,-5.450,-4.198,-0.183,none
1.581725,0.808,0.586,0.063,2542.40,0.224,-0.448,-1.119,-0.880,-0.351,-0.320,0.910,0.411,-0.048,2475.13,-0.783,-0.112,-0.448,-0.943,-0.330,0.041,0.527,-0.289,-0.799,2486.72,-0.783,0.448,0.000,-0.635,0.097,0.766,0.458,0.590,-0.665,2462.01,0.112,0.448,-0.112,-0.359,-0.126,0.925,0.524,0.833,-0.175,9.962,-3.084,3.008,-0.733,0.276,0.751,-0.600,10.521,-6.153,-3.725,-0.992,none
1.604125,0.814,0.577,0.071,2531.90,0.224,0.448,-0.448,-0.879,-0.355,-0.318,0.912,0.408,-0.044,2470.62,0.000,-0.112,-0.895,-0.938,-0.342,0.051,0.530,-0.288,-0.798,2492.00,-0.671,-0.112,-0.224,-0.644,0.080,0.761,0.462,0.588,-0.664,2483.81,-0.336,0.671,0.336,-0.359,-0.119,0.926,0.538,0.818,-0.204,9.879,0.122,0.672,-2.366,0.286,0.736,-0.613,10.600,-8.000,-4.611,-1.893,none
1.628447,0.809,0.586,0.051,2560.29,0.224,0.560,1.790,-0.888,-0.326,-0.326,0.914,0.405,-0.036,2465.75,2.462,1.902,0.560,-0.940,-0.337,0.058,0.528,-0.291,-0.798,2501.28,-0.112,-0.112,-0.671,-0.657,0.094,0.748,0.465,0.585,-0.664,2465.36,-0.560,-0.112,0.671,-0.355,-0.115,0.928,0.537,0.820,-0.198,9.893,2.321,0.382,-1.786,0.288,0.726,-0.624,10.556,-6.534,-4.763,-1.298,none
1.652126,0.797,0.601,0.067,2564.12,0.112,0.000,0.560,-0.879,-0.365,-0.306,0.909,0.413,-0.055,2489.38,0.560,1.455,0.112,-0.941,-0.332,0.065,0.529,-0.284,-0.800,2496.33,0.000,0.000,-0.224,-0.632,0.090,0.770,0.464,0.596,-0.656,2452.13,0.224,-0.112,0.112,-0.359,-0.123,0.925,0.541,0.817,-0.200,9.868,5.130,0.183,-1.527,0.293,0.730,-0.618,10.537,-5.588,-4.550,-0.885,none
1.674872,0.804,0.592,0.055,2551.60,0.336,0.000,0.112,-0.879,-0.340,-0.333,0.910,0.411,-0.048,2475.13,-0.112,-0.336,0.560,-0.940,-0.336,0.057,0.526,-0.284,-0.802,2491.06,0.224,0.224,0.448,-0.667,0.115,0.737,0.462,0.592,-0.660,2436.88,0.224,0.112,-0.224,-0.357,-0.117,0.927,0.530,0.827,-0.188,9.876,5.618,0.336,-1.405,0.285,0.741,-0.609,10.512,-5.511,-4.611,-0.824,none
1.695945,0.813,0.580,0.056,2535.22,0.560,-0.336,-0.448,-0.878,-0.363,-0.313,0.912,0.408,-0.044,2470.62,-0.224,-0.336,0.000,-0.928,-0.361,0.093,0.526,-0.284,-0.802,2491.06,-0.112,-0.224,0.560,-0.635,0.097,0.766,0.462,0.590,-0.662,2460.63,0.112,0.336,0.112,-0.360,-0.124,0.925,0.529,0.828,-0.187,9.917,5.038,-0.183,-1.710,0.284,0.742,-0.608,10.556,-6.092,-5.084,-0.855,none
1.716954,0.809,0.585,0.059,2547.45,-0.336,-0.336,0.448,-0.881,-0.336,-0.334,0.912,0.410,-0.036,2460.70,0.783,-0.112,-0.224,-0.938,-0.339,0.066,0.530,-0.288,-0.798,2492.00,-0.224,-0.671,0.000,-0.661,0.069,0.747,0.458,0.594,-0.662,2461.36,-0.336,0.112,0.448,-0.355,-0.117,0.928,0.534,0.825,-0.182,9.923,4.809,-0.076,-2.366,0.288,0.737,-0.611,10.555,-6.473,-5.282,-1.573,none
1.739762,0.807,0.588,0.059,2554.12,-0.224,0.000,1.231,-0.883,-0.360,-0.301,0.910,0.411,-0.048,2475.13,1.119,0.895,0.112,-0.934,-0.353,0.054,0.527,-0.289,-0.799,2486.72,0.112,-0.336,-0.112,-0.644,0.104,0.758,0.463,0.592,-0.660,2453.36,0.448,0.336,0.560,-0.363,-0.115,0.925,0.537,0.822,-0.189,9.889,4.748,0.366,-2.214,0.292,0.732,-0.615,10.545,-6.412,-4.855,-1.573,none
1.760742,0.803,0.593,0.059,2565.33,-0.112,0.000,0.895,-0.875,-0.396,-0.280,0.909,0.415,-0.044,2477.94,0.448,0.448,0.336,-0.939,-0.338,0.066,0.529,-0.284,-0.800,2496.33,0.224,-0.224,0.112,-0.625,0.099,0.774,0.460,0.593,-0.661,2449.41,0.671,0.224,0.448,-0.360,-0.118,0.926,0.536,0.823,-0.187,9.890,5.344,0.412,-1.847,0.288,0.734,-0.614,10.532,-5.756,-4.718,-1.191,none
1.783655,0.806,0.589,0.059,2546.86,0.336,0.448,0.448,-0.873,-0.374,-0.312,0.908,0.415,-0.052,2478.84,0.224,0.448,0.560,-0.932,-0.358,0.055,0.527,-0.289,-0.799,2486.72,0.112,-0.112,0.112,-0.652,0.086,0.753,0.464,0.589,-0.661,2448.12,0.671,0.112,0.112,-0.353,-0.118,0.928,0.533,0.825,-0.187,9.880,5.618,0.244,-1.954,0.288,0.739,-0.609,10.515,-5.466,-4.824,-1.267,none
1.805166,0.810,0.583,0.059,2556.35,0.224,0.560,0.112,-0.876,-0.310,-0.371,0.912,0.408,-0.040,2469.29,-0.560,0.112,0.000,-0.929,-0.361,0.078,0.525,-0.292,-0.800,2496.02,0.000,-0.112,0.000,-0.649,0.088,0.756,0.462,0.590,-0.662,2460.63,-0.448,0.112,0.000,-0.347,-0.105,0.932,0.533,0.826,-0.182,9.919,5.481,0.229,-1.954,0.287,0.741,-0.607,10.558,-5.573,-4.855,-1.267,none
1.826955,0.807,0.588,0.055,2552.74,-0.336,0.560,0.112,-0.886,-0.354,-0.301,0.911,0.410,-0.048,2483.32,0.224,0.224,-0.112,-0.939,-0.339,0.058,0.525,-0.288,-0.801,2493.92,0.000,0.112,-0.224,-0.654,0.102,0.750,0.460,0.591,-0.663,2471.91,-0.448,0.224,0.224,-0.349,-0.119,0.929,0.534,0.825,-0.186,9.903,5.328,0.137,-1.863,0.290,0.737,-0.610,10.554,-5.817,-4.855,-1.115,none
1.849018,0.807,0.588,0.059,2554.12,0.112,-0.336,0.336,-0.891,-0.328,-0.312,0.909,0.415,-0.048,2478.35,0.336,0.224,-0.112,-0.943,-0.329,0.040,0.529,-0.292,-0.797,2495.70,0.112,0.112,-0.224,-0.628,0.106,0.771,0.462,0.590,-0.662,2460.63,0.336,-0.112,0.112,-0.358,-0.113,0.927,0.533,0.824,-0.191,9.890,5.511,0.137,-1.496,0.286,0.735,-0.615,10.555,-5.542,-4.641,-0.809,none
1.870082,0.806,0.589,0.063,2547.47,0.224,0.000,-0.224,-0.894,-0.344,-0.287,0.910,0.411,-0.044,2474.71,0.112,0.000,-0.224,-0.931,-0.360,0.062,0.530,-0.288,-0.798,2492.00,0.112,-0.112,-0.336,-0.645,0.094,0.758,0.463,0.592,-0.660,2453.36,-0.112,0.112,0.112,-0.360,-0.124,0.925,0.531,0.826,-0.187,9.879,5.573,0.366,-1.969,0.282,0.740,-0.611,10.519,-5.603,-4.702,-1.298,none
1.894498,0.808,0.587,0.059,2541.79,-0.224,0.336,0.224,-0.884,-0.371,-0.283,0.911,0.411,-0.032,2453.07,0.112,0.112,0.336,-0.934,-0.342,0.103,0.529,-0.284,-0.800,2496.33,0.000,-0.224,0.000,-0.653,0.112,0.749,0.464,0.589,-0.661,2448.12,-0.224,0.224,0.112,-0.351,-0.119,0.929,0.534,0.823,-0.196,9.842,5.725,-0.092,-1.954,0.286,0.733,-0.618,10.521,-5.328,-5.008,-1.267,none
1.916479,0.801,0.596,0.063,2550.70,0.112,0.560,0.336,-0.873,-0.359,-0.330,0.909,0.415,-0.048,2478.35,0.112,1.007,0.000,-0.932,-0.359,0.049,0.528,-0.287,-0.799,2499.19,-0.560,-0.336,-0.224,-0.657,0.108,0.746,0.463,0.592,-0.660,2453.36,-0.336,0.448,0.112,-0.357,-0.124,0.926,0.540,0.820,-0.188,9.919,6.794,-0.382,-1.740,0.294,0.735,-0.611,10.561,-4.321,-4.977,-1.160,none
1.939675,0.805,0.591,0.055,2572.80,-0.112,1.007,-1.119,-0.873,-0.371,-0.317,0.909,0.413,-0.047,2488.35,-1.007,0.336,-0.560,-0.934,-0.352,0.054,0.527,-0.289,-0.799,2486.72,-0.448,0.112,0.000,-0.647,0.048,0.761,0.463,0.592,-0.660,2453.36,-0.336,0.560,-0.224,-0.358,-0.122,0.926,0.528,0.828,-0.186,9.912,6.626,-0.260,-0.916,0.283,0.740,-0.610,10.547,-4.336,-4.870,-0.229,none
1.962295,0.810,0.583,0.063,2556.96,-0.448,-0.224,-1.231,-0.889,-0.320,-0.327,0.913,0.407,-0.040,2479.32,-1.007,-0.448,-0.448,-0.934,-0.354,0.040,0.528,-0.290,-0.798,2479.53,-0.448,0.112,0.000,-0.650,0.079,0.756,0.467,0.591,-0.658,2458.01,-1.231,0.560,-0.336,-0.354,-0.117,0.928,0.524,0.832,-0.180,9.920,5.725,-0.168,-1.618,0.278,0.743,-0.608,10.536,-5.313,-5.145,-0.962,none
1.984141,0.810,0.583,0.063,2556.96,-0.671,0.224,-0.336,-0.877,-0.345,-0.334,0.910,0.413,-0.036,2464.81,-0.336,-0.224,-0.224,-0.926,-0.366,0.094,0.527,-0.286,-0.800,2506.38,-0.671,-0.112,0.112,-0.639,0.105,0.762,0.462,0.594,-0.658,2459.36,-1.007,0.448,0.112,-0.352,-0.115,0.929,0.536,0.823,-0.188,9.898,5.710,-0.351,-1.893,0.289,0.734,-0.614,10.565,-5.237,-5.298,-1.145,none
2.005750,0.803,0.593,0.059,2565.33,-0.895,0.000,0.112,-0.878,-0.307,-0.367,0.908,0.416,-0.051,2492.99,-0.336,0.671,-0.336,-0.933,-0.356,0.061,0.526,-0.284,-0.802,2491.06,-0.783,-0.224,0.224,-0.655,0.079,0.752,0.462,0.594,-0.658,2459.36,0.112,0.224,0.336,-0.365,-0.128,0.922,0.538,0.823,-0.183,9.908,5.847,-0.198,-1.756,0.290,0.738,-0.609,10.558,-5.206,-5.084,-1.038,none
2.029128,0.807,0.588,0.051,2553.01,-0.448,0.224,-0.448,-0.886,-0.331,-0.326,0.908,0.416,-0.040,2468.43,0.112,0.000,-0.224,-0.934,-0.352,0.068,0.523,-0.285,-0.803,2485.81,-0.448,-0.336,0.448,-0.635,0.097,0.766,0.459,0.591,-0.663,2455.36,0.448,0.112,-0.112,-0.363,-0.121,0.924,0.534,0.824,-0.189,9.855,5.389,0.198,-1.756,0.285,0.735,-0.615,10.534,-5.695,-4.824,-1.084,none
2.053946,0.806,0.589,0.063,2547.47,-0.112,0.336,0.224,-0.886,-0.374,-0.273,0.911,0.410,-0.040,2461.08,0.336,0.448,-0.112,-0.941,-0.335,0.043,0.526,-0.284,-0.802,2491.06,-0.336,-0.560,-0.224,-0.645,0.094,0.758,0.461,0.590,-0.662,2442.83,-0.336,0.336,0.000,-0.355,-0.122,0.927,0.535,0.823,-0.190,9.877,5.924,0.031,-1.771,0.286,0.737,-0.612,10.540,-5.053,-4.779,-1.160,none
2.076961,0.807,0.588,0.055,2552.74,-0.560,0.560,-0.448,-0.895,-0.378,-0.235,0.911,0.410,-0.040,2483.40,0.112,0.336,-0.671,-0.937,-0.341,0.080,0.530,-0.284,-0.799,2489.14,-0.671,-0.336,-0.560,-0.662,0.094,0.744,0.465,0.589,-0.661,2465.27,-0.783,0.336,0.000,-0.347,-0.119,0.930,0.529,0.830,-0.180,9.946,5.847,0.076,-1.802,0.284,0.744,-0.605,10.567,-5.313,-4.809,-1.206,none
2.098743,0.812,0.581,0.059,2549.72,0.112,0.448,-0.224,-0.877,-0.353,-0.325,0.911,0.410,-0.044,2482.91,0.000,0.560,-0.448,-0.941,-0.337,0.036,0.529,-0.284,-0.800,2496.33,-0.448,-0.448,-0.336,-0.617,0.091,0.782,0.465,0.589,-0.661,2465.27,-0.560,0.224,0.112,-0.363,-0.121,0.924,0.534,0.824,-0.188,9.918,4.733,0.183,-1.893,0.290,0.737,-0.611,10.577,-6.366,-4.809,-1.359,none
2.120864,0.808,0.586,0.055,2561.63,0.224,-0.224,0.895,-0.896,-0.318,-0.309,0.911,0.410,-0.044,2482.91,0.448,0.336,0.560,-0.940,-0.339,0.028,0.529,-0.284,-0.800,2496.33,0.112,-0.112,0.000,-0.639,0.095,0.763,0.462,0.594,-0.658,2459.36,0.336,-0.112,0.112,-0.356,-0.123,0.927,0.537,0.821,-0.194,9.880,5.145,0.473,-1.115,0.287,0.732,-0.618,10.525,-5.817,-4.519,-0.580,none
2.143340,0.797,0.600,0.071,2550.76,0.224,-0.448,0.000,-0.889,-0.349,-0.297,0.910,0.413,-0.040,2465.19,-0.112,0.000,0.112,-0.942,-0.331,0.064,0.526,-0.284,-0.802,2491.06,0.000,0.224,0.224,-0.669,0.085,0.738,0.463,0.592,-0.660,2453.36,0.112,-0.448,-0.112,-0.365,-0.128,0.922,0.530,0.826,-0.192,9.830,5.817,0.168,-1.466,0.279,0.735,-0.618,10.481,-5.237,-4.763,-0.840,none
2.165455,0.806,0.589,0.059,2546.86,0.224,0.224,-0.112,-0.867,-0.342,-0.363,0.908,0.416,-0.040,2468.43,-0.336,-0.224,-0.336,-0.938,-0.342,0.051,0.529,-0.284,-0.800,2496.33,-0.336,0.000,0.448,-0.665,0.112,0.738,0.463,0.592,-0.660,2453.36,-0.560,0.336,0.000,-0.361,-0.122,0.925,0.536,0.823,-0.190,9.882,5.939,-0.107,-1.664,0.288,0.734,-0.615,10.539,-5.099,-5.008,-1.008,none
2.187846,0.807,0.588,0.059,2554.12,-0.112,0.560,-0.336,-0.871,-0.330,-0.365,0.909,0.415,-0.044,2477.94,-0.560,0.112,-0.560,-0.940,-0.337,0.058,0.527,-0.281,-0.802,2487.43,-0.560,-0.336,0.112,-0.650,0.105,0.752,0.462,0.594,-0.658,2459.36,-1.007,0.671,0.112,-0.358,-0.113,0.927,0.532,0.826,-0.186,9.902,6.198,-0.244,-1.511,0.287,0.738,-0.611,10.557,-4.824,-4.977,-0.885,none
2.210279,0.807,0.588,0.059,2554.12,-0.336,0.000,-0.783,-0.889,-0.315,-0.332,0.910,0.413,-0.044,2464.70,-0.448,-0.224,-0.560,-0.941,-0.335,0.058,0.523,-0.285,-0.803,2485.81,-0.336,0.112,0.000,-0.630,0.075,0.773,0.463,0.592,-0.660,2453.36,-0.448,0.448,0.000,-0.356,-0.117,0.927,0.533,0.827,-0.180,9.918,5.725,0.076,-1.740,0.286,0.741,-0.607,10.555,-5.344,-4.809,-1.206,none
2.233822,0.808,0.586,0.059,2561.39,-0.224,0.336,0.112,-0.880,-0.339,-0.332,0.910,0.411,-0.044,2474.71,0.112,0.224,-0.224,-0.938,-0.343,0.052,0.526,-0.284,-0.802,2491.06,-0.336,-0.336,0.000,-0.631,0.099,0.770,0.463,0.592,-0.660,2453.36,-0.336,0.224,0.224,-0.366,-0.128,0.922,0.535,0.823,-0.192,9.926,5.389,0.244,-1.710,0.289,0.738,-0.609,10.556,-5.664,-4.748,-1.130,none
2.258128,0.807,0.588,0.059,2567.48,0.336,0.336,0.224,-0.881,-0.319,-0.350,0.910,0.412,-0.040,2473.38,0.112,0.224,0.000,-0.936,-0.348,0.052,0.524,-0.283,-0.803,2498.28,0.112,-0.112,-0.112,-0.633,0.114,0.766,0.462,0.590,-0.662,2460.63,0.224,0.000,0.000,-0.351,-0.114,0.930,0.533,0.824,-0.190,9.884,5.634,0.061,-1.282,0.287,0.736,-0.613,10.552,-5.374,-4.733,-0.687,none
2.280652,0.805,0.590,0.063,2559.22,0.224,-0.112,-0.336,-0.885,-0.332,-0.327,0.909,0.415,-0.044,2477.94,0.000,0.224,-0.112,-0.938,-0.346,0.037,0.525,-0.288,-0.801,2493.92,0.112,0.336,-0.224,-0.645,0.080,0.760,0.461,0.593,-0.660,2465.29,-0.336,-0.112,-0.224,-0.361,-0.118,0.925,0.531,0.826,-0.187,9.902,5.649,0.137,-1.527,0.285,0.740,-0.609,10.557,-5.420,-4.748,-0.962,none
2.303001,0.809,0.585,0.059,2547.45,0.000,0.336,-0.112,-0.888,-0.326,-0.326,0.910,0.412,-0.040,2473.38,-0.224,0.000,-0.336,-0.937,-0.344,0.059,0.526,-0.284,-0.802,2491.06,-0.112,0.000,-0.224,-0.647,0.087,0.757,0.463,0.592,-0.660,2453.36,-0.336,0.224,0.000,-0.354,-0.116,0.928,0.534,0.823,-0.192,9.886,5.450,0.153,-1.481,0.288,0.735,-0.614,10.528,-5.573,-4.809,-0.840,none
2.325422,0.804,0.591,0.063,2553.59,0.000,-0.112,0.000,-0.876,-0.338,-0.346,0.909,0.415,-0.040,2478.43,0.224,0.000,-0.560,-0.930,-0.360,0.071,0.526,-0.284,-0.802,2491.06,-0.112,-0.112,-0.448,-0.670,0.075,0.738,0.465,0.593,-0.657,2447.44,-0.224,0.112,0.112,-0.349,-0.113,0.930,0.531,0.826,-0.188,9.869,5.740,0.137,-1.557,0.282,0.738,-0.613,10.509,-5.267,-4.779,-0.977,none
2.348161,0.808,0.585,0.067,2548.71,-0.224,0.224,-0.336,-0.887,-0.337,-0.316,0.910,0.413,-0.040,2465.19,0.000,-0.112,-0.448,-0.929,-0.365,0.057,0.526,-0.284,-0.802,2491.06,-0.448,-0.336,-0.336,-0.641,0.073,0.764,0.468,0.592,-0.656,2452.10,-0.448,-0.112,0.112,-0.357,-0.117,0.927,0.530,0.826,-0.192,9.859,5.389,-0.153,-1.924,0.282,0.735,-0.617,10.544,-5.588,-5.008,-1.145,none
2.368704,0.802,0.593,0.071,2546.03,-0.560,0.112,0.224,-0.883,-0.386,-0.266,0.907,0.420,-0.044,2473.94,-0.671,0.000,0.112,-0.942,-0.331,0.049,0.526,-0.284,-0.802,2491.06,-0.560,-0.224,-0.224,-0.634,0.083,0.769,0.466,0.593,-0.657,2464.00,-0.448,0.671,0.224,-0.362,-0.130,0.923,0.538,0.821,-0.193,9.917,6.061,-0.336,-2.137,0.290,0.732,-0.617,10.607,-5.023,-5.053,-1.496,none
2.390782,0.802,0.594,0.063,2558.72,-0.224,1.007,-0.336,-0.879,-0.347,-0.326,0.909,0.415,-0.044,2477.94,0.112,0.895,-0.224,-0.945,-0.327,0.025,0.526,-0.284,-0.802,2491.06,-0.112,-0.112,-0.112,-0.649,0.089,0.755,0.466,0.593,-0.657,2464.00,-0.560,0.224,0.224,-0.353,-0.111,0.929,0.538,0.822,-0.186,9.949,5.939,0.519,-1.466,0.290,0.737,-0.611,10.604,-5.130,-4.305,-1.008,none
2.414366,0.810,0.584,0.059,2569.48,0.560,0.336,-0.560,-0.886,-0.353,-0.299,0.909,0.413,-0.051,2488.84,0.000,0.336,0.224,-0.938,-0.342,0.059,0.529,-0.284,-0.800,2496.33,0.112,0.000,0.224,-0.627,0.092,0.774,0.465,0.589,-0.661,2465.27,0.112,0.000,-0.336,-0.361,-0.128,0.924,0.524,0.831,-0.186,9.900,5.389,0.443,-1.053,0.276,0.743,-0.610,10.499,-5.527,-4.519,-0.626,none
2.439211,0.811,0.581,0.075,2532.74,0.336,-0.224,-0.224,-0.875,-0.356,-0.330,0.911,0.410,-0.040,2461.08,0.000,0.000,0.000,-0.932,-0.359,0.049,0.528,-0.287,-0.799,2499.19,-0.224,0.000,0.000,-0.642,0.074,0.763,0.467,0.591,-0.658,2458.01,-0.112,0.112,0.112,-0.361,-0.124,0.924,0.531,0.825,-0.195,9.894,5.756,-0.351,-2.061,0.283,0.734,-0.617,10.535,-5.191,-5.374,-1.389,none
2.460215,0.803,0.591,0.074,2554.78,-1.007,0.336,0.000,-0.872,-0.360,-0.332,0.908,0.417,-0.036,2468.05,-0.671,-0.671,-0.560,-0.939,-0.343,0.029,0.527,-0.283,-0.801,2503.54,-0.671,-0.224,0.448,-0.631,0.099,0.770,0.462,0.594,-0.658,2459.36,-0.671,0.224,0.560,-0.364,-0.131,0.922,0.541,0.822,-0.180,9.922,5.924,-0.122,-1.832,0.293,0.737,-0.610,10.561,-5.084,-5.053,-1.160,none
2.482648,0.805,0.590,0.055,2558.85,-0.783,0.224,-0.336,-0.887,-0.328,-0.323,0.908,0.416,-0.047,2492.50,-0.783,0.560,-0.336,-0.937,-0.347,0.045,0.524,-0.281,-0.804,2482.18,-0.336,0.112,0.224,-0.647,0.072,0.759,0.459,0.595,-0.659,2454.09,-0.448,0.448,0.112,-0.358,-0.120,0.926,0.532,0.826,-0.183,9.902,5.374,0.290,-1.710,0.287,0.738,-0.610,10.524,-5.649,-4.702,-1.038,none
2.506270,0.808,0.586,0.063,2542.40,-0.224,-0.336,0.112,-0.886,-0.345,-0.311,0.910,0.412,-0.040,2473.38,0.560,0.000,-0.336,-0.937,-0.347,0.053,0.525,-0.288,-0.801,2493.92,-0.224,-0.448,0.224,-0.658,0.111,0.744,0.463,0.592,-0.660,2453.36,0.671,0.224,0.000,-0.349,-0.116,0.930,0.529,0.826,-0.192,9.890,5.466,0.015,-1.924,0.281,0.739,-0.612,10.547,-5.588,-4.916,-1.282,none
2.527730,0.808,0.585,0.063,2548.06,0.000,-0.112,0.224,-0.880,-0.327,-0.345,0.910,0.411,-0.044,2474.71,0.336,0.000,0.000,-0.926,-0.369,0.079,0.527,-0.289,-0.799,2486.72,-0.112,-0.112,-0.448,-0.630,0.085,0.772,0.467,0.591,-0.658,2458.01,0.224,0.112,0.224,-0.349,-0.121,0.929,0.534,0.824,-0.190,9.921,5.282,-0.137,-1.710,0.288,0.737,-0.612,10.566,-5.832,-5.084,-0.809,none
2.550416,0.805,0.591,0.059,2572.57,-0.560,-0.448,0.448,-0.892,-0.355,-0.280,0.910,0.412,-0.044,2497.04,0.112,0.224,-0.224,-0.928,-0.365,0.071,0.527,-0.286,-0.800,2506.38,0.224,0.000,-0.224,-0.642,0.134,0.755,0.466,0.593,-0.657,2464.00,-0.336,0.112,0.000,-0.358,-0.118,0.926,0.532,0.825,-0.190,9.893,5.481,0.122,-1.359,0.283,0.734,-0.617,10.547,-5.634,-4.748,-0.641,none
2.571512,0.805,0.589,0.067,2548.13,0.448,-0.336,0.112,-0.887,-0.371,-0.276,0.908,0.416,-0.044,2469.76,0.000,0.000,0.000,-0.936,-0.345,0.067,0.526,-0.284,-0.802,2491.06,0.224,0.112,0.000,-0.645,0.080,0.760,0.468,0.592,-0.656,2452.10,-0.671,-0.112,-0.112,-0.360,-0.126,0.924,0.529,0.826,-0.192,9.868,5.496,0.153,-1.374,0.282,0.737,-0.615,10.532,-5.542,-4.763,-0.687,none
2.592753,0.806,0.588,0.067,2534.99,0.112,-0.336,-0.112,-0.878,-0.315,-0.359,0.908,0.417,-0.036,2468.05,0.000,-0.448,-0.112,-0.935,-0.349,0.060,0.531,-0.281,-0.800,2487.11,-0.112,0.000,0.336,-0.648,0.064,0.759,0.465,0.593,-0.657,2447.44,0.000,0.224,0.000,-0.348,-0.112,0.931,0.529,0.827,-0.189,9.867,5.374,-0.489,-1.359,0.287,0.740,-0.609,10.521,-5.710,-5.557,-0.397,none
2.613957,0.812,0.581,0.055,2549.96,-0.448,-1.455,0.224,-0.878,-0.365,-0.309,0.910,0.412,-0.040,2473.38,-0.224,-0.560,-0.560,-0.937,-0.347,0.037,0.527,-0.281,-0.802,2487.43,-0.783,-0.336,0.000,-0.662,0.070,0.746,0.465,0.589,-0.661,2465.27,-0.224,0.224,0.336,-0.358,-0.130,0.925,0.533,0.826,-0.185,9.921,4.794,-0.611,-0.992,0.287,0.739,-0.609,10.565,-6.061,-5.679,0.107,none
2.637180,0.802,0.594,0.067,2559.36,-0.448,-2.686,0.895,-0.880,-0.355,-0.316,0.908,0.416,-0.040,2468.43,0.224,-0.671,-0.448,-0.933,-0.351,0.076,0.530,-0.284,-0.799,2489.14,-0.783,-0.336,0.000,-0.667,0.102,0.738,0.462,0.594,-0.658,2459.36,-0.448,-0.224,0.448,-0.359,-0.121,0.925,0.533,0.825,-0.190,9.863,4.901,-0.504,-1.282,0.285,0.738,-0.611,10.486,-5.939,-6.687,-0.122,none
2.659211,0.809,0.588,0.005,2620.34,0.000,-1.343,0.783,-0.883,-0.321,-0.341,0.905,0.423,-0.048,2477.24,0.336,-0.112,-0.224,-0.940,-0.337,0.057,0.527,-0.277,-0.803,2484.64,-0.560,0.000,0.224,-0.645,0.094,0.758,0.460,0.595,-0.659,2471.23,0.112,1.679,0.448,-0.363,-0.128,0.923,0.535,0.825,-0.184,9.916,5.328,0.183,-1.023,0.285,0.733,-0.618,10.539,-5.450,-5.313,-0.168,none
2.681634,0.793,0.605,0.070,2562.02,-1.007,0.000,0.336,-0.892,-0.367,-0.266,0.914,0.403,-0.048,2476.11,0.224,0.112,-0.224,-0.927,-0.367,0.072,0.526,-0.284,-0.802,2491.06,-0.112,0.224,-0.112,-0.640,0.073,0.765,0.462,0.594,-0.658,2459.36,0.671,0.224,0.000,-0.360,-0.121,0.925,0.539,0.822,-0.184,9.912,5.603,-0.656,-1.359,0.293,0.739,-0.607,10.539,-5.466,-5.344,-0.366,none
2.703741,0.814,0.577,0.060,2530.82,0.336,-1.790,-0.112,-0.886,-0.357,-0.297,0.909,0.414,-0.044,2458.34,0.448,-0.448,-0.112,-0.933,-0.351,0.076,0.527,-0.285,-0.800,2483.85,-0.336,0.224,-0.112,-0.649,0.088,0.756,0.462,0.594,-0.658,2459.36,0.224,0.224,0.000,-0.355,-0.121,0.927,0.530,0.829,-0.180,9.892,4.382,-0.656,-1.603,0.279,0.742,-0.610,10.520,-6.641,-5.176,-0.885,none
2.726946,0.814,0.578,0.055,2544.16,0.448,-1.231,0.783,-0.880,-0.362,-0.309,0.910,0.413,-0.044,2464.70,0.448,-0.336,0.000,-0.942,-0.334,0.033,0.526,-0.284,-0.802,2491.06,0.000,-0.112,-0.224,-0.655,0.103,0.749,0.467,0.591,-0.658,2458.01,0.000,0.224,0.336,-0.358,-0.122,0.926,0.533,0.825,-0.191,9.913,5.038,-0.443,-1.511,0.286,0.737,-0.613,10.549,-5.908,-5.466,-0.534,none
2.748164,0.802,0.594,0.059,2558.11,-1.007,-1.567,1.119,-0.873,-0.378,-0.307,0.907,0.418,-0.044,2482.10,0.112,-0.112,-0.448,-0.936,-0.347,0.060,0.524,-0.283,-0.803,2498.28,-0.336,0.112,-0.336,-0.646,0.096,0.758,0.466,0.593,-0.657,2464.00,-0.336,-0.224,0.224,-0.349,-0.117,0.930,0.537,0.822,-0.187,9.901,5.466,0.076,-1.374,0.287,0.734,-0.616,10.538,-5.588,-4.779,-0.748,none
2.770536,0.805,0.589,0.067,2548.13,0.336,0.112,-0.224,-0.883,-0.397,-0.250,0.908,0.416,-0.044,2469.76,-0.112,0.112,-0.224,-0.936,-0.347,0.060,0.526,-0.284,-0.802,2491.06,0.112,0.112,-0.112,-0.655,0.105,0.748,0.467,0.595,-0.655,2456.79,-0.224,-0.112,-0.112,-0.355,-0.125,0.926,0.530,0.827,-0.186,9.870,5.511,0.198,-1.588,0.281,0.737,-0.614,10.527,-5.588,-4.687,-1.084,none
2.793508,0.809,0.585,0.059,2547.45,0.112,0.224,-0.112,-0.886,-0.345,-0.308,0.910,0.413,-0.044,2464.70,0.112,-0.112,0.000,-0.941,-0.335,0.050,0.526,-0.284,-0.802,2491.06,0.000,0.000,-0.224,-0.643,0.115,0.757,0.468,0.592,-0.656,2452.10,-0.112,0.112,0.000,-0.358,-0.119,0.926,0.529,0.826,-0.192,9.885,5.252,-0.153,-2.000,0.283,0.735,-0.617,10.555,-5.985,-5.099,-1.282,none
2.817789,0.805,0.589,0.067,2548.13,-0.336,-0.112,0.671,-0.880,-0.327,-0.345,0.908,0.416,-0.044,2469.76,0.336,-0.224,0.112,-0.930,-0.359,0.085,0.530,-0.280,-0.801,2492.71,-0.112,-0.112,-0.224,-0.635,0.106,0.765,0.466,0.593,-0.657,2464.00,0.224,0.336,0.448,-0.358,-0.117,0.926,0.536,0.822,-0.195,9.907,5.420,-0.229,-1.847,0.287,0.732,-0.618,10.569,-5.588,-5.130,-1.099,none
2.839266,0.802,0.594,0.063,2558.72,-0.448,-0.224,0.448,-0.894,-0.332,-0.301,0.907,0.418,-0.044,2482.10,-0.224,-0.112,0.112,-0.941,-0.335,0.050,0.526,-0.278,-0.804,2509.56,-0.224,0.112,-0.224,-0.658,0.062,0.751,0.464,0.592,-0.659,2469.92,0.224,0.224,0.112,-0.366,-0.122,0.923,0.538,0.821,-0.189,9.922,6.107,0.092,-1.466,0.290,0.733,-0.616,10.576,-4.931,-4.565,-0.947,none
2.861394,0.804,0.593,0.051,2564.23,0.224,0.671,-0.560,-0.872,-0.378,-0.312,0.908,0.418,-0.040,2482.59,0.000,0.112,0.112,-0.931,-0.360,0.057,0.524,-0.283,-0.803,2498.28,0.112,0.112,0.000,-0.623,0.083,0.778,0.466,0.593,-0.657,2464.00,-0.448,0.112,-0.336,-0.356,-0.125,0.926,0.531,0.827,-0.184,9.891,5.710,0.534,-1.099,0.282,0.739,-0.611,10.552,-5.344,-4.275,-0.565,none
2.883959,0.814,0.578,0.063,2544.54,1.119,-0.224,-0.448,-0.880,-0.327,-0.345,0.910,0.412,-0.040,2473.38,0.336,0.000,0.448,-0.929,-0.363,0.078,0.527,-0.285,-0.800,2483.85,0.560,-0.112,0.112,-0.664,0.086,0.743,0.467,0.591,-0.658,2458.01,-0.560,-0.224,-0.112,-0.359,-0.117,0.926,0.523,0.830,-0.192,9.870,5.481,0.092,-1.527,0.274,0.740,-0.614,10.513,-5.649,-4.855,-1.008,none
2.904898,0.808,0.585,0.071,2550.14,0.000,0.112,0.112,-0.873,-0.345,-0.345,0.908,0.416,-0.044,2469.76,-0.336,-0.224,-0.224,-0.937,-0.339,0.081,0.529,-0.284,-0.800,2496.33,0.000,-0.112,0.112,-0.639,0.105,0.762,0.467,0.595,-0.655,2456.79,0.448,0.112,0.336,-0.354,-0.119,0.928,0.537,0.822,-0.189,9.875,5.710,-0.305,-1.832,0.290,0.734,-0.615,10.559,-5.282,-5.267,-1.053,none
2.927227,0.803,0.593,0.055,2563.96,-0.560,0.224,0.112,-0.880,-0.324,-0.348,0.907,0.418,-0.044,2482.10,-0.671,-0.448,-0.224,-0.939,-0.337,0.073,0.526,-0.284,-0.802,2491.06,-0.448,0.112,0.336,-0.642,0.088,0.762,0.466,0.593,-0.657,2464.00,0.112,0.224,0.112,-0.349,-0.119,0.929,0.536,0.824,-0.185,9.890,5.802,-0.015,-1.389,0.289,0.738,-0.610,10.530,-5.191,-4.824,-0.748,none
2.948598,0.808,0.586,0.055,2561.63,-0.112,0.000,-0.448,-0.872,-0.374,-0.315,0.907,0.420,-0.048,2474.35,-0.560,-0.224,0.112,-0.939,-0.336,0.065,0.527,-0.281,-0.802,2487.43,-0.112,0.224,0.336,-0.636,0.088,0.767,0.463,0.592,-0.660,2453.36,0.000,0.000,-0.112,-0.355,-0.122,0.927,0.532,0.826,-0.185,9.863,5.695,0.061,-1.450,0.284,0.739,-0.611,10.510,-5.450,-4.718,-0.794,none
2.971172,0.809,0.584,0.060,2535.13,0.112,-0.224,-0.112,-0.886,-0.357,-0.297,0.908,0.416,-0.044,2469.76,-0.448,-0.336,-0.112,-0.943,-0.334,0.005,0.527,-0.285,-0.800,2483.85,-0.224,-0.112,0.000,-0.641,0.087,0.763,0.462,0.594,-0.658,2459.36,-0.224,0.000,-0.112,-0.354,-0.119,0.927,0.531,0.827,-0.184,9.898,5.527,-0.061,-1.832,0.287,0.742,-0.606,10.511,-5.588,-4.977,-1.160,none
2.992818,0.812,0.582,0.055,2563.08,0.000,-0.224,0.336,-0.889,-0.359,-0.283,0.911,0.410,-0.040,2483.40,0.224,0.000,-0.336,-0.940,-0.334,0.065,0.527,-0.285,-0.800,2483.85,0.000,-0.112,-0.224,-0.665,0.076,0.743,0.462,0.590,-0.662,2460.63,0.112,0.112,0.112,-0.360,-0.115,0.926,0.533,0.825,-0.188,9.933,5.298,0.122,-1.496,0.286,0.738,-0.612,10.580,-5.817,-4.855,-0.809,none
3.016110,0.803,0.592,0.063,2565.94,0.224,-0.671,0.448,-0.887,-0.334,-0.318,0.910,0.413,-0.040,2486.61,0.224,0.112,-0.224,-0.937,-0.345,0.051,0.527,-0.283,-0.801,2503.54,0.224,-0.112,-0.224,-0.672,0.068,0.738,0.465,0.589,-0.661,2465.27,0.000,-0.112,-0.112,-0.361,-0.122,0.925,0.532,0.824,-0.193,9.887,5.573,0.168,-1.252,0.282,0.734,-0.618,10.541,-5.511,-4.580,-0.611,none
3.036264,0.808,0.585,0.063,2548.06,0.448,0.000,-0.112,-0.888,-0.334,-0.315,0.910,0.411,-0.044,2474.71,0.112,0.112,0.000,-0.936,-0.346,0.067,0.527,-0.281,-0.802,2487.43,0.112,0.000,0.000,-0.632,0.092,0.769,0.468,0.592,-0.656,2452.10,-0.671,-0.336,-0.112,-0.353,-0.114,0.929,0.533,0.824,-0.191,9.853,5.740,-0.092,-1.374,0.285,0.735,-0.616,10.527,-5.313,-4.840,-0.718,none
3.059009,0.808,0.587,0.059,2541.79,0.224,0.000,-0.336,-0.878,-0.328,-0.349,0.908,0.416,-0.044,2469.76,-0.336,-0.112,-0.112,-0.933,-0.354,0.061,0.527,-0.277,-0.803,2484.64,-0.112,0.112,0.224,-0.625,0.100,0.774,0.464,0.596,-0.656,2452.13,-1.007,0.112,0.000,-0.358,-0.122,0.926,0.532,0.825,-0.189,9.879,5.725,0.046,-1.435,0.284,0.737,-0.614,10.529,-5.313,-4.733,-0.870,none
3.083489,0.807,0.588,0.059,2554.12,-0.112,-0.112,-0.112,-0.891,-0.332,-0.309,0.908,0.416,-0.044,2469.76,0.112,-0.448,-0.448,-0.936,-0.351,0.038,0.526,-0.284,-0.802,2491.06,-0.448,-0.448,0.224,-0.645,0.094,0.758,0.462,0.594,-0.658,2459.36,-0.112,0.000,0.000,-0.356,-0.123,0.927,0.532,0.825,-0.192,9.887,5.679,0.092,-1.679,0.286,0.733,-0.617,10.555,-5.389,-4.748,-1.084,none
3.104064,0.805,0.590,0.059,2558.61,0.224,0.671,-0.224,-0.891,-0.343,-0.298,0.908,0.418,-0.040,2482.59,-0.336,-0.112,-0.224,-0.940,-0.334,0.072,0.526,-0.284,-0.802,2491.06,-0.224,-0.336,0.224,-0.658,0.096,0.747,0.462,0.594,-0.658,2459.36,-0.224,0.448,0.224,-0.353,-0.121,0.928,0.536,0.824,-0.186,9.906,5.985,-0.107,-1.527,0.288,0.734,-0.615,10.570,-5.115,-4.870,-0.824,none
3.127694,0.803,0.593,0.059,2565.33,-0.336,-0.224,-0.224,-0.886,-0.331,-0.326,0.907,0.420,-0.040,2472.61,-0.336,0.112,0.000,-0.936,-0.347,0.053,0.525,-0.280,-0.804,2496.27,-0.448,0.112,0.336,-0.652,0.047,0.757,0.467,0.595,-0.655,2456.79,-0.448,0.448,-0.112,-0.355,-0.114,0.928,0.532,0.825,-0.189,9.881,6.031,0.076,-1.511,0.284,0.737,-0.613,10.535,-4.962,-4.641,-0.870,none
3.150410,0.812,0.581,0.055,2549.96,-0.224,0.560,-0.560,-0.876,-0.374,-0.306,0.910,0.413,-0.044,2464.70,-0.336,0.336,-0.112,-0.936,-0.351,0.022,0.524,-0.283,-0.803,2498.28,-0.448,0.000,-0.112,-0.627,0.083,0.774,0.463,0.592,-0.660,2453.36,-0.560,0.336,-0.112,-0.359,-0.121,0.925,0.531,0.828,-0.182,9.897,5.634,-0.046,-1.588,0.283,0.741,-0.609,10.518,-5.405,-4.809,-0.962,none
3.170959,0.809,0.585,0.059,2547.45,-0.112,-0.112,0.000,-0.900,-0.330,-0.284,0.910,0.413,-0.040,2465.19,-0.224,0.000,-0.224,-0.938,-0.339,0.066,0.524,-0.283,-0.803,2498.28,-0.112,-0.448,-0.224,-0.646,0.064,0.760,0.462,0.594,-0.658,2459.36,-0.112,0.112,0.000,-0.362,-0.128,0.923,0.534,0.825,-0.187,9.854,5.420,0.275,-2.031,0.286,0.738,-0.611,10.521,-5.679,-4.672,-1.634,none
3.191801,0.809,0.586,0.051,2560.29,-0.224,0.560,0.336,-0.892,-0.351,-0.284,0.908,0.416,-0.044,2469.76,-0.112,0.560,0.000,-0.932,-0.354,0.077,0.526,-0.284,-0.802,2491.06,-0.224,0.000,-0.336,-0.664,0.086,0.743,0.467,0.591,-0.658,2458.01,0.112,0.224,0.224,-0.357,-0.116,0.927,0.535,0.822,-0.193,9.863,5.893,0.000,-1.695,0.289,0.732,-0.617,10.541,-5.130,-4.794,-1.069,none
3.212784,0.805,0.590,0.063,2559.22,-0.112,0.560,-0.336,-0.886,-0.354,-0.301,0.907,0.418,-0.048,2482.51,-0.224,0.560,-0.448,-0.935,-0.349,0.069,0.530,-0.280,-0.801,2492.71,-0.112,0.000,-0.448,-0.661,0.037,0.749,0.462,0.594,-0.658,2459.36,-0.336,0.224,0.000,-0.355,-0.119,0.927,0.534,0.824,-0.188,9.913,6.107,-0.122,-1.557,0.288,0.737,-0.611,10.551,-4.977,-4.718,-0.916,none
3.235044,0.808,0.586,0.055,2561.63,0.112,0.560,-0.560,-0.884,-0.351,-0.310,0.907,0.418,-0.044,2482.10,-0.336,0.000,-0.112,-0.935,-0.342,0.089,0.527,-0.281,-0.802,2487.43,0.000,0.000,-0.112,-0.663,0.060,0.747,0.466,0.593,-0.657,2464.00,-1.119,0.000,-0.112,-0.352,-0.121,0.928,0.529,0.828,-0.183,9.930,5.511,0.412,-1.618,0.282,0.741,-0.610,10.551,-5.618,-4.443,-1.038,none
3.256029,0.811,0.581,0.059,2564.46,0.224,-0.112,0.000,-0.880,-0.362,-0.309,0.910,0.411,-0.044,2474.71,0.895,0.224,0.112,-0.931,-0.359,0.064,0.525,-0.280,-0.804,2496.27,0.224,0.224,-0.224,-0.652,0.086,0.753,0.468,0.592,-0.656,2452.10,0.000,0.000,0.000,-0.347,-0.106,0.932,0.528,0.827,-0.191,9.874,4.916,0.351,-1.878,0.279,0.735,-0.618,10.527,-6.244,-4.687,-1.252,none
3.279824,0.808,0.585,0.067,2548.71,0.448,-0.112,0.783,-0.878,-0.352,-0.324,0.908,0.416,-0.040,2468.43,0.448,0.336,0.000,-0.934,-0.356,0.033,0.527,-0.281,-0.802,2487.43,-0.112,-0.112,-0.112,-0.650,0.095,0.754,0.467,0.595,-0.655,2456.79,0.783,0.000,0.336,-0.352,-0.124,0.928,0.535,0.822,-0.198,9.863,5.450,-0.046,-1.893,0.284,0.730,-0.622,10.552,-5.618,-4.992,-1.160,none
3.301727,0.804,0.591,0.067,2554.24,0.112,0.448,0.000,-0.885,-0.353,-0.304,0.908,0.417,-0.036,2468.05,-0.224,0.224,0.224,-0.943,-0.329,0.041,0.530,-0.280,-0.801,2492.71,-0.448,-0.224,-0.112,-0.637,0.114,0.762,0.464,0.596,-0.656,2452.13,0.224,0.336,0.112,-0.357,-0.121,0.926,0.534,0.824,-0.191,9.920,6.229,0.046,-2.046,0.286,0.736,-0.613,10.543,-4.916,-4.824,-1.542,none
3.322712,0.805,0.590,0.055,2558.85,-0.560,0.895,-0.448,-0.886,-0.365,-0.285,0.907,0.420,-0.040,2472.61,-0.224,0.448,0.112,-0.928,-0.364,0.079,0.524,-0.283,-0.803,2498.28,0.000,-0.112,0.000,-0.662,0.070,0.746,0.466,0.597,-0.653,2462.75,-0.671,0.448,-0.336,-0.351,-0.120,0.929,0.532,0.826,-0.187,9.942,5.725,0.656,-1.435,0.287,0.739,-0.609,10.557,-5.389,-4.229,-0.931,none
3.344628,0.810,0.583,0.059,2556.35,0.000,0.336,-0.224,-0.880,-0.344,-0.326,0.911,0.410,-0.044,2482.91,0.336,0.224,0.448,-0.937,-0.343,0.059,0.526,-0.284,-0.802,2491.06,0.000,0.112,-0.112,-0.648,0.065,0.759,0.468,0.592,-0.656,2452.10,-0.448,0.000,-0.336,-0.350,-0.105,0.931,0.523,0.831,-0.191,9.876,5.298,0.015,-1.603,0.276,0.739,-0.615,10.532,-5.710,-4.870,-0.931,none
3.366275,0.811,0.581,0.071,2532.01,0.336,-0.112,-0.112,-0.875,-0.341,-0.343,0.910,0.413,-0.040,2465.19,-0.560,0.000,-0.224,-0.933,-0.351,0.076,0.529,-0.284,-0.800,2496.33,-0.336,-0.112,-0.112,-0.660,0.087,0.746,0.468,0.596,-0.652,2450.25,0.112,0.112,0.448,-0.356,-0.122,0.927,0.531,0.825,-0.192,9.882,5.496,-0.198,-2.229,0.281,0.734,-0.618,10.543,-5.634,-5.267,-1.542,none
3.388862,0.807,0.588,0.063,2554.73,-1.007,0.336,0.448,-0.880,-0.347,-0.323,0.908,0.418,-0.036,2461.69,-0.895,0.224,0.112,-0.938,-0.340,0.066,0.528,-0.279,-0.802,2501.53,-0.448,-0.112,0.448,-0.648,0.079,0.757,0.462,0.594,-0.658,2459.36,0.112,0.448,0.671,-0.365,-0.119,0.923,0.537,0.823,-0.186,9.892,5.847,0.061,-2.260,0.290,0.737,-0.611,10.534,-5.313,-5.038,-1.450,none
3.411381,0.803,0.593,0.055,2563.96,-0.336,0.336,0.224,-0.891,-0.340,-0.301,0.906,0.421,-0.047,2487.20,-1.007,0.448,0.224,-0.929,-0.361,0.078,0.525,-0.276,-0.805,2493.49,-0.112,-0.224,0.448,-0.644,0.080,0.761,0.464,0.596,-0.656,2452.13,-0.112,0.224,0.448,-0.363,-0.120,0.924,0.534,0.824,-0.190,9.842,5.527,0.489,-1.664,0.288,0.737,-0.612,10.513,-5.618,-4.580,-1.008,none
3.436606,0.809,0.585,0.059,2547.45,0.448,0.112,-0.224,-0.884,-0.358,-0.302,0.910,0.413,-0.040,2465.19,0.000,0.112,0.000,-0.933,-0.355,0.054,0.524,-0.286,-0.802,2478.59,0.112,-0.112,0.448,-0.645,0.056,0.763,0.468,0.588,-0.660,2452.78,0.448,0.448,-0.112,-0.353,-0.121,0.928,0.528,0.828,-0.188,9.850,6.076,-0.305,-1.802,0.281,0.739,-0.613,10.514,-5.008,-4.947,-1.145,none
3.459120,0.807,0.586,0.067,2543.06,-0.336,0.112,-0.336,-0.874,-0.329,-0.358,0.909,0.414,-0.036,2456.62,0.224,0.000,-0.560,-0.931,-0.360,0.056,0.526,-0.284,-0.802,2491.06,-0.448,-0.336,-0.336,-0.634,0.083,0.769,0.467,0.591,-0.658,2458.01,-0.112,0.560,0.000,-0.355,-0.122,0.927,0.531,0.827,-0.185,9.913,6.168,-0.244,-1.710,0.282,0.739,-0.612,10.548,-4.947,-5.053,-1.099,none
3.481707,0.810,0.583,0.063,2556.96,-0.336,0.224,-0.336,-0.885,-0.357,-0.299,0.909,0.415,-0.036,2478.05,-0.448,0.783,-0.560,-0.940,-0.335,0.059,0.530,-0.280,-0.801,2492.71,-0.560,-0.112,-0.224,-0.643,0.065,0.763,0.468,0.595,-0.654,2473.95,-0.671,0.112,0.224,-0.354,-0.119,0.927,0.531,0.826,-0.190,9.921,5.847,0.015,-1.802,0.283,0.736,-0.615,10.552,-5.282,-4.840,-1.191,none
3.503654,0.806,0.588,0.063,2568.09,-0.112,0.671,-0.112,-0.890,-0.340,-0.305,0.907,0.418,-0.044,2482.10,0.000,0.224,-0.112,-0.933,-0.355,0.063,0.527,-0.281,-0.802,2487.43,-0.112,-0.112,0.112,-0.657,0.080,0.750,0.466,0.593,-0.657,2464.00,-0.671,0.000,0.000,-0.350,-0.110,0.930,0.528,0.827,-0.193,9.875,5.756,0.015,-1.359,0.279,0.736,-0.617,10.514,-5.206,-4.885,-0.672,none
3.526734,0.808,0.585,0.067,2548.71,-0.112,0.000,-0.448,-0.879,-0.347,-0.326,0.912,0.410,-0.036,2460.70,-0.448,0.112,-0.560,-0.935,-0.345,0.083,0.528,-0.274,-0.804,2482.17,-0.895,-0.112,0.000,-0.660,0.062,0.749,0.464,0.596,-0.656,2452.13,0.000,0.112,0.336,-0.352,-0.119,0.928,0.529,0.827,-0.190,9.888,5.832,0.244,-1.954,0.286,0.737,-0.613,10.511,-5.298,-4.779,-1.313,none
3.549109,0.803,0.593,0.063,2545.56,-0.336,0.671,-0.112,-0.876,-0.370,-0.308,0.905,0.423,-0.044,2476.82,-0.224,0.671,0.000,-0.943,-0.334,0.005,0.530,-0.280,-0.801,2492.71,-1.231,-0.448,0.895,-0.645,0.080,0.760,0.469,0.594,-0.654,2445.55,0.336,0.783,0.000,-0.363,-0.120,0.924,0.530,0.825,-0.197,9.848,6.107,-0.076,-2.015,0.283,0.732,-0.620,10.531,-4.947,-5.053,-1.267,none
3.575461,0.802,0.593,0.071,2546.03,-0.112,0.783,-0.224,-0.885,-0.375,-0.276,0.910,0.414,-0.032,2457.19,0.224,0.224,0.000,-0.943,-0.333,0.026,0.527,-0.281,-0.802,2487.43,-0.560,-0.224,0.448,-0.658,0.062,0.751,0.467,0.591,-0.658,2458.01,-0.224,0.895,0.112,-0.360,-0.123,0.925,0.530,0.827,-0.189,9.884,6.122,-0.244,-2.595,0.283,0.737,-0.614,10.532,-5.099,-5.191,-2.031,none
3.603724,0.809,0.585,0.059,2547.45,-0.560,1.567,-0.112,-0.888,-0.357,-0.290,0.906,0.421,-0.036,2465.89,-0.560,0.671,-0.224,-0.945,-0.324,0.039,0.525,-0.280,-0.804,2496.27,-0.783,-0.783,0.112,-0.628,0.060,0.776,0.470,0.589,-0.657,2463.35,-0.448,0.895,0.448,-0.356,-0.115,0.927,0.536,0.822,-0.192,9.892,6.153,-0.153,-2.427,0.290,0.732,-0.617,10.547,-4.840,-5.023,-1.771,none
3.627645,0.800,0.597,0.059,2564.06,-0.895,1.343,-0.224,-0.890,-0.328,-0.317,0.907,0.418,-0.048,2482.51,-0.560,1.119,0.112,-0.930,-0.363,0.064,0.525,-0.290,-0.800,2474.26,-2.126,-1.007,0.224,-0.636,0.122,0.762,0.464,0.596,-0.656,2452.13,-0.336,0.671,0.224,-0.359,-0.120,0.926,0.528,0.828,-0.190,9.883,6.397,0.214,-2.153,0.280,0.739,-0.613,10.538,-4.702,-4.718,-1.649,none
3.650331,0.808,0.586,0.063,2562.00,0.336,1.790,-0.560,-0.885,-0.302,-0.354,0.910,0.412,-0.040,2473.38,-1.455,-0.336,-0.336,-0.938,-0.346,0.030,0.522,-0.280,-0.806,2491.03,-0.112,-0.336,0.112,-0.645,0.056,0.763,0.467,0.591,-0.658,2458.01,-0.224,0.671,0.000,-0.360,-0.124,0.925,0.528,0.829,-0.185,9.940,6.061,0.168,-2.504,0.283,0.743,-0.606,10.531,-5.145,-5.038,-1.893,none
3.672407,0.812,0.581,0.059,2549.72,-0.671,1.231,0.336,-0.884,-0.348,-0.312,0.907,0.419,-0.028,2451.07,-0.336,1.119,0.560,-0.932,-0.354,0.077,0.524,-0.283,-0.803,2498.28,-0.448,-0.448,0.000,-0.634,0.083,0.769,0.466,0.597,-0.653,2462.75,-0.336,0.560,0.448,-0.360,-0.127,0.924,0.530,0.825,-0.197,9.869,5.664,-0.656,-2.962,0.279,0.730,-0.624,10.564,-5.450,-5.420,-2.137,none
3.693124,0.798,0.598,0.074,2559.46,-0.448,1.343,0.783,-0.883,-0.339,-0.325,0.906,0.421,-0.044,2486.78,-1.231,1.455,0.112,-0.940,-0.337,0.059,0.522,-0.280,-0.806,2491.03,-0.895,-0.448,-0.112,-0.642,0.073,0.763,0.472,0.593,-0.652,2449.60,0.000,0.895,0.560,-0.355,-0.114,0.928,0.535,0.822,-0.195,9.867,6.366,-0.397,-2.519,0.286,0.734,-0.616,10.556,-4.840,-5.130,-1.817,none
3.715787,0.807,0.588,0.059,2554.12,0.336,1.567,-0.448,-0.885,-0.326,-0.332,0.906,0.420,-0.047,2495.35,-1.567,0.112,-0.560,-0.934,-0.355,0.032,0.525,-0.276,-0.805,2493.49,-1.119,-0.448,-0.224,-0.630,0.084,0.772,0.470,0.593,-0.654,2462.12,-0.560,0.671,0.112,-0.360,-0.122,0.925,0.529,0.826,-0.193,9.905,6.427,-0.076,-1.893,0.280,0.737,-0.616,10.552,-4.687,-4.870,-1.282,none
3.738144,0.807,0.587,0.067,2555.38,-0.224,1.007,-0.560,-0.872,-0.357,-0.336,0.911,0.412,-0.032,2473.58,-1.343,0.671,0.671,-0.937,-0.347,0.045,0.527,-0.277,-0.803,2484.64,-0.560,-0.336,-0.112,-0.642,0.074,0.763,0.470,0.598,-0.650,2461.56,-1.343,0.560,0.000,-0.364,-0.132,0.922,0.524,0.830,-0.190,9.884,5.969,-0.076,-2.534,0.274,0.740,-0.614,10.516,-5.344,-5.069,-1.893,none
3.760528,0.809,0.584,0.067,2536.40,-0.336,1.119,-0.112,-0.882,-0.320,-0.345,0.912,0.409,-0.025,2438.40,-1.231,0.560,0.224,-0.938,-0.346,0.030,0.522,-0.276,-0.807,2488.25,-0.895,-0.783,-0.112,-0.626,0.092,0.774,0.474,0.594,-0.650,2460.33,-0.112,0.448,0.336,-0.361,-0.124,0.924,0.527,0.826,-0.201,9.877,5.802,0.092,-2.870,0.278,0.733,-0.621,10.523,-5.328,-5.221,-2.290,none
3.781051,0.802,0.593,0.071,2546.03,-0.448,1.455,0.783,-0.877,-0.348,-0.331,0.910,0.412,-0.055,2520.78,-1.119,2.574,1.007,-0.938,-0.342,0.051,0.525,-0.276,-0.805,2493.49,-1.119,-0.671,-0.112,-0.648,0.087,0.757,0.471,0.595,-0.651,2455.60,0.224,0.783,0.671,-0.357,-0.121,0.926,0.541,0.817,-0.198,9.927,6.809,-0.656,-2.550,0.293,0.728,-0.620,10.607,-4.366,-5.176,-1.786,none
3.803053,0.801,0.596,0.058,2585.24,-0.783,1.567,-0.783,-0.874,-0.349,-0.339,0.910,0.414,-0.028,2456.89,-0.671,-0.112,-0.783,-0.943,-0.333,0.026,0.523,-0.279,-0.805,2504.31,-0.448,0.000,0.000,-0.624,0.107,0.774,0.470,0.593,-0.654,2462.12,-0.671,0.336,-0.224,-0.353,-0.116,0.928,0.526,0.829,-0.189,9.933,6.702,0.260,-1.328,0.274,0.740,-0.614,10.540,-4.458,-4.412,-0.931,none
3.826943,0.813,0.578,0.067,2545.19,0.448,0.671,-0.895,-0.882,-0.339,-0.328,0.911,0.412,-0.036,2473.00,-0.336,0.112,0.448,-0.941,-0.335,0.043,0.525,-0.276,-0.805,2493.49,-0.112,0.112,0.448,-0.669,0.084,0.738,0.471,0.591,-0.655,2456.14,-0.895,0.448,-0.224,-0.357,-0.113,0.927,0.521,0.831,-0.194,9.866,5.649,0.061,-1.664,0.272,0.739,-0.617,10.526,-5.374,-5.053,-0.947,none
3.848224,0.808,0.585,0.067,2548.71,-0.112,0.000,0.112,-0.870,-0.356,-0.342,0.911,0.410,-0.040,2483.40,-0.783,-0.560,-0.560,-0.942,-0.334,0.026,0.525,-0.280,-0.804,2496.27,-0.783,-0.336,0.224,-0.637,0.067,0.768,0.474,0.590,-0.653,2460.86,-0.448,0.448,0.224,-0.361,-0.127,0.924,0.528,0.828,-0.189,9.918,5.908,-0.595,-2.198,0.278,0.738,-0.615,10.566,-5.145,-5.542,-1.359,none
3.869565,0.803,0.591,0.074,2554.78,-1.007,-0.224,0.224,-0.872,-0.347,-0.344,0.908,0.417,-0.036,2468.05,-1.007,-0.895,-0.560,-0.940,-0.340,0.027,0.521,-0.276,-0.808,2496.32,-0.895,-0.336,0.112,-0.651,0.094,0.753,0.469,0.596,-0.652,2468.07,0.112,0.224,0.560,-0.362,-0.126,0.924,0.534,0.825,-0.186,9.942,5.481,-0.076,-2.427,0.287,0.735,-0.615,10.577,-5.756,-5.145,-1.664,none
3.890410,0.803,0.593,0.059,2565.33,-0.560,-0.224,0.783,-0.881,-0.372,-0.291,0.908,0.418,-0.040,2482.59,-0.560,-0.560,-0.224,-0.933,-0.355,0.054,0.522,-0.276,-0.807,2488.25,-0.336,-0.336,0.112,-0.644,0.065,0.762,0.467,0.595,-0.655,2456.79,0.671,0.560,0.448,-0.370,-0.130,0.920,0.534,0.822,-0.196,9.866,5.252,0.366,-1.679,0.282,0.730,-0.622,10.535,-5.771,-4.641,-1.008,none
3.910566,0.802,0.594,0.067,2559.36,0.224,0.224,0.224,-0.891,-0.363,-0.273,0.907,0.420,-0.040,2472.61,0.671,0.112,-0.112,-0.941,-0.335,0.050,0.525,-0.276,-0.805,2493.49,-0.112,0.224,-0.336,-0.635,0.074,0.769,0.469,0.598,-0.650,2443.74,0.224,0.112,0.112,-0.360,-0.122,0.925,0.527,0.826,-0.199,9.862,6.046,-0.046,-1.756,0.276,0.732,-0.623,10.508,-4.931,-4.656,-1.145,none
3.933226,0.802,0.593,0.079,2547.52,-0.224,0.448,-0.448,-0.881,-0.327,-0.342,0.908,0.417,-0.036,2468.05,-0.224,-0.112,-0.783,-0.934,-0.347,0.090,0.524,-0.275,-0.806,2501.55,-0.112,0.112,-0.112,-0.640,0.083,0.764,0.472,0.593,-0.652,2449.60,-0.560,0.448,-0.224,-0.357,-0.122,0.926,0.526,0.829,-0.191,9.923,6.382,0.046,-1.832,0.276,0.738,-0.615,10.581,-4.733,-4.748,-1.282,none
3.954232,0.811,0.581,0.063,2565.07,-0.112,0.783,-0.560,-0.884,-0.346,-0.315,0.908,0.417,-0.036,2490.38,-0.336,0.000,-0.560,-0.941,-0.335,0.050,0.527,-0.277,-0.803,2484.64,-0.224,0.224,-0.112,-0.619,0.110,0.778,0.472,0.595,-0.651,2472.77,-0.783,0.112,-0.112,-0.358,-0.126,0.925,0.525,0.830,-0.187,9.952,5.542,0.305,-1.908,0.276,0.742,-0.612,10.571,-5.649,-4.626,-1.405,none
3.976628,0.810,0.583,0.067,2557.61,0.224,0.560,0.448,-0.873,-0.359,-0.330,0.909,0.415,-0.036,2478.05,-0.336,-0.224,0.336,-0.930,-0.363,0.056,0.525,-0.276,-0.805,2493.49,0.112,-0.336,0.448,-0.655,0.055,0.754,0.473,0.592,-0.652,2466.84,-0.224,-0.224,0.112,-0.362,-0.126,0.924,0.527,0.825,-0.202,9.892,4.916,0.382,-1.939,0.281,0.732,-0.621,10.576,-6.183,-4.748,-1.252,none
3.999445,0.802,0.594,0.070,2560.78,0.336,0.000,0.895,-0.879,-0.304,-0.367,0.906,0.421,-0.036,2465.89,0.000,-0.112,0.671,-0.936,-0.351,0.031,0.526,-0.273,-0.806,2491.02,0.000,0.000,0.336,-0.643,0.033,0.765,0.472,0.597,-0.649,2449.10,0.336,-0.112,0.112,-0.354,-0.120,0.927,0.530,0.823,-0.204,9.833,5.618,0.214,-1.481,0.282,0.727,-0.626,10.498,-5.435,-4.595,-0.824,none
4.021075,0.799,0.597,0.075,2545.50,0.000,0.336,-0.336,-0.887,-0.328,-0.323,0.905,0.424,-0.036,2468.78,-1.119,-0.671,0.560,-0.939,-0.338,0.066,0.526,-0.273,-0.806,2491.02,-0.112,0.000,0.448,-0.638,0.081,0.766,0.470,0.595,-0.651,2439.02,0.224,0.000,-0.112,-0.357,-0.121,0.926,0.526,0.827,-0.196,9.840,6.321,-0.137,-1.359,0.277,0.733,-0.621,10.520,-4.702,-4.962,-0.641,none
4.042215,0.808,0.585,0.071,2550.14,-0.112,0.224,-0.783,-0.878,-0.348,-0.330,0.909,0.415,-0.036,2478.05,-1.007,-0.895,-0.895,-0.940,-0.337,0.059,0.522,-0.276,-0.807,2488.25,-0.671,-0.336,0.336,-0.637,0.042,0.770,0.470,0.593,-0.654,2462.12,-1.231,0.448,0.224,-0.357,-0.121,0.926,0.523,0.832,-0.186,9.939,5.985,-0.183,-1.725,0.275,0.743,-0.610,10.558,-5.069,-5.145,-1.038,none
4.062976,0.809,0.583,0.070,2557.42,-0.336,0.448,0.000,-0.886,-0.337,-0.318,0.908,0.417,-0.036,2468.05,-0.671,-0.895,-0.671,-0.933,-0.355,0.063,0.523,-0.273,-0.807,2485.78,-0.783,-0.336,0.112,-0.628,0.083,0.773,0.469,0.596,-0.652,2468.07,-0.671,0.448,0.336,-0.352,-0.117,0.928,0.530,0.827,-0.190,9.928,5.328,0.031,-2.015,0.283,0.739,-0.612,10.558,-5.817,-4.931,-1.389,none
4.086217,0.808,0.586,0.063,2562.00,-0.560,0.000,0.448,-0.875,-0.333,-0.351,0.907,0.420,-0.040,2472.61,-0.224,-0.112,-0.336,-0.933,-0.355,0.054,0.522,-0.276,-0.807,2488.25,-0.224,-0.560,-0.112,-0.671,0.051,0.739,0.470,0.598,-0.650,2461.56,0.224,0.112,0.112,-0.366,-0.123,0.923,0.530,0.825,-0.196,9.891,5.435,0.137,-1.588,0.281,0.733,-0.620,10.565,-5.573,-4.687,-0.992,none
4.106514,0.800,0.595,0.074,2553.50,-0.224,0.000,0.112,-0.875,-0.341,-0.343,0.907,0.420,-0.040,2472.61,-0.224,0.112,-0.112,-0.938,-0.340,0.060,0.523,-0.279,-0.805,2504.31,-0.112,0.000,-0.224,-0.643,0.089,0.760,0.471,0.595,-0.651,2455.60,0.336,0.000,0.112,-0.360,-0.130,0.924,0.527,0.828,-0.194,9.841,5.893,0.168,-1.344,0.281,0.736,-0.617,10.507,-5.069,-4.687,-0.779,none
4.129604,0.808,0.585,0.067,2548.71,0.224,0.000,-0.560,-0.868,-0.343,-0.358,0.908,0.416,-0.040,2468.43,-0.224,-0.112,-0.448,-0.938,-0.340,0.066,0.522,-0.276,-0.807,2488.25,-0.336,-0.112,0.000,-0.623,0.083,0.778,0.471,0.591,-0.655,2456.14,-0.448,0.224,-0.224,-0.363,-0.136,0.922,0.522,0.832,-0.188,9.912,5.832,0.122,-1.802,0.275,0.742,-0.611,10.521,-5.221,-4.779,-1.252,none
4.152659,0.810,0.582,0.075,2544.22,-0.336,0.448,-0.112,-0.880,-0.354,-0.317,0.909,0.416,-0.032,2468.62,-0.224,-0.224,-0.783,-0.932,-0.359,0.040,0.521,-0.276,-0.808,2496.32,-0.336,-0.336,-0.224,-0.631,0.068,0.772,0.471,0.595,-0.651,2455.60,-0.783,0.112,0.224,-0.355,-0.123,0.927,0.529,0.826,-0.194,9.916,5.435,0.061,-2.092,0.282,0.735,-0.616,10.555,-5.740,-4.947,-1.450,none
4.175544,0.805,0.590,0.063,2559.22,-0.224,0.448,0.448,-0.883,-0.353,-0.308,0.908,0.418,-0.040,2482.59,-0.336,0.112,-0.560,-0.938,-0.339,0.073,0.522,-0.280,-0.806,2491.03,0.000,0.000,-0.448,-0.661,0.045,0.749,0.471,0.595,-0.651,2455.60,0.224,0.000,0.336,-0.360,-0.123,0.925,0.530,0.825,-0.198,9.901,5.496,0.107,-1.450,0.281,0.732,-0.620,10.541,-5.466,-4.840,-0.855,none
4.197684,0.807,0.588,0.063,2554.73,0.112,0.336,-0.224,-0.871,-0.348,-0.347,0.907,0.420,-0.036,2472.23,0.336,0.448,-0.336,-0.936,-0.351,0.031,0.528,-0.274,-0.804,2482.17,-0.336,0.000,-0.336,-0.645,0.057,0.762,0.471,0.595,-0.651,2455.60,0.336,0.112,0.000,-0.354,-0.122,0.927,0.524,0.830,-0.192,9.903,5.481,0.198,-1.389,0.271,0.738,-0.618,10.512,-5.557,-4.779,-0.794,none
4.220003,0.803,0.590,0.083,2543.00,-0.336,-0.560,-0.224,-0.875,-0.370,-0.312,0.907,0.420,-0.032,2472.80,0.336,0.112,-0.448,-0.939,-0.343,0.022,0.523,-0.273,-0.807,2485.78,-0.112,-0.336,-0.336,-0.613,0.085,0.785,0.476,0.595,-0.648,2453.84,-0.224,0.112,0.000,-0.359,-0.121,0.925,0.526,0.828,-0.197,9.883,5.374,0.092,-1.969,0.278,0.733,-0.621,10.562,-5.725,-4.947,-1.328,none
4.241813,0.805,0.590,0.070,2561.29,-0.560,-0.224,0.448,-0.885,-0.322,-0.337,0.908,0.417,-0.036,2468.05,0.448,-0.112,-0.560,-0.939,-0.341,0.044,0.524,-0.275,-0.806,2501.55,0.224,0.000,-0.112,-0.625,0.062,0.778,0.473,0.596,-0.648,2466.28,-0.448,0.224,0.336,-0.360,-0.126,0.924,0.529,0.825,-0.200,9.890,5.557,0.076,-1.802,0.279,0.732,-0.622,10.567,-5.496,-4.763,-1.191,none
4.263750,0.803,0.591,0.074,2554.78,-0.112,0.224,-0.224,-0.877,-0.325,-0.355,0.906,0.421,-0.040,2485.46,-0.671,-0.224,-0.336,-0.937,-0.344,0.060,0.525,-0.276,-0.805,2493.49,-0.112,-0.112,-0.112,-0.620,0.101,0.778,0.471,0.595,-0.651,2455.60,0.224,0.224,0.000,-0.362,-0.122,0.924,0.531,0.823,-0.199,9.879,6.321,0.031,-1.511,0.284,0.732,-0.619,10.577,-4.794,-4.550,-1.053,none
4.285313,0.806,0.588,0.063,2568.09,-0.112,0.671,-0.560,-0.886,-0.322,-0.333,0.907,0.420,-0.036,2472.23,-0.783,0.112,-0.224,-0.940,-0.340,0.037,0.524,-0.275,-0.806,2501.55,0.000,0.000,0.000,-0.647,0.084,0.758,0.471,0.595,-0.651,2455.60,-0.336,0.112,-0.224,-0.353,-0.110,0.929,0.524,0.830,-0.192,9.892,6.092,0.397,-1.053,0.276,0.738,-0.616,10.541,-4.885,-4.366,-0.565,none
4.307617,0.812,0.579,0.075,2538.41,0.560,0.448,-0.783,-0.869,-0.349,-0.349,0.908,0.417,-0.036,2468.05,0.000,0.000,0.224,-0.943,-0.332,0.027,0.522,-0.276,-0.807,2488.25,-0.112,0.112,0.112,-0.650,0.105,0.752,0.476,0.595,-0.648,2453.84,-0.671,0.000,-0.560,-0.356,-0.125,0.926,0.518,0.832,-0.199,9.877,5.527,-0.031,-1.542,0.268,0.738,-0.619,10.514,-5.542,-4.931,-0.916,none
4.330115,0.810,0.582,0.075,2544.22,0.224,-0.112,-0.112,-0.872,-0.333,-0.358,0.907,0.420,-0.040,2472.61,-0.560,-0.224,-0.448,-0.936,-0.349,0.053,0.525,-0.280,-0.804,2496.27,-0.448,-0.336,0.000,-0.626,0.092,0.774,0.471,0.595,-0.651,2455.60,-0.671,0.112,0.000,-0.359,-0.121,0.925,0.530,0.825,-0.195,9.912,5.557,-0.550,-1.954,0.283,0.734,-0.618,10.568,-5.450,-5.420,-1.099,none
4.353160,0.803,0.592,0.067,2566.59,-0.560,-0.224,0.000,-0.868,-0.346,-0.357,0.908,0.418,-0.040,2482.59,-1.007,-1.119,-0.560,-0.930,-0.363,0.049,0.521,-0.272,-0.809,2493.86,-0.671,0.000,0.336,-0.627,0.083,0.774,0.470,0.593,-0.654,2462.12,0.224,0.000,0.448,-0.354,-0.130,0.926,0.531,0.825,-0.193,9.929,5.603,-0.015,-1.481,0.285,0.735,-0.615,10.549,-5.435,-4.779,-0.763,none
4.377672,0.808,0.585,0.063,2548.06,-0.224,-0.112,-0.336,-0.879,-0.347,-0.328,0.906,0.421,-0.040,2466.27,-0.783,0.000,0.224,-0.936,-0.348,0.046,0.525,-0.274,-0.806,2476.90,0.112,0.224,0.112,-0.662,0.094,0.744,0.465,0.597,-0.653,2445.59,0.112,-0.112,0.000,-0.354,-0.114,0.928,0.524,0.830,-0.194,9.876,5.115,0.397,-1.771,0.276,0.737,-0.617,10.507,-5.954,-4.626,-1.191,none
4.398754,0.807,0.586,0.075,2543.60,0.112,-0.112,0.336,-0.873,-0.309,-0.379,0.907,0.420,-0.040,2472.61,1.007,0.224,0.000,-0.930,-0.366,0.035,0.522,-0.276,-0.807,2488.25,0.112,-0.112,-0.224,-0.635,0.074,0.769,0.472,0.593,-0.652,2449.60,-0.224,0.000,0.000,-0.361,-0.128,0.924,0.528,0.826,-0.199,9.890,5.389,0.214,-1.924,0.279,0.732,-0.622,10.552,-5.679,-4.901,-1.282,none
4.420783,0.807,0.588,0.059,2567.48,-0.112,0.224,0.448,-0.888,-0.338,-0.312,0.908,0.418,-0.036,2482.21,0.895,0.112,-0.560,-0.932,-0.359,0.048,0.524,-0.275,-0.806,2501.55,-0.112,0.112,-0.336,-0.649,0.104,0.753,0.473,0.592,-0.652,2466.84,0.112,0.224,-0.112,-0.367,-0.124,0.922,0.528,0.827,-0.192,9.901,5.466,0.092,-1.328,0.280,0.736,-0.617,10.571,-5.618,-4.748,-0.626,none
4.441731,0.805,0.590,0.070,2561.29,-0.112,-0.560,0.112,-0.881,-0.270,-0.390,0.909,0.415,-0.032,2476.80,0.671,0.336,-0.560,-0.934,-0.352,0.069,0.524,-0.275,-0.806,2501.55,0.000,0.224,-0.112,-0.622,0.093,0.778,0.472,0.595,-0.651,2472.77,-0.224,-0.336,-0.112,-0.363,-0.115,0.925,0.523,0.830,-0.195,9.910,5.191,0.107,-1.298,0.276,0.739,-0.615,10.545,-5.924,-4.947,-0.565,none
4.464952,0.805,0.589,0.071,2549.55,-0.224,-1.007,0.560,-0.880,-0.351,-0.320,0.906,0.421,-0.036,2465.89,0.000,0.000,0.224,-0.938,-0.340,0.066,0.523,-0.273,-0.807,2485.78,0.112,-0.336,0.112,-0.637,0.067,0.768,0.471,0.599,-0.647,2455.08,-0.671,-0.224,0.224,-0.349,-0.121,0.929,0.527,0.826,-0.201,9.858,4.718,0.565,-1.481,0.280,0.732,-0.621,10.522,-6.290,-4.641,-0.870,none
4.488084,0.804,0.591,0.067,2554.24,0.112,-0.783,0.671,-0.871,-0.342,-0.353,0.905,0.424,-0.040,2469.16,0.112,0.000,0.560,-0.939,-0.343,0.029,0.521,-0.272,-0.809,2493.86,0.224,0.000,0.336,-0.637,0.076,0.767,0.472,0.597,-0.649,2449.10,0.336,0.112,0.000,-0.350,-0.117,0.929,0.528,0.825,-0.201,9.839,5.237,0.000,-1.344,0.282,0.734,-0.618,10.526,-5.863,-5.191,-0.458,none
4.509747,0.814,0.579,0.051,2556.74,-0.112,-1.007,0.560,-0.887,-0.334,-0.318,0.908,0.418,-0.040,2482.59,0.671,-0.112,0.112,-0.938,-0.347,0.024,0.521,-0.272,-0.809,2493.86,-0.448,-0.112,0.112,-0.640,0.073,0.765,0.474,0.594,-0.650,2443.09,0.783,0.112,0.112,-0.359,-0.126,0.925,0.523,0.832,-0.187,9.942,4.412,-0.840,-0.611,0.277,0.747,-0.605,10.555,-6.519,-6.580,0.992,none
4.532758,0.831,0.556,0.036,2577.40,-0.895,-7.386,2.350,-0.887,-0.342,-0.310,0.910,0.413,-0.036,2486.23,3.469,0.783,-0.560,-0.939,-0.340,0.044,0.524,-0.275,-0.806,2501.55,-0.671,-0.336,-0.224,-0.644,0.080,0.761,0.469,0.596,-0.652,2468.07,0.671,-0.448,0.895,-0.348,-0.121,0.930,0.520,0.836,-0.178,9.902,1.359,-1.252,-0.916,0.281,0.745,-0.605,10.599,-9.740,-7.847,1.206,none
4.557083,0.826,0.557,0.079,2516.90,1.343,-13.093,6.043,-0.890,-0.351,-0.291,0.910,0.413,-0.036,2486.23,5.931,1.231,0.671,-0.928,-0.366,0.065,0.522,-0.276,-0.807,2488.25,-0.448,-0.112,0.000,-0.639,0.082,0.765,0.463,0.598,-0.654,2475.91,-0.112,0.000,1.231,-0.355,-0.125,0.926,0.535,0.825,-0.181,9.931,0.107,1.160,-2.290,0.267,0.728,-0.632,10.444,-10.366,-4.000,-0.275,none
4.580133,0.772,0.630,0.078,2566.37,-0.224,-3.357,3.805,-0.893,-0.320,-0.317,0.915,0.402,-0.029,2408.60,6.379,2.462,2.686,-0.937,-0.347,0.045,0.524,-0.275,-0.806,2501.55,0.224,0.000,-0.336,-0.620,0.087,0.780,0.475,0.596,-0.648,2437.90,0.112,-0.671,0.448,-0.358,-0.122,0.926,0.540,0.814,-0.211,9.812,6.244,0.611,-1.588,0.280,0.723,-0.631,10.474,-4.611,-4.977,-0.718,none
4.606561,0.793,0.603,0.083,2537.16,1.119,-1.007,0.224,-0.886,-0.361,-0.292,0.908,0.416,-0.047,2492.50,-2.462,-0.895,0.895,-0.931,-0.362,0.048,0.521,-0.276,-0.808,2496.32,-0.336,0.112,0.336,-0.625,0.076,0.777,0.477,0.590,-0.652,2426.69,0.112,0.448,-0.112,-0.353,-0.124,0.927,0.525,0.830,-0.186,9.901,6.198,0.321,-1.695,0.279,0.739,-0.613,10.522,-4.779,-4.947,-1.130,none
4.633634,0.813,0.578,0.067,2545.19,1.231,0.000,-1.007,-0.899,-0.327,-0.293,0.910,0.413,-0.040,2486.61,-0.895,-0.895,-0.671,-0.935,-0.350,0.047,0.522,-0.276,-0.807,2488.25,-0.783,-0.560,0.336,-0.636,0.074,0.768,0.473,0.588,-0.656,2468.07,-1.007,0.224,0.112,-0.365,-0.121,0.923,0.529,0.827,-0.191,9.894,5.832,-0.229,-1.817,0.278,0.736,-0.617,10.581,-5.160,-4.977,-1.191,none
4.658797,0.808,0.585,0.063,2548.06,-0.112,0.671,-0.671,-0.898,-0.329,-0.291,0.908,0.418,-0.040,2482.59,-1.343,-0.671,-1.119,-0.929,-0.359,0.086,0.525,-0.276,-0.805,2493.49,-1.007,-0.448,-0.336,-0.651,0.107,0.752,0.472,0.595,-0.651,2472.77,-0.895,0.112,0.336,-0.362,-0.119,0.925,0.529,0.828,-0.187,9.919,5.679,-0.092,-1.725,0.279,0.738,-0.615,10.566,-5.344,-4.748,-1.176,none
4.680125,0.807,0.588,0.063,2554.73,-0.224,0.895,-0.336,-0.881,-0.336,-0.334,0.907,0.420,-0.040,2472.61,-0.895,-0.224,-0.671,-0.939,-0.343,0.022,0.523,-0.273,-0.807,2485.78,-0.224,0.000,-0.336,-0.645,0.080,0.760,0.469,0.596,-0.652,2468.07,-0.112,0.448,0.000,-0.361,-0.124,0.924,0.528,0.827,-0.193,9.906,5.710,0.504,-1.756,0.278,0.735,-0.619,10.537,-5.405,-4.397,-1.298,none
4.703894,0.807,0.588,0.063,2554.73,0.448,1.567,-0.336,-0.891,-0.337,-0.305,0.907,0.420,-0.036,2472.23,-1.119,-0.224,0.112,-0.935,-0.349,0.062,0.526,-0.273,-0.806,2491.02,-0.336,-0.336,-0.224,-0.644,0.065,0.762,0.470,0.598,-0.650,2461.56,-0.560,0.112,0.000,-0.370,-0.124,0.921,0.527,0.827,-0.197,9.872,5.618,0.473,-1.985,0.278,0.735,-0.618,10.503,-5.450,-4.489,-1.511,none
4.727092,0.810,0.582,0.063,2543.03,0.224,1.343,-0.112,-0.888,-0.334,-0.315,0.906,0.421,-0.032,2464.64,-0.671,-0.224,0.112,-0.932,-0.356,0.070,0.523,-0.273,-0.807,2485.78,0.112,0.112,0.112,-0.616,0.095,0.782,0.471,0.599,-0.647,2455.08,-0.336,0.000,0.112,-0.359,-0.125,0.925,0.527,0.827,-0.197,9.864,5.786,0.336,-2.168,0.279,0.732,-0.622,10.519,-5.282,-4.611,-1.649,none
4.750125,0.802,0.593,0.079,2547.52,0.224,1.455,0.000,-0.875,-0.363,-0.322,0.891,0.454,0.025,2330.32,-2.574,0.448,0.895,-0.936,-0.350,0.030,0.521,-0.272,-0.809,2493.86,-0.336,-0.336,0.112,-0.650,0.047,0.759,0.467,0.599,-0.651,2456.23,0.000,0.671,0.112,-0.364,-0.126,0.923,0.517,0.833,-0.195,9.808,6.321,0.840,-2.885,0.270,0.737,-0.620,10.424,-4.901,-4.611,-2.519,none
4.772611,0.809,0.583,0.075,2524.64,0.224,3.245,0.224,-0.887,-0.346,-0.307,0.914,0.391,-0.109,2605.13,-1.231,3.581,-0.224,-0.925,-0.374,0.059,0.526,-0.269,-0.807,2488.31,-0.448,-0.448,0.112,-0.630,0.074,0.773,0.479,0.596,-0.645,2436.85,0.000,1.119,0.112,-0.362,-0.122,0.924,0.539,0.821,-0.191,9.909,7.084,0.031,-2.534,0.292,0.732,-0.616,10.639,-4.107,-4.626,-2.061,none
4.793280,0.814,0.579,0.047,2592.29,-0.224,2.462,-1.343,-0.876,-0.345,-0.337,0.910,0.414,-0.024,2456.65,-0.783,-0.224,-0.336,-0.940,-0.337,0.049,0.519,-0.275,-0.809,2504.41,-0.448,-0.336,0.112,-0.634,0.091,0.768,0.476,0.591,-0.651,2471.11,-0.671,0.560,-0.112,-0.366,-0.125,0.922,0.516,0.836,-0.184,9.949,5.878,0.137,-1.053,0.264,0.747,-0.610,10.534,-5.191,-4.611,-0.504,none
4.816003,0.815,0.575,0.079,2542.35,0.112,-0.112,-0.560,-0.878,-0.335,-0.342,0.911,0.410,-0.036,2483.03,0.224,-0.112,-0.112,-0.942,-0.332,0.057,0.520,-0.279,-0.807,2499.10,-0.336,-0.448,0.000,-0.639,0.105,0.762,0.474,0.592,-0.652,2482.89,-0.560,0.224,-0.224,-0.359,-0.121,0.925,0.522,0.832,-0.188,9.939,5.267,0.061,-2.244,0.275,0.740,-0.614,10.583,-5.832,-5.069,-1.542,none
4.837237,0.810,0.583,0.067,2557.61,-0.560,0.671,0.560,-0.874,-0.367,-0.318,0.907,0.420,-0.044,2494.94,-0.112,0.448,0.224,-0.937,-0.347,0.053,0.521,-0.276,-0.808,2496.32,-0.560,-0.336,0.112,-0.657,0.070,0.751,0.474,0.598,-0.646,2459.81,-0.112,0.112,0.560,-0.355,-0.122,0.927,0.533,0.824,-0.191,9.889,5.176,0.244,-2.336,0.286,0.732,-0.618,10.586,-5.939,-4.763,-1.771,none
4.859312,0.803,0.593,0.059,2565.33,-0.448,0.560,0.448,-0.884,-0.317,-0.344,0.908,0.418,-0.036,2482.21,-0.336,0.000,1.007,-0.937,-0.346,0.038,0.523,-0.273,-0.807,2485.78,0.112,0.000,0.671,-0.640,0.081,0.764,0.473,0.598,-0.647,2443.92,0.895,0.000,0.336,-0.352,-0.121,0.928,0.529,0.826,-0.195,9.832,5.282,0.534,-1.618,0.279,0.734,-0.620,10.492,-5.756,-4.489,-0.870,none
4.880782,0.806,0.588,0.067,2534.99,0.112,0.000,0.224,-0.888,-0.334,-0.315,0.904,0.424,-0.047,2491.42,0.336,0.671,0.448,-0.940,-0.337,0.058,0.520,-0.274,-0.809,2480.56,0.224,-0.224,0.448,-0.648,0.078,0.758,0.474,0.594,-0.650,2443.09,1.007,0.112,-0.224,-0.363,-0.131,0.922,0.522,0.830,-0.198,9.852,6.092,0.275,-1.847,0.272,0.735,-0.621,10.486,-5.008,-4.656,-1.298,none
4.906134,0.811,0.581,0.075,2532.74,0.224,1.231,-0.336,-0.881,-0.363,-0.303,0.909,0.416,-0.032,2468.62,-0.448,-0.560,-0.783,-0.937,-0.346,0.046,0.522,-0.276,-0.807,2488.25,-0.224,-0.448,-0.112,-0.632,0.092,0.769,0.475,0.592,-0.651,2454.34,-0.336,0.336,-0.112,-0.354,-0.125,0.927,0.524,0.831,-0.189,9.917,5.924,0.534,-2.336,0.278,0.741,-0.611,10.524,-5.298,-4.550,-1.924,none
4.925813,0.811,0.581,0.063,2565.07,-0.224,1.231,0.112,-0.891,-0.352,-0.287,0.912,0.410,-0.020,2459.60,0.224,0.224,0.000,-0.935,-0.353,0.047,0.525,-0.276,-0.805,2493.49,-0.112,-0.448,0.000,-0.647,0.072,0.759,0.476,0.595,-0.647,2470.55,-1.343,0.224,0.000,-0.367,-0.128,0.921,0.522,0.831,-0.192,9.911,5.557,0.473,-1.878,0.273,0.739,-0.616,10.544,-5.511,-4.687,-1.359,none
4.947631,0.813,0.579,0.067,2559.10,0.224,0.560,0.224,-0.889,-0.296,-0.351,0.912,0.408,-0.032,2469.48,0.783,2.238,1.231,-0.937,-0.347,0.045,0.524,-0.275,-0.806,2501.55,-0.336,-0.448,-0.112,-0.660,0.088,0.746,0.478,0.594,-0.646,2458.13,-0.448,0.112,0.112,-0.369,-0.132,0.920,0.522,0.831,-0.194,9.879,5.099,0.351,-2.076,0.274,0.737,-0.618,10.526,-6.122,-4.794,-1.389,none
4.969202,0.808,0.585,0.067,2548.71,0.224,0.224,0.783,-0.879,-0.358,-0.313,0.909,0.413,-0.055,2511.69,0.895,1.343,-0.112,-0.936,-0.351,0.031,0.523,-0.273,-0.807,2485.78,-0.224,-0.560,0.336,-0.635,0.084,0.768,0.476,0.595,-0.648,2453.84,0.448,0.112,0.112,-0.358,-0.122,0.926,0.530,0.823,-0.201,9.885,5.481,0.351,-1.664,0.281,0.730,-0.623,10.542,-5.618,-4.702,-1.053,none
4.991200,0.803,0.591,0.070,2554.06,0.112,0.112,0.336,-0.879,-0.340,-0.333,0.905,0.424,-0.024,2468.81,0.112,0.000,0.112,-0.932,-0.359,0.055,0.521,-0.272,-0.809,2493.86,-0.336,-0.560,0.336,-0.637,0.067,0.768,0.474,0.598,-0.646,2459.81,-0.448,0.112,0.000,-0.356,-0.118,0.927,0.522,0.830,-0.194,9.849,5.954,0.198,-1.771,0.272,0.737,-0.618,10.486,-5.160,-4.763,-1.237,none
5.014612,0.812,0.579,0.075,2538.41,0.560,0.671,-0.224,-0.886,-0.326,-0.329,0.907,0.420,-0.028,2472.50,0.224,1.119,0.224,-0.941,-0.335,0.042,0.521,-0.272,-0.809,2493.86,-0.448,-0.671,0.448,-0.641,0.073,0.764,0.476,0.595,-0.648,2453.84,-0.671,0.448,0.224,-0.351,-0.114,0.930,0.527,0.828,-0.190,9.882,5.847,0.061,-2.183,0.277,0.738,-0.615,10.528,-5.282,-5.069,-1.450,none
5.036954,0.808,0.586,0.063,2562.00,-0.224,0.560,0.336,-0.881,-0.351,-0.317,0.908,0.417,-0.040,2490.76,-0.224,1.567,0.000,-0.929,-0.365,0.064,0.518,-0.273,-0.810,2488.66,-0.560,-0.671,0.560,-0.649,0.054,0.759,0.471,0.595,-0.651,2455.60,-0.224,0.783,0.448,-0.365,-0.123,0.923,0.530,0.826,-0.192,9.877,6.046,-0.061,-1.771,0.280,0.733,-0.620,10.558,-4.962,-4.916,-1.115,none
5.058479,0.808,0.586,0.059,2561.39,-0.224,0.448,-0.224,-0.871,-0.316,-0.377,0.908,0.417,-0.036,2490.38,-0.224,0.000,-0.448,-0.938,-0.345,0.030,0.521,-0.272,-0.809,2493.86,-0.671,-0.336,0.000,-0.642,0.074,0.763,0.471,0.595,-0.651,2455.60,0.112,0.560,0.224,-0.368,-0.127,0.921,0.526,0.830,-0.186,9.919,5.969,-0.061,-1.221,0.278,0.740,-0.613,10.564,-5.069,-4.748,-0.611,none
5.079765,0.812,0.581,0.063,2550.33,-0.224,-0.112,-0.560,-0.880,-0.335,-0.337,0.907,0.420,-0.032,2472.80,-0.336,0.224,-0.560,-0.931,-0.361,0.050,0.522,-0.276,-0.807,2488.25,-0.336,0.000,-0.112,-0.639,0.058,0.767,0.473,0.596,-0.648,2466.28,-0.336,0.336,-0.224,-0.357,-0.123,0.926,0.523,0.831,-0.189,9.895,5.496,0.214,-1.832,0.272,0.742,-0.613,10.522,-5.679,-4.733,-1.267,none
5.102099,0.813,0.578,0.067,2545.19,0.000,0.224,0.560,-0.879,-0.358,-0.313,0.909,0.415,-0.036,2478.05,0.783,0.336,-0.224,-0.939,-0.341,0.044,0.518,-0.276,-0.810,2491.13,0.336,0.112,-0.224,-0.608,0.086,0.789,0.473,0.592,-0.652,2466.84,-0.336,-0.112,0.112,-0.354,-0.124,0.927,0.525,0.829,-0.190,9.892,5.496,0.076,-1.817,0.279,0.736,-0.617,10.552,-5.466,-4.840,-1.115,none
5.123988,0.807,0.587,0.067,2555.38,-0.224,-0.224,0.224,-0.889,-0.335,-0.311,0.907,0.420,-0.036,2472.23,0.671,0.224,-0.560,-0.937,-0.348,0.024,0.521,-0.276,-0.808,2496.32,-0.112,0.000,-0.336,-0.645,0.056,0.763,0.476,0.595,-0.648,2453.84,0.112,0.000,0.224,-0.355,-0.122,0.927,0.524,0.828,-0.198,9.880,5.588,0.183,-1.557,0.275,0.734,-0.621,10.553,-5.496,-4.702,-0.947,none
5.145564,0.808,0.585,0.063,2548.06,0.112,0.336,-0.224,-0.878,-0.348,-0.330,0.909,0.416,-0.032,2468.62,0.336,0.112,-0.560,-0.933,-0.357,0.054,0.521,-0.272,-0.809,2493.86,-0.336,-0.112,-0.336,-0.651,0.046,0.758,0.474,0.594,-0.650,2460.33,0.336,0.224,-0.112,-0.363,-0.133,0.922,0.522,0.829,-0.201,9.881,5.939,-0.046,-1.359,0.273,0.735,-0.621,10.524,-5.145,-4.809,-0.718,none
5.169452,0.809,0.583,0.075,2538.56,0.112,0.112,-0.448,-0.880,-0.339,-0.332,0.907,0.420,-0.032,2472.80,-0.112,-0.224,-0.783,-0.946,-0.323,0.032,0.519,-0.275,-0.809,2504.41,-0.560,-0.112,-0.336,-0.660,0.053,0.749,0.474,0.598,-0.646,2459.81,-0.671,0.112,-0.112,-0.361,-0.123,0.925,0.525,0.828,-0.195,9.893,5.954,-0.122,-1.756,0.276,0.736,-0.618,10.564,-5.176,-4.947,-1.160,none
5.190588,0.808,0.585,0.063,2548.06,0.000,0.671,-0.336,-0.875,-0.313,-0.370,0.908,0.418,-0.032,2480.97,-0.448,-0.112,-0.671,-0.942,-0.332,0.057,0.526,-0.273,-0.806,2491.02,-0.783,-0.448,-0.224,-0.632,0.067,0.772,0.474,0.598,-0.646,2459.81,-0.560,0.336,-0.112,-0.349,-0.110,0.931,0.526,0.828,-0.194,9.907,5.802,0.122,-1.695,0.275,0.736,-0.618,10.537,-5.298,-4.733,-1.176,none
5.213660,0.808,0.585,0.071,2550.14,-0.112,0.448,-0.224,-0.884,-0.346,-0.315,0.909,0.416,-0.032,2468.62,-0.224,0.224,0.000,-0.929,-0.363,0.065,0.522,-0.269,-0.810,2491.15,-0.336,-0.336,-0.336,-0.635,0.050,0.771,0.476,0.600,-0.643,2470.07,0.224,0.112,0.112,-0.355,-0.120,0.927,0.525,0.828,-0.195,9.880,5.160,0.565,-1.985,0.275,0.735,-0.619,10.519,-6.031,-4.672,-1.374,none
5.236613,0.807,0.586,0.075,2543.60,0.000,-0.112,0.895,-0.878,-0.315,-0.359,0.904,0.426,-0.040,2503.89,0.448,0.112,0.000,-0.934,-0.354,0.055,0.521,-0.272,-0.809,2493.86,-0.224,-0.336,0.112,-0.626,0.078,0.776,0.476,0.595,-0.648,2453.84,0.671,0.560,0.000,-0.367,-0.121,0.922,0.526,0.827,-0.200,9.871,6.260,0.061,-1.557,0.276,0.732,-0.623,10.554,-4.763,-4.748,-0.962,none
5.258752,0.808,0.585,0.071,2550.14,0.112,0.671,-0.560,-0.878,-0.333,-0.343,0.907,0.420,-0.032,2472.80,-1.007,-0.448,-0.560,-0.944,-0.329,0.019,0.521,-0.272,-0.809,2493.86,0.000,0.112,0.112,-0.645,0.080,0.760,0.476,0.595,-0.648,2453.84,-0.224,0.000,-0.112,-0.361,-0.122,0.925,0.525,0.829,-0.189,9.924,6.366,0.107,-1.466,0.278,0.739,-0.613,10.560,-4.718,-4.489,-1.023,none
5.281054,0.808,0.586,0.063,2562.00,0.224,0.448,-0.560,-0.887,-0.342,-0.310,0.909,0.415,-0.032,2476.80,-0.448,-0.112,-0.336,-0.939,-0.341,0.044,0.521,-0.276,-0.808,2496.32,-0.112,-0.112,0.112,-0.641,0.073,0.764,0.476,0.595,-0.648,2453.84,-1.119,0.224,-0.336,-0.365,-0.126,0.923,0.518,0.833,-0.194,9.913,5.893,0.153,-1.130,0.268,0.741,-0.616,10.531,-5.206,-4.672,-0.504,none
5.303046,0.813,0.578,0.071,2546.62,-0.112,-0.448,0.112,-0.885,-0.322,-0.337,0.909,0.416,-0.032,2468.62,0.224,0.112,-0.671,-0.947,-0.321,0.032,0.521,-0.272,-0.809,2493.86,-0.448,-0.560,-0.224,-0.647,0.040,0.762,0.477,0.597,-0.645,2464.09,-0.895,0.112,0.112,-0.349,-0.119,0.929,0.519,0.833,-0.192,9.907,5.359,0.107,-2.214,0.270,0.738,-0.619,10.563,-5.786,-4.931,-1.588,none
5.324382,0.808,0.585,0.070,2564.07,-0.448,0.671,0.448,-0.881,-0.361,-0.305,0.910,0.414,-0.024,2456.65,-0.560,-0.224,0.448,-0.935,-0.350,0.061,0.518,-0.273,-0.810,2488.66,-0.560,-0.560,-0.112,-0.656,0.069,0.752,0.475,0.599,-0.644,2454.65,0.112,0.112,0.448,-0.366,-0.127,0.922,0.530,0.823,-0.203,9.881,5.786,-0.382,-1.985,0.278,0.730,-0.624,10.549,-5.191,-5.267,-1.115,none
5.347288,0.802,0.594,0.067,2559.36,-0.895,0.112,0.000,-0.880,-0.335,-0.337,0.905,0.425,-0.040,2489.69,-3.021,-0.560,0.112,-0.933,-0.354,0.069,0.519,-0.269,-0.811,2485.95,-0.671,-0.336,0.336,-0.646,0.023,0.763,0.471,0.599,-0.647,2455.08,0.224,0.448,0.336,-0.355,-0.118,0.927,0.531,0.825,-0.195,9.909,6.244,0.061,-1.359,0.284,0.735,-0.616,10.553,-4.809,-4.718,-0.718,none
5.371335,0.811,0.581,0.064,2529.91,0.336,0.448,-1.007,-0.866,-0.373,-0.333,0.906,0.423,-0.036,2476.93,-1.679,-0.671,-0.112,-0.929,-0.370,0.034,0.520,-0.265,-0.812,2482.47,-0.112,0.000,0.224,-0.618,0.085,0.782,0.471,0.599,-0.647,2455.08,-0.224,0.112,-0.224,-0.363,-0.121,0.924,0.524,0.829,-0.195,9.866,6.244,0.382,-1.466,0.273,0.736,-0.619,10.509,-4.992,-4.489,-1.038,none
5.391277,0.805,0.589,0.075,2550.28,0.895,0.560,-0.448,-0.878,-0.361,-0.314,0.907,0.420,-0.032,2472.80,0.224,-0.112,-0.783,-0.936,-0.351,0.040,0.517,-0.280,-0.809,2493.91,-0.336,-0.336,-0.336,-0.650,0.057,0.758,0.477,0.593,-0.649,2464.61,-0.783,0.000,-0.224,-0.358,-0.115,0.926,0.524,0.829,-0.195,9.906,6.885,-0.565,-1.786,0.276,0.735,-0.619,10.567,-4.336,-5.038,-1.130,none
5.413294,0.805,0.590,0.067,2559.87,-0.895,1.007,-0.448,-0.876,-0.345,-0.337,0.906,0.423,-0.032,2475.68,0.112,0.112,-0.895,-0.937,-0.344,0.060,0.521,-0.276,-0.808,2496.32,0.112,0.000,-0.224,-0.629,0.059,0.775,0.475,0.598,-0.646,2476.52,-0.560,0.224,-0.112,-0.355,-0.125,0.926,0.526,0.828,-0.193,9.934,6.321,0.260,-1.756,0.275,0.738,-0.616,10.567,-5.023,-4.519,-1.267,none
5.437701,0.813,0.579,0.067,2559.10,0.336,0.895,-0.224,-0.877,-0.345,-0.334,0.907,0.420,-0.036,2495.05,-1.343,0.560,0.895,-0.937,-0.344,0.060,0.521,-0.272,-0.809,2493.86,0.448,-0.112,0.000,-0.623,0.107,0.775,0.474,0.594,-0.650,2460.33,-0.224,0.000,-0.336,-0.363,-0.126,0.923,0.521,0.831,-0.195,9.903,6.198,0.076,-1.786,0.271,0.734,-0.623,10.541,-5.130,-4.702,-1.344,none
5.460752,0.803,0.591,0.078,2555.54,-0.112,0.783,0.000,-0.872,-0.321,-0.369,0.907,0.420,-0.032,2472.80,0.783,0.000,0.448,-0.935,-0.350,0.061,0.521,-0.272,-0.809,2493.86,0.112,0.112,0.000,-0.629,0.060,0.775,0.474,0.594,-0.650,2460.33,0.000,0.112,-0.112,-0.361,-0.122,0.925,0.525,0.827,-0.202,9.884,6.489,0.031,-1.695,0.275,0.732,-0.623,10.539,-4.824,-4.611,-1.252,none
5.485510,0.807,0.587,0.067,2555.38,-0.224,1.679,-0.783,-0.887,-0.354,-0.297,0.907,0.420,-0.028,2472.50,-1.007,-0.448,0.336,-0.936,-0.351,0.040,0.517,-0.272,-0.812,2496.77,-0.224,-0.112,0.224,-0.631,0.043,0.775,0.476,0.595,-0.648,2453.84,-0.112,0.112,-0.112,-0.361,-0.120,0.925,0.523,0.829,-0.197,9.888,6.687,-0.031,-1.511,0.273,0.735,-0.621,10.519,-4.641,-4.611,-1.038,none
5.507460,0.808,0.585,0.071,2550.14,0.336,1.343,-0.895,-0.881,-0.296,-0.370,0.907,0.420,-0.032,2472.80,-0.895,-0.448,0.112,-0.940,-0.337,0.058,0.521,-0.272,-0.809,2493.86,0.336,-0.112,0.224,-0.639,0.067,0.767,0.477,0.593,-0.649,2464.61,-0.336,0.112,-0.112,-0.371,-0.123,0.920,0.523,0.829,-0.200,9.902,6.565,-0.382,-1.725,0.273,0.736,-0.619,10.526,-4.748,-4.885,-1.237,none
5.530722,0.806,0.587,0.070,2555.19,-0.224,1.119,-0.560,-0.876,-0.338,-0.343,0.907,0.420,-0.032,2472.80,-0.895,-0.671,-0.112,-0.940,-0.340,0.027,0.518,-0.273,-0.810,2488.66,-0.336,-0.112,0.000,-0.633,0.067,0.771,0.474,0.598,-0.646,2459.81,-1.119,0.000,0.000,-0.359,-0.121,0.925,0.528,0.826,-0.199,9.909,6.702,-0.443,-1.771,0.280,0.732,-0.621,10.574,-4.687,-4.947,-1.237,none
5.553231,0.806,0.588,0.063,2568.09,-0.783,1.231,-0.560,-0.879,-0.370,-0.302,0.905,0.424,-0.036,2468.78,-0.560,0.000,0.112,-0.939,-0.338,0.058,0.517,-0.268,-0.813,2494.07,-0.112,-0.112,0.000,-0.633,0.067,0.771,0.471,0.599,-0.647,2455.08,-0.224,0.000,-0.112,-0.355,-0.125,0.926,0.529,0.825,-0.198,9.896,6.626,0.015,-1.328,0.280,0.732,-0.621,10.567,-4.718,-4.427,-0.824,none
5.575940,0.808,0.585,0.067,2548.71,0.560,0.895,-0.895,-0.888,-0.346,-0.304,0.907,0.420,-0.032,2472.80,-0.224,0.448,0.224,-0.937,-0.346,0.038,0.518,-0.273,-0.810,2488.66,0.560,0.336,-0.224,-0.611,0.070,0.788,0.474,0.598,-0.646,2459.81,-0.224,-0.112,-0.560,-0.366,-0.125,0.922,0.521,0.830,-0.196,9.892,6.519,0.076,-1.496,0.269,0.739,-0.618,10.548,-5.053,-4.550,-0.977,none
5.597205,0.810,0.582,0.075,2544.22,0.112,0.560,-0.336,-0.875,-0.341,-0.343,0.909,0.416,-0.032,2468.62,0.112,0.783,0.560,-0.925,-0.374,0.059,0.518,-0.273,-0.810,2488.66,0.560,0.336,-0.336,-0.657,0.070,0.751,0.473,0.596,-0.648,2466.28,0.224,-0.448,-0.112,-0.361,-0.130,0.923,0.522,0.832,-0.188,9.919,6.382,0.061,-1.893,0.273,0.738,-0.617,10.524,-5.252,-4.748,-1.282,none
5.622878,0.805,0.589,0.071,2549.55,0.000,0.895,0.112,-0.874,-0.350,-0.338,0.909,0.416,-0.032,2468.62,0.336,0.560,0.112,-0.937,-0.349,0.031,0.523,-0.273,-0.807,2485.78,0.112,0.560,-0.783,-0.636,0.041,0.771,0.476,0.595,-0.648,2453.84,0.000,-0.560,0.224,-0.353,-0.122,0.928,0.525,0.827,-0.202,9.909,5.985,0.214,-1.573,0.277,0.731,-0.624,10.549,-5.313,-4.733,-1.023,none
5.640819,0.805,0.590,0.070,2561.29,-0.224,0.224,-0.112,-0.871,-0.342,-0.353,0.907,0.420,-0.028,2472.50,0.336,0.560,0.112,-0.931,-0.360,0.063,0.521,-0.272,-0.809,2493.86,0.112,0.224,-0.224,-0.629,0.035,0.777,0.476,0.595,-0.648,2453.84,0.000,-0.448,-0.112,-0.355,-0.114,0.928,0.523,0.827,-0.206,9.870,6.321,-0.092,-1.344,0.272,0.730,-0.627,10.527,-4.870,-4.763,-0.779,none
5.666530,0.806,0.586,0.079,2544.36,0.224,0.224,-0.783,-0.890,-0.356,-0.284,0.907,0.420,-0.032,2472.80,-0.336,0.000,0.112,-0.939,-0.343,0.022,0.520,-0.271,-0.810,2501.95,0.000,0.336,0.000,-0.650,0.064,0.757,0.478,0.598,-0.643,2458.94,-0.671,-0.224,0.000,-0.357,-0.133,0.925,0.521,0.831,-0.195,9.904,6.550,-0.107,-1.649,0.272,0.737,-0.619,10.543,-4.855,-4.855,-1.130,none
5.682612,0.808,0.585,0.074,2550.86,-0.448,0.671,-0.560,-0.881,-0.369,-0.297,0.909,0.416,-0.028,2468.32,-0.671,-0.224,0.000,-0.936,-0.350,0.030,0.521,-0.272,-0.809,2493.86,-0.112,0.112,-0.112,-0.637,0.066,0.768,0.477,0.597,-0.645,2464.09,-0.336,-0.112,0.000,-0.361,-0.119,0.925,0.524,0.829,-0.197,9.895,6.015,0.107,-1.695,0.275,0.737,-0.617,10.561,-5.359,-4.779,-1.084,none
5.705593,0.806,0.587,0.070,2555.19,0.112,0.224,0.112,-0.883,-0.361,-0.300,0.908,0.418,-0.032,2480.97,0.224,0.000,0.224,-0.941,-0.336,0.050,0.524,-0.272,-0.807,2499.09,0.112,0.112,-0.224,-0.650,0.070,0.757,0.476,0.595,-0.648,2453.84,0.112,-0.448,0.000,-0.360,-0.124,0.925,0.523,0.829,-0.199,9.882,5.466,0.153,-1.771,0.273,0.732,-0.624,10.543,-5.725,-4.809,-1.221,none
5.727173,0.805,0.588,0.078,2551.04,-0.224,0.112,0.560,-0.881,-0.339,-0.331,0.908,0.418,-0.032,2480.97,0.224,0.224,0.224,-0.942,-0.332,0.035,0.521,-0.272,-0.809,2493.86,0.112,0.000,-0.224,-0.644,0.106,0.758,0.475,0.599,-0.644,2454.65,0.336,-0.224,0.112,-0.358,-0.124,0.926,0.526,0.825,-0.207,9.840,5.710,0.244,-1.618,0.278,0.729,-0.626,10.541,-5.511,-4.595,-1.008,none
5.749420,0.803,0.591,0.078,2555.54,0.112,0.224,0.112,-0.882,-0.311,-0.353,0.906,0.423,-0.032,2475.68,-0.336,-0.336,0.224,-0.939,-0.343,0.029,0.521,-0.272,-0.809,2493.86,0.224,0.112,0.000,-0.648,0.055,0.760,0.477,0.597,-0.645,2464.09,-0.112,0.000,-0.112,-0.358,-0.122,0.926,0.525,0.827,-0.201,9.882,6.565,0.153,-1.405,0.273,0.733,-0.623,10.519,-4.565,-4.611,-0.947,none
5.771139,0.806,0.587,0.074,2555.91,0.336,0.671,-0.783,-0.885,-0.326,-0.332,0.909,0.416,-0.032,2468.62,-0.895,-0.448,0.336,-0.934,-0.353,0.055,0.521,-0.272,-0.809,2493.86,0.112,0.336,0.448,-0.616,0.046,0.786,0.476,0.595,-0.648,2453.84,-0.224,-0.224,-0.224,-0.350,-0.118,0.929,0.522,0.831,-0.193,9.910,6.107,0.214,-1.344,0.273,0.741,-0.614,10.553,-5.008,-4.427,-0.809,none
5.791272,0.811,0.581,0.067,2550.98,0.336,-0.224,-0.336,-0.892,-0.317,-0.322,0.909,0.415,-0.032,2476.80,-0.448,-0.112,0.448,-0.942,-0.332,0.057,0.521,-0.272,-0.809,2493.86,0.000,0.000,0.112,-0.634,0.069,0.770,0.476,0.595,-0.648,2453.84,-0.448,-0.224,-0.112,-0.355,-0.115,0.928,0.518,0.833,-0.195,9.879,5.603,0.229,-1.405,0.270,0.737,-0.619,10.516,-5.511,-4.611,-0.763,none
5.810978,0.809,0.582,0.079,2544.99,0.224,-0.224,0.112,-0.881,-0.327,-0.342,0.909,0.416,-0.028,2468.32,0.112,-0.224,-0.224,-0.939,-0.341,0.051,0.521,-0.276,-0.808,2496.32,-0.448,-0.336,-0.224,-0.654,0.045,0.755,0.474,0.594,-0.650,2460.33,0.112,-0.112,0.112,-0.362,-0.139,0.922,0.523,0.827,-0.206,9.866,5.878,-0.534,-1.771,0.273,0.731,-0.626,10.532,-5.221,-5.282,-1.023,none
5.829879,0.799,0.595,0.082,2554.26,-1.119,0.448,-0.112,-0.885,-0.353,-0.302,0.908,0.418,-0.032,2480.97,-0.448,-0.671,-0.783,-0.943,-0.332,0.027,0.521,-0.272,-0.809,2493.86,-0.560,-0.112,-0.224,-0.631,0.042,0.774,0.474,0.594,-0.650,2460.33,-0.224,-0.224,0.336,-0.354,-0.119,0.927,0.524,0.828,-0.200,9.908,6.183,-0.260,-1.725,0.277,0.733,-0.621,10.553,-4.901,-5.099,-1.115,none
5.851047,0.810,0.583,0.067,2557.61,-0.448,0.783,-0.560,-0.886,-0.334,-0.321,0.907,0.420,-0.032,2472.80,-1.455,-0.671,-0.224,-0.937,-0.347,0.045,0.519,-0.269,-0.811,2485.95,-0.783,0.000,-0.224,-0.634,0.083,0.769,0.471,0.603,-0.644,2455.93,-0.336,-0.336,0.224,-0.359,-0.123,0.925,0.529,0.825,-0.199,9.924,5.832,-0.275,-1.969,0.280,0.736,-0.616,10.550,-5.481,-5.099,-1.221,none
5.871231,0.804,0.591,0.063,2553.59,-0.336,0.224,0.336,-0.878,-0.310,-0.366,0.906,0.423,-0.032,2475.68,0.000,0.112,0.112,-0.931,-0.363,0.042,0.523,-0.265,-0.810,2487.68,0.112,0.112,-0.112,-0.636,0.074,0.768,0.469,0.605,-0.644,2466.47,-0.224,-0.224,0.112,-0.366,-0.139,0.920,0.527,0.824,-0.205,9.847,5.511,0.336,-1.817,0.276,0.729,-0.626,10.542,-5.710,-4.626,-1.221,none
5.891469,0.802,0.593,0.075,2546.76,-0.112,-0.112,0.224,-0.877,-0.345,-0.334,0.907,0.420,-0.032,2472.80,0.448,0.560,0.224,-0.940,-0.339,0.036,0.523,-0.273,-0.807,2485.78,0.448,0.224,-0.112,-0.648,0.065,0.759,0.471,0.599,-0.647,2455.08,0.560,-0.112,-0.112,-0.360,-0.129,0.924,0.525,0.825,-0.207,9.860,6.305,0.076,-1.588,0.274,0.730,-0.626,10.522,-4.855,-4.656,-1.023,none
5.910418,0.801,0.592,0.082,2549.13,-0.112,0.000,-0.112,-0.891,-0.316,-0.326,0.907,0.420,-0.028,2472.50,-0.336,0.224,0.112,-0.937,-0.347,0.045,0.521,-0.272,-0.809,2493.86,0.560,0.895,0.000,-0.653,0.030,0.757,0.476,0.595,-0.648,2453.84,0.112,0.000,-0.224,-0.359,-0.133,0.924,0.521,0.829,-0.204,9.888,6.580,0.107,-1.603,0.272,0.736,-0.620,10.520,-4.718,-4.595,-1.069,none
5.930631,0.808,0.584,0.078,2551.63,0.336,0.560,-0.560,-0.885,-0.332,-0.327,0.909,0.416,-0.028,2468.32,-0.448,0.112,0.112,-0.936,-0.349,0.047,0.525,-0.276,-0.805,2493.49,0.336,0.448,0.336,-0.640,0.049,0.767,0.477,0.597,-0.645,2464.09,-0.336,0.112,-0.112,-0.359,-0.126,0.925,0.517,0.833,-0.196,9.891,6.260,0.290,-1.710,0.267,0.740,-0.618,10.559,-5.344,-4.656,-1.069,none
5.952204,0.812,0.578,0.078,2562.02,0.224,0.336,0.000,-0.879,-0.316,-0.358,0.911,0.412,-0.028,2473.28,-0.671,-0.448,0.448,-0.941,-0.338,0.028,0.521,-0.276,-0.808,2496.32,-0.112,0.000,0.336,-0.645,0.081,0.760,0.473,0.596,-0.648,2466.28,-0.783,0.112,0.000,-0.359,-0.125,0.925,0.520,0.831,-0.200,9.886,5.557,0.214,-1.908,0.271,0.735,-0.621,10.550,-5.756,-4.870,-1.344,none
5.971870,0.806,0.587,0.070,2555.19,-0.112,0.112,0.448,-0.877,-0.353,-0.325,0.908,0.418,-0.032,2480.97,-0.224,-0.224,0.448,-0.931,-0.362,0.056,0.521,-0.272,-0.809,2493.86,-0.112,-0.112,0.224,-0.637,0.066,0.768,0.476,0.595,-0.648,2453.84,0.000,-0.336,0.112,-0.351,-0.113,0.929,0.525,0.826,-0.205,9.877,5.420,0.122,-1.573,0.275,0.731,-0.625,10.536,-5.679,-4.840,-0.947,none
5.990950,0.803,0.591,0.074,2554.78,0.224,0.000,0.112,-0.878,-0.348,-0.330,0.907,0.420,-0.028,2472.50,-0.560,-0.448,0.336,-0.940,-0.336,0.058,0.520,-0.268,-0.811,2499.26,-0.112,-0.112,0.000,-0.647,0.031,0.762,0.474,0.598,-0.646,2459.81,0.224,-0.448,-0.112,-0.360,-0.123,0.925,0.523,0.827,-0.206,9.854,5.603,0.153,-1.420,0.274,0.731,-0.625,10.522,-5.435,-4.794,-0.824,none
6.009984,0.805,0.589,0.075,2550.28,0.112,-0.112,-0.224,-0.888,-0.317,-0.333,0.907,0.420,-0.032,2472.80,-0.560,-0.671,0.224,-0.941,-0.335,0.043,0.522,-0.269,-0.810,2491.15,-0.448,-0.336,0.112,-0.616,0.117,0.779,0.475,0.599,-0.644,2454.65,-0.336,-0.112,0.000,-0.356,-0.120,0.927,0.524,0.827,-0.205,9.870,5.969,-0.168,-1.359,0.274,0.730,-0.626,10.522,-5.145,-4.962,-0.595,none
6.032073,0.805,0.589,0.075,2550.28,-0.112,0.112,-0.336,-0.883,-0.313,-0.350,0.907,0.420,-0.032,2472.80,-0.448,-0.560,-0.224,-0.942,-0.334,0.026,0.521,-0.276,-0.808,2496.32,-0.336,-0.112,0.000,-0.644,0.080,0.761,0.474,0.598,-0.646,2459.81,-0.783,0.000,0.000,-0.362,-0.133,0.923,0.523,0.828,-0.204,9.894,6.076,-0.260,-1.588,0.272,0.734,-0.623,10.547,-5.053,-5.023,-0.947,none
6.052060,0.808,0.585,0.070,2564.07,-0.224,0.336,-0.560,-0.886,-0.354,-0.301,0.907,0.420,-0.032,2472.80,-0.895,-0.671,0.000,-0.938,-0.346,0.030,0.519,-0.269,-0.811,2485.95,-0.448,0.112,0.112,-0.622,0.092,0.778,0.474,0.602,-0.643,2460.65,-0.671,0.224,0.112,-0.361,-0.122,0.925,0.525,0.827,-0.199,9.884,5.985,-0.137,-1.664,0.275,0.735,-0.620,10.565,-5.252,-5.023,-0.992,none
6.072240,0.805,0.590,0.070,2561.29,-0.224,0.112,-0.112,-0.872,-0.311,-0.377,0.907,0.420,-0.032,2472.80,-0.895,-0.224,0.448,-0.933,-0.356,0.055,0.520,-0.274,-0.809,2480.56,0.000,0.448,0.448,-0.656,0.047,0.753,0.473,0.601,-0.644,2465.80,0.224,0.000,0.112,-0.368,-0.127,0.921,0.525,0.827,-0.199,9.888,6.153,-0.092,-1.618,0.277,0.733,-0.621,10.542,-5.588,-4.733,-0.916,none
6.094289,0.806,0.587,0.074,2555.91,0.224,0.224,-0.112,-0.889,-0.326,-0.321,0.907,0.420,-0.032,2472.80,-0.448,0.000,0.560,-0.933,-0.357,0.054,0.521,-0.272,-0.809,2493.86,0.336,0.336,0.224,-0.625,0.053,0.779,0.474,0.594,-0.650,2460.33,0.448,0.000,0.000,-0.358,-0.124,0.925,0.523,0.829,-0.197,9.883,5.878,0.092,-1.405,0.275,0.734,-0.621,10.532,-5.267,-4.672,-0.840,none
6.116737,0.808,0.585,0.074,2550.86,0.000,0.224,-0.224,-0.875,-0.352,-0.333,0.908,0.417,-0.036,2468.05,-0.112,0.560,0.224,-0.937,-0.347,0.045,0.523,-0.273,-0.807,2485.78,0.224,0.560,0.112,-0.618,0.061,0.784,0.474,0.594,-0.650,2460.33,0.112,-0.224,-0.224,-0.357,-0.123,0.926,0.519,0.831,-0.200,9.852,5.588,0.168,-1.527,0.271,0.736,-0.621,10.502,-5.527,-4.702,-0.901,none
6.138544,0.806,0.586,0.079,2544.36,0.224,0.000,0.000,-0.875,-0.344,-0.341,0.909,0.416,-0.028,2468.32,0.336,0.336,0.224,-0.942,-0.337,0.012,0.521,-0.272,-0.809,2493.86,0.224,0.224,-0.112,-0.636,0.100,0.765,0.476,0.595,-0.648,2453.84,-0.448,-0.224,-0.224,-0.360,-0.123,0.925,0.522,0.829,-0.202,9.874,5.618,0.046,-1.740,0.272,0.732,-0.624,10.546,-5.573,-4.794,-1.176,none
6.159917,0.805,0.589,0.075,2550.28,0.112,0.336,0.112,-0.880,-0.324,-0.348,0.907,0.420,-0.032,2472.80,0.224,0.000,-0.336,-0.939,-0.341,0.044,0.521,-0.272,-0.809,2493.86,-0.448,-0.112,-0.224,-0.648,0.055,0.760,0.473,0.601,-0.644,2465.80,-0.224,-0.112,0.112,-0.361,-0.122,0.925,0.521,0.830,-0.202,9.919,5.664,0.321,-2.061,0.269,0.736,-0.621,10.523,-5.588,-4.458,-1.527,none
6.182227,0.807,0.585,0.083,2531.25,-0.336,-0.112,-0.336,-0.875,-0.344,-0.341,0.906,0.421,-0.032,2464.64,1.902,-0.560,0.560,-0.938,-0.342,0.060,0.508,-0.250,-0.824,2518.94,-1.679,-1.455,0.448,-0.615,0.099,0.782,0.477,0.593,-0.649,2464.61,0.783,0.560,0.000,-0.348,-0.123,0.930,0.533,0.818,-0.217,9.895,5.527,-0.718,-1.908,0.281,0.719,-0.635,10.601,-5.634,-4.885,-1.130,none
6.202767,0.799,0.598,0.066,2592.45,0.224,0.560,-0.671,-0.870,-0.318,-0.378,0.910,0.413,-0.028,2463.26,0.224,-0.112,-0.112,-0.944,-0.330,0.020,0.524,-0.269,-0.808,2483.06,-1.231,-0.112,-0.112,-0.637,0.067,0.768,0.477,0.593,-0.649,2447.84,0.000,0.000,0.112,-0.355,-0.125,0.926,0.518,0.832,-0.196,9.885,5.817,-0.275,-1.237,0.269,0.740,-0.616,10.519,-5.267,-4.718,-0.687,none
6.224733,0.803,0.591,0.078,2555.54,0.224,0.000,-0.336,-0.889,-0.318,-0.329,0.910,0.413,-0.028,2463.26,-0.336,-0.112,0.224,-0.944,-0.326,0.048,0.520,-0.268,-0.811,2499.26,-0.336,0.112,0.000,-0.662,0.070,0.746,0.470,0.602,-0.646,2461.08,-0.560,0.000,-0.112,-0.355,-0.123,0.927,0.523,0.827,-0.206,9.876,5.832,0.153,-1.832,0.276,0.732,-0.622,10.544,-5.313,-4.824,-1.237,none
6.246594,0.803,0.592,0.070,2566.40,-0.448,0.224,0.448,-0.876,-0.374,-0.306,0.909,0.416,-0.028,2468.32,0.671,-0.112,0.000,-0.935,-0.350,0.047,0.518,-0.273,-0.810,2488.66,-0.336,-0.336,0.000,-0.658,0.038,0.752,0.475,0.599,-0.644,2454.65,-0.671,0.112,-0.112,-0.360,-0.131,0.924,0.525,0.824,-0.212,9.893,5.969,0.015,-1.573,0.275,0.729,-0.627,10.564,-5.160,-4.794,-0.992,none
6.268148,0.805,0.588,0.078,2551.04,0.112,0.000,-0.224,-0.873,-0.318,-0.371,0.906,0.423,-0.032,2475.68,-0.336,0.000,-0.224,-0.941,-0.339,0.020,0.521,-0.272,-0.809,2493.86,-0.112,0.000,0.000,-0.644,0.066,0.762,0.474,0.598,-0.646,2459.81,-0.224,-0.112,0.000,-0.358,-0.128,0.925,0.524,0.828,-0.198,9.906,6.168,0.122,-1.618,0.275,0.736,-0.619,10.541,-5.053,-4.641,-1.069,none
6.289827,0.810,0.583,0.067,2557.61,0.336,1.007,-0.336,-0.863,-0.339,-0.375,0.907,0.420,-0.036,2472.23,-0.112,-0.112,-0.224,-0.942,-0.334,0.027,0.521,-0.272,-0.809,2493.86,0.336,0.224,0.112,-0.637,0.067,0.768,0.474,0.598,-0.646,2459.81,0.000,-0.112,-0.112,-0.359,-0.121,0.925,0.520,0.830,-0.201,9.898,5.618,0.412,-1.267,0.272,0.736,-0.620,10.534,-5.481,-4.458,-0.687,none
6.311874,0.808,0.584,0.078,2551.63,0.336,0.112,-0.112,-0.879,-0.344,-0.331,0.909,0.416,-0.028,2468.32,0.112,0.000,0.448,-0.927,-0.365,0.087,0.521,-0.272,-0.809,2493.86,-0.224,-0.112,0.000,-0.646,0.072,0.760,0.476,0.595,-0.648,2453.84,-0.224,-0.112,-0.224,-0.351,-0.125,0.928,0.518,0.829,-0.210,9.870,5.664,0.000,-1.557,0.266,0.730,-0.629,10.542,-5.344,-4.840,-0.885,none
6.332950,0.803,0.590,0.083,2543.00,-0.112,0.112,-0.112,-0.875,-0.382,-0.298,0.908,0.417,-0.036,2468.05,-0.783,-0.560,-0.448,-0.940,-0.339,0.036,0.524,-0.272,-0.807,2499.09,-0.448,-0.112,0.112,-0.650,0.048,0.759,0.476,0.595,-0.648,2453.84,-0.448,0.112,0.112,-0.356,-0.127,0.926,0.523,0.826,-0.208,9.892,6.305,-0.687,-1.634,0.274,0.729,-0.627,10.555,-4.656,-5.359,-0.840,none
6.354010,0.804,0.589,0.074,2562.02,-0.895,0.560,-0.895,-0.881,-0.327,-0.342,0.907,0.420,-0.032,2472.80,-1.902,-0.895,-0.560,-0.936,-0.349,0.054,0.520,-0.268,-0.811,2499.26,-1.007,0.224,0.112,-0.628,0.118,0.769,0.474,0.598,-0.646,2459.81,-0.448,-0.112,0.224,-0.367,-0.126,0.922,0.524,0.828,-0.198,9.934,6.015,-0.168,-1.481,0.276,0.737,-0.617,10.547,-4.992,-5.008,-0.870,none
6.377070,0.807,0.587,0.067,2555.38,-0.560,0.000,-0.560,-0.881,-0.325,-0.344,0.911,0.413,-0.016,2443.01,3.693,2.910,0.560,-0.936,-0.348,0.052,0.522,-0.269,-0.810,2491.15,-0.336,0.224,0.000,-0.659,0.053,0.750,0.473,0.596,-0.648,2466.28,-0.671,-0.224,0.000,-0.361,-0.134,0.923,0.518,0.829,-0.211,9.840,5.252,-0.244,-1.985,0.266,0.730,-0.630,10.507,-5.756,-5.206,-1.252,none
6.398311,0.806,0.586,0.082,2545.98,-0.224,-0.112,0.560,-0.871,-0.338,-0.357,0.906,0.423,-0.032,2475.68,0.671,0.336,-0.224,-0.934,-0.353,0.046,0.524,-0.263,-0.810,2501.01,-1.007,-0.224,-0.112,-0.655,0.063,0.753,0.472,0.600,-0.645,2449.91,-0.112,-0.112,0.336,-0.369,-0.127,0.921,0.532,0.821,-0.207,9.883,6.061,0.046,-1.527,0.284,0.727,-0.626,10.585,-4.992,-4.626,-0.855,none
6.419010,0.800,0.596,0.074,2567.45,0.112,0.671,-0.336,-0.880,-0.315,-0.356,0.910,0.413,-0.028,2463.26,0.000,0.224,-0.448,-0.935,-0.352,0.039,0.524,-0.272,-0.807,2499.09,-0.112,0.112,-0.224,-0.644,0.065,0.762,0.473,0.596,-0.648,2466.28,-0.448,-0.224,-0.560,-0.357,-0.122,0.926,0.517,0.833,-0.198,9.889,6.275,0.366,-1.710,0.268,0.737,-0.620,10.555,-5.008,-4.473,-1.298,none
6.441253,0.809,0.583,0.074,2558.14,0.448,0.448,-0.560,-0.885,-0.313,-0.344,0.913,0.405,-0.040,2488.45,0.336,1.119,0.560,-0.942,-0.334,0.026,0.524,-0.269,-0.808,2483.06,0.560,0.224,0.448,-0.651,0.082,0.754,0.475,0.598,-0.646,2476.52,-0.448,-0.224,-0.224,-0.355,-0.125,0.926,0.523,0.828,-0.201,9.912,5.023,0.733,-1.756,0.274,0.735,-0.621,10.566,-6.260,-4.397,-1.145,none
6.461566,0.808,0.585,0.070,2564.07,0.448,0.224,0.560,-0.869,-0.341,-0.359,0.909,0.415,-0.028,2476.50,0.000,0.560,1.231,-0.930,-0.363,0.049,0.520,-0.268,-0.811,2499.26,0.448,0.112,0.336,-0.629,0.059,0.775,0.477,0.593,-0.649,2464.61,0.448,-0.224,-0.112,-0.366,-0.124,0.922,0.526,0.825,-0.209,9.824,5.267,0.641,-1.206,0.277,0.727,-0.628,10.531,-5.756,-4.275,-0.718,none
6.482652,0.803,0.591,0.078,2555.54,0.783,-0.224,0.000,-0.880,-0.369,-0.298,0.907,0.420,-0.032,2472.80,-0.336,0.224,1.007,-0.937,-0.345,0.060,0.520,-0.268,-0.811,2499.26,0.560,0.336,0.112,-0.665,0.052,0.745,0.470,0.599,-0.648,2438.55,0.783,-0.671,-0.336,-0.355,-0.125,0.926,0.521,0.827,-0.210,9.809,6.076,0.489,-1.237,0.271,0.728,-0.629,10.488,-5.023,-4.366,-0.733,none
6.506192,0.804,0.589,0.083,2529.88,0.448,0.224,-0.783,-0.880,-0.347,-0.325,0.910,0.413,-0.036,2464.81,-0.560,-0.112,0.112,-0.945,-0.326,0.034,0.524,-0.269,-0.808,2483.06,0.000,0.112,0.224,-0.626,0.067,0.777,0.470,0.599,-0.648,2438.55,-0.336,0.224,-0.336,-0.357,-0.130,0.925,0.521,0.828,-0.205,9.824,6.321,0.092,-1.420,0.271,0.735,-0.621,10.472,-4.748,-4.779,-0.840,none
6.527722,0.807,0.586,0.075,2543.60,-0.112,0.448,-0.671,-0.882,-0.311,-0.353,0.911,0.412,-0.032,2473.58,-0.112,-0.448,-0.783,-0.935,-0.353,0.047,0.520,-0.274,-0.809,2480.56,-0.560,-0.336,-0.224,-0.667,0.045,0.743,0.471,0.595,-0.651,2455.60,-1.007,0.560,-0.336,-0.358,-0.124,0.925,0.517,0.832,-0.203,9.926,6.275,-0.305,-1.496,0.268,0.738,-0.620,10.540,-4.748,-5.084,-0.992,none
6.549857,0.809,0.583,0.078,2558.90,-0.112,0.336,-0.671,-0.865,-0.353,-0.357,0.909,0.415,-0.032,2476.80,0.112,-0.336,-1.455,-0.940,-0.341,0.028,0.521,-0.272,-0.809,2493.86,-0.671,-0.336,-0.448,-0.645,0.024,0.764,0.472,0.595,-0.651,2472.77,-0.895,0.448,0.112,-0.356,-0.127,0.926,0.523,0.829,-0.200,9.932,5.664,-0.305,-1.802,0.275,0.735,-0.620,10.587,-5.466,-5.237,-1.130,none
6.571701,0.811,0.581,0.067,2565.71,-0.560,0.224,-0.224,-0.860,-0.333,-0.388,0.907,0.420,-0.032,2472.80,0.224,0.560,-0.895,-0.926,-0.372,0.067,0.520,-0.268,-0.811,2499.26,-0.560,0.112,-0.783,-0.624,0.108,0.774,0.469,0.600,-0.648,2467.55,-0.671,0.671,0.448,-0.352,-0.121,0.928,0.527,0.825,-0.204,9.896,5.679,-0.107,-1.649,0.275,0.731,-0.624,10.572,-5.389,-5.069,-0.962,none
6.592330,0.801,0.593,0.082,2562.27,-0.224,0.000,-0.224,-0.863,-0.331,-0.381,0.907,0.420,-0.028,2472.50,0.448,0.895,-0.224,-0.934,-0.353,0.046,0.519,-0.269,-0.811,2485.95,-0.224,0.336,-0.671,-0.617,0.069,0.784,0.471,0.599,-0.647,2455.08,-0.336,0.336,0.224,-0.366,-0.128,0.922,0.520,0.829,-0.207,9.865,5.695,-0.107,-1.664,0.271,0.731,-0.626,10.502,-5.359,-5.053,-0.916,none
6.613931,0.807,0.586,0.075,2543.60,0.112,0.000,0.000,-0.876,-0.324,-0.358,0.907,0.420,-0.032,2472.80,0.224,0.560,-0.112,-0.943,-0.331,0.040,0.522,-0.269,-0.810,2491.15,-0.336,0.560,-0.671,-0.646,0.073,0.760,0.476,0.595,-0.648,2453.84,-0.112,0.560,0.224,-0.359,-0.123,0.925,0.516,0.832,-0.203,9.874,5.756,-0.305,-2.046,0.269,0.737,-0.620,10.506,-5.405,-5.313,-1.359,none
6.638188,0.812,0.579,0.075,2538.41,-0.224,0.671,0.112,-0.884,-0.323,-0.339,0.909,0.416,-0.028,2468.32,0.671,0.560,-0.895,-0.945,-0.327,0.026,0.521,-0.272,-0.809,2493.86,-0.336,0.224,-1.007,-0.637,0.066,0.768,0.474,0.598,-0.646,2459.81,-0.336,0.671,0.448,-0.356,-0.125,0.926,0.523,0.827,-0.205,9.908,5.405,-0.687,-2.107,0.273,0.732,-0.624,10.576,-5.511,-5.649,-1.176,none
6.658932,0.802,0.592,0.074,2567.12,-0.895,0.224,0.336,-0.873,-0.318,-0.371,0.909,0.416,0.004,2423.58,3.917,3.469,-0.336,-0.938,-0.344,0.038,0.523,-0.271,-0.808,2507.16,-0.783,0.336,-1.231,-0.639,0.057,0.767,0.474,0.598,-0.646,2459.81,-0.671,0.112,1.007,-0.363,-0.123,0.924,0.517,0.830,-0.210,9.847,5.588,-0.641,-1.969,0.263,0.731,-0.630,10.501,-5.221,-5.679,-1.069,none
6.679887,0.805,0.587,0.087,2537.96,-0.448,0.448,0.112,-0.878,-0.325,-0.351,0.906,0.417,-0.076,2585.29,0.671,7.498,-0.448,-0.936,-0.352,0.031,0.534,-0.253,-0.806,2487.40,-0.560,0.000,-0.671,-0.657,0.071,0.751,0.477,0.605,-0.637,2464.57,-1.231,0.560,1.007,-0.363,-0.123,0.924,0.525,0.823,-0.217,9.896,5.832,-0.901,-2.443,0.278,0.722,-0.634,10.648,-5.069,-6.183,-1.450,none
6.701024,0.800,0.595,0.081,2589.35,-1.679,0.336,0.224,-0.881,-0.327,-0.342,0.904,0.427,-0.000,2449.99,-0.448,0.112,-1.679,-0.937,-0.347,0.029,0.524,-0.254,-0.813,2518.12,-1.007,0.671,0.000,-0.635,0.050,0.771,0.477,0.605,-0.637,2464.57,0.224,0.560,1.007,-0.349,-0.123,0.929,0.520,0.827,-0.212,9.892,5.786,-0.137,-0.595,0.267,0.729,-0.630,10.552,-4.931,-5.344,0.275,none
6.722374,0.799,0.594,0.090,2541.96,-1.119,-0.560,-0.895,-0.874,-0.370,-0.314,0.905,0.423,-0.040,2499.64,-0.112,0.783,-0.560,-0.941,-0.339,0.020,0.530,-0.253,-0.810,2491.50,-1.231,0.336,0.448,-0.646,0.072,0.760,0.479,0.602,-0.638,2475.09,-0.224,0.224,0.448,-0.355,-0.120,0.927,0.517,0.830,-0.210,9.908,5.511,0.046,-2.168,0.267,0.733,-0.625,10.577,-5.664,-5.389,-1.420,none
6.744378,0.806,0.585,0.090,2546.81,-0.448,0.448,0.560,-0.889,-0.306,-0.340,0.906,0.423,-0.008,2454.39,1.231,0.224,-0.224,-0.929,-0.367,0.043,0.522,-0.263,-0.811,2509.12,-0.783,0.224,1.455,-0.642,0.074,0.763,0.482,0.601,-0.638,2462.69,0.000,0.448,0.671,-0.366,-0.133,0.921,0.522,0.827,-0.208,9.912,5.084,0.107,-1.802,0.276,0.732,-0.622,10.559,-6.015,-5.115,-1.069,none
6.768104,0.802,0.590,0.086,2557.19,-0.336,-0.560,0.560,-0.884,-0.334,-0.328,0.905,0.423,-0.036,2499.27,0.783,1.119,0.000,-0.948,-0.317,0.038,0.522,-0.269,-0.810,2491.15,0.112,-0.783,1.119,-0.637,0.042,0.770,0.475,0.602,-0.642,2475.44,0.783,-0.448,0.448,-0.357,-0.126,0.925,0.529,0.821,-0.213,9.906,5.481,-0.290,-1.756,0.278,0.725,-0.630,10.558,-5.740,-5.237,-0.855,none
6.790406,0.796,0.600,0.078,2565.42,-0.783,-0.336,0.560,-0.876,-0.313,-0.366,0.903,0.430,-0.032,2484.21,0.112,1.119,-0.224,-0.936,-0.352,0.032,0.524,-0.266,-0.809,2479.58,0.560,-0.671,1.455,-0.625,0.053,0.779,0.478,0.598,-0.643,2458.94,0.448,0.000,0.112,-0.352,-0.131,0.927,0.522,0.825,-0.216,9.836,5.603,0.290,-1.588,0.270,0.727,-0.631,10.543,-5.618,-4.779,-0.992,none
6.812342,0.804,0.588,0.082,2551.04,0.560,0.112,0.112,-0.875,-0.341,-0.343,0.907,0.420,-0.028,2472.50,-0.448,-0.336,0.671,-0.938,-0.343,0.059,0.515,-0.259,-0.817,2505.10,0.448,0.000,1.902,-0.626,0.077,0.776,0.476,0.595,-0.648,2453.84,0.336,0.112,0.000,-0.358,-0.130,0.925,0.526,0.826,-0.204,9.870,6.092,0.092,-1.359,0.277,0.734,-0.620,10.555,-5.099,-4.779,-0.672,none
6.834288,0.805,0.590,0.070,2561.29,0.224,-0.112,-0.448,-0.892,-0.311,-0.328,0.908,0.418,-0.028,2480.67,-0.560,-0.560,0.671,-0.934,-0.351,0.062,0.519,-0.269,-0.811,2485.95,-0.224,0.000,1.343,-0.649,0.046,0.759,0.475,0.599,-0.644,2454.65,0.224,0.112,-0.112,-0.351,-0.122,0.928,0.518,0.830,-0.205,9.917,6.092,0.305,-1.511,0.268,0.738,-0.620,10.562,-5.924,-4.611,-0.748,none
6.855917,0.809,0.582,0.082,2560.51,0.336,0.000,0.448,-0.885,-0.302,-0.354,0.907,0.420,-0.024,2472.26,0.112,-0.783,1.119,-0.943,-0.331,0.018,0.516,-0.275,-0.811,2499.23,-0.112,0.336,1.902,-0.652,0.039,0.757,0.477,0.597,-0.645,2464.09,0.448,-0.112,0.000,-0.360,-0.132,0.924,0.524,0.827,-0.203,9.914,5.359,-0.183,-1.664,0.274,0.733,-0.623,10.562,-5.847,-5.008,-0.916,none
6.878990,0.802,0.594,0.070,2560.78,-0.895,-0.448,0.448,-0.873,-0.321,-0.366,0.903,0.427,-0.036,2473.04,-0.336,-0.112,0.783,-0.947,-0.319,0.023,0.522,-0.275,-0.808,2471.67,1.007,0.560,1.902,-0.664,0.027,0.747,0.470,0.606,-0.642,2461.33,0.000,-1.343,0.336,-0.368,-0.129,0.921,0.533,0.821,-0.202,9.871,5.069,0.504,-2.122,0.286,0.728,-0.623,10.554,-6.366,-4.229,-1.527,none
6.900289,0.798,0.599,0.066,2572.09,-0.224,-0.448,1.231,-0.881,-0.322,-0.347,0.905,0.423,-0.044,2476.82,0.336,0.112,1.455,-0.943,-0.329,0.041,0.520,-0.285,-0.805,2480.60,1.007,0.224,4.029,-0.667,0.018,0.744,0.469,0.598,-0.650,2443.74,1.455,-1.343,-0.671,-0.360,-0.124,0.925,0.521,0.829,-0.205,9.845,5.908,0.885,-1.649,0.269,0.731,-0.627,10.469,-5.405,-4.183,-1.130,none
6.922096,0.808,0.582,0.087,2527.07,1.119,0.000,0.224,-0.885,-0.342,-0.315,0.906,0.423,-0.024,2455.04,-0.112,-0.112,1.343,-0.936,-0.351,0.040,0.514,-0.273,-0.814,2491.62,0.560,-0.112,3.469,-0.649,0.022,0.760,0.472,0.588,-0.656,2450.90,1.902,0.112,-0.224,-0.353,-0.127,0.927,0.521,0.832,-0.191,9.880,6.519,0.595,-2.015,0.275,0.741,-0.612,10.522,-5.069,-4.305,-1.527,none
6.942367,0.816,0.575,0.059,2560.22,0.560,1.231,-0.112,-0.877,-0.316,-0.362,0.913,0.407,-0.032,2477.69,0.895,1.007,0.112,-0.946,-0.323,0.040,0.517,-0.278,-0.810,2477.86,0.224,0.895,0.000,-0.658,0.038,0.752,0.471,0.591,-0.655,2456.14,0.560,0.112,-0.224,-0.358,-0.127,0.925,0.520,0.832,-0.195,9.853,6.000,0.183,-1.634,0.272,0.746,-0.608,10.501,-6.107,-4.611,-0.947,none
6.965428,0.808,0.585,0.071,2550.14,-0.224,-0.671,1.007,-0.881,-0.325,-0.344,0.911,0.412,-0.032,2473.58,2.462,1.679,0.112,-0.936,-0.348,0.046,0.521,-0.270,-0.810,2477.84,1.007,0.671,-0.783,-0.629,0.060,0.775,0.473,0.598,-0.647,2443.92,-0.448,-1.007,-0.224,-0.351,-0.117,0.929,0.522,0.829,-0.200,9.852,4.947,0.977,-1.771,0.269,0.728,-0.631,10.476,-7.023,-4.122,-1.176,none
6.987550,0.796,0.598,0.094,2540.87,1.119,-1.119,1.679,-0.882,-0.331,-0.334,0.905,0.424,-0.020,2445.76,3.021,1.231,0.560,-0.948,-0.317,0.030,0.524,-0.269,-0.808,2483.06,0.671,-0.224,-0.895,-0.648,0.088,0.757,0.480,0.601,-0.638,2429.41,-1.231,-0.671,-0.560,-0.362,-0.124,0.924,0.514,0.826,-0.231,9.699,5.359,0.473,-2.015,0.262,0.717,-0.646,10.444,-6.031,-4.565,-1.588,none
7.009378,0.798,0.595,0.099,2523.33,1.007,0.671,0.671,-0.878,-0.294,-0.378,0.908,0.418,-0.024,2459.91,0.671,0.224,-0.224,-0.937,-0.347,0.045,0.525,-0.268,-0.808,2496.39,0.000,-0.448,-0.448,-0.639,0.058,0.767,0.478,0.603,-0.639,2441.17,1.119,0.336,-0.112,-0.355,-0.122,0.927,0.523,0.824,-0.217,9.817,7.328,0.076,-2.229,0.272,0.728,-0.629,10.524,-4.427,-4.519,-1.802,none
7.030649,0.798,0.597,0.082,2546.28,-0.224,1.343,-0.560,-0.875,-0.341,-0.343,0.904,0.426,-0.028,2479.63,-0.336,-0.783,-0.224,-0.938,-0.345,0.031,0.521,-0.264,-0.812,2495.79,-0.448,-1.231,0.783,-0.645,0.072,0.761,0.478,0.594,-0.646,2458.13,0.224,1.231,-0.560,-0.359,-0.126,0.925,0.521,0.827,-0.211,9.896,7.374,0.183,-1.740,0.271,0.729,-0.628,10.588,-4.260,-4.443,-1.328,none
7.051902,0.806,0.588,0.074,2569.26,0.448,1.007,-0.783,-0.886,-0.322,-0.333,0.912,0.410,-0.024,2481.24,-0.671,-1.119,-0.112,-0.934,-0.352,0.061,0.518,-0.267,-0.812,2507.38,-0.783,-1.119,0.783,-0.622,0.071,0.780,0.473,0.596,-0.648,2466.28,-1.007,0.671,-0.671,-0.365,-0.136,0.921,0.518,0.831,-0.202,9.949,7.252,0.046,-1.908,0.268,0.738,-0.619,10.605,-4.611,-4.458,-1.496,none
7.073212,0.812,0.579,0.070,2573.63,0.336,1.231,-0.336,-0.880,-0.318,-0.353,0.910,0.413,-0.028,2486.51,0.000,-0.783,-0.224,-0.942,-0.334,0.035,0.519,-0.275,-0.809,2504.41,-0.448,-1.119,0.112,-0.634,0.108,0.765,0.475,0.598,-0.646,2476.52,-1.007,0.112,-0.448,-0.359,-0.131,0.924,0.523,0.828,-0.200,10.000,6.305,0.061,-1.893,0.274,0.737,-0.618,10.642,-5.450,-4.641,-1.344,none
7.095980,0.810,0.582,0.070,2580.25,-0.336,0.224,0.448,-0.874,-0.344,-0.344,0.907,0.420,-0.028,2493.51,0.671,0.224,0.112,-0.934,-0.353,0.046,0.521,-0.272,-0.809,2493.86,0.112,-0.224,-0.224,-0.636,0.074,0.769,0.470,0.600,-0.647,2484.08,0.224,-0.112,-0.336,-0.366,-0.135,0.921,0.527,0.826,-0.201,9.973,5.557,0.595,-1.725,0.278,0.733,-0.620,10.582,-6.046,-4.198,-1.237,none
