0.002914,BNO0_UnitAccX,BNO0_UnitAccY,BNO0_UnitAccZ,BNO0_RawAccMag,BNO0_GyrX,BNO0_GyrY,BNO0_GyrZ,BNO0_MagX,BNO0_MagY,BNO0_MagZ,BNO1_UnitAccX,BNO1_UnitAccY,BNO1_UnitAccZ,BNO1_RawAccMag,BNO1_GyrX,BNO1_GyrY,BNO1_GyrZ,BNO1_MagX,BNO1_MagY,BNO1_MagZ,BNO2_UnitAccX,BNO2_UnitAccY,BNO2_UnitAccZ,BNO2_RawAccMag,BNO2_GyrX,BNO2_GyrY,BNO2_GyrZ,BNO2_MagX,BNO2_MagY,BNO2_MagZ,BNO3_UnitAccX,BNO3_UnitAccY,BNO3_UnitAccZ,BNO3_RawAccMag,BNO3_GyrX,BNO3_GyrY,BNO3_GyrZ,BNO3_MagX,BNO3_MagY,BNO3_MagZ,MPU0_UnitAccX,MPU0_UnitAccY,MPU0_UnitAccZ,MPU0_RawAccMag,MPU0_GyrX,MPU0_GyrY,MPU0_GyrZ,MPU1_UnitAccX,MPU1_UnitAccY,MPU1_UnitAccZ,MPU1_RawAccMag,MPU1_GyrX,MPU1_GyrY,MPU1_GyrZ,none
0.045542,0.810,0.575,-0.117,2237.36,-12.310,-23.948,-20.814,-0.983,-0.181,0.019,0.843,0.534,-0.061,2089.02,-22.717,-34.131,-19.024,-0.951,-0.219,0.218,0.511,-0.286,-0.810,2023.59,-27.753,-9.960,31.110,-0.253,0.595,0.763,0.073,0.795,-0.602,2289.72,-36.593,-12.533,-1.902,-0.070,-0.072,0.995,0.701,0.546,0.459,10.125,1.817,-29.221,21.771,0.608,0.792,-0.049,9.771,-7.389,-19.237,21.817,none
0.045724,0.816,0.556,-0.159,2259.16,-0.448,-15.891,-7.610,-0.978,-0.194,0.079,0.850,0.504,-0.155,2212.53,-6.379,-13.205,-5.707,-0.944,-0.224,0.243,0.452,-0.319,-0.833,2180.47,-10.183,-4.476,17.457,-0.311,0.592,0.743,0.059,0.799,-0.599,2316.26,-11.302,-6.602,-5.260,-0.077,-0.086,0.993,0.703,0.542,0.461,10.199,3.863,-4.809,10.137,0.601,0.798,-0.038,9.800,-12.840,-1.664,4.397,none
0.056719,0.807,0.564,-0.174,2296.18,12.086,-5.707,6.602,-0.972,-0.214,0.096,0.848,0.509,-0.145,2227.64,2.798,-7.386,3.245,-0.949,-0.214,0.230,0.454,-0.327,-0.829,2215.53,1.343,-6.043,6.938,-0.265,0.562,0.783,0.040,0.772,-0.634,2435.51,7.274,-1.790,-8.617,-0.077,-0.078,0.994,0.628,0.555,0.546,11.313,-1.863,31.267,-8.763,0.550,0.831,0.083,10.614,-26.031,24.962,-17.985,none
0.081180,0.871,0.476,-0.124,2352.71,20.143,7.274,15.443,-0.988,-0.136,0.078,0.941,0.330,-0.069,2277.47,18.576,10.855,14.324,-0.937,-0.239,0.257,0.431,-0.546,-0.718,2172.85,28.424,-6.267,-12.198,-0.285,0.582,0.761,0.030,0.690,-0.723,2637.23,24.731,5.483,-9.624,-0.066,-0.071,0.995,0.562,0.543,0.624,11.555,-13.191,69.710,-28.779,0.460,0.866,0.199,10.998,-40.351,45.130,-36.046,none
0.491615,0.942,0.263,-0.210,2653.29,24.507,22.605,27.641,-0.976,-0.197,0.092,0.973,0.164,-0.161,2677.47,23.612,26.186,27.417,-0.948,-0.216,0.236,0.348,-0.646,-0.680,2612.40,48.567,4.029,-17.457,-0.289,0.615,0.734,0.019,0.574,-0.819,2642.40,46.665,7.162,-8.393,-0.060,-0.065,0.996,0.473,0.545,0.692,11.015,-17.542,68.122,-35.160,0.447,0.861,0.241,10.808,-42.290,31.985,-38.718,none
0.491776,0.946,0.209,-0.248,2869.31,17.569,16.226,33.236,-0.985,-0.153,0.081,0.982,0.102,-0.161,2854.54,22.269,25.067,31.669,-0.950,-0.203,0.236,0.303,-0.702,-0.645,2893.10,50.470,7.833,-21.486,-0.257,0.616,0.745,0.015,0.426,-0.904,2682.49,74.753,-9.064,-2.126,-0.060,-0.069,0.996,0.431,0.551,0.715,10.731,-13.542,37.695,-29.954,0.412,0.876,0.253,10.464,-29.649,7.695,-27.603,none
0.491876,0.957,0.079,-0.279,3114.13,18.688,4.141,30.886,-0.991,-0.123,0.052,0.987,-0.008,-0.163,3059.22,9.624,7.498,21.822,-0.958,-0.187,0.216,0.290,-0.733,-0.616,2997.55,23.948,5.595,-3.581,-0.268,0.653,0.708,0.019,0.366,-0.930,2618.06,60.093,-22.157,2.798,-0.035,-0.048,0.998,0.406,0.567,0.717,10.156,-2.595,-4.061,-19.527,0.399,0.884,0.243,9.835,-10.366,-22.718,-8.763,none
0.491980,0.968,0.192,-0.160,2562.17,-14.100,-13.317,13.317,-0.993,-0.104,0.048,0.993,0.053,-0.104,2545.38,-3.805,-13.541,19.024,-0.970,-0.155,0.187,0.317,-0.728,-0.608,2679.59,2.686,2.350,9.512,-0.284,0.646,0.708,0.032,0.382,-0.924,2403.58,11.750,-18.688,8.617,-0.022,-0.043,0.999,0.449,0.558,0.698,9.974,3.237,-32.366,-10.412,0.423,0.878,0.225,9.485,-0.580,-36.351,2.290,none
0.492084,0.962,0.191,-0.194,2413.33,-22.157,-15.219,0.560,-0.990,-0.124,0.061,0.991,0.131,-0.035,2215.58,-16.003,-22.381,12.645,-0.962,-0.160,0.223,0.372,-0.690,-0.620,2358.31,-10.407,1.455,21.038,-0.320,0.635,0.703,0.013,0.474,-0.880,2288.73,-22.941,-18.353,14.324,-0.011,-0.034,0.999,0.498,0.542,0.677,10.185,4.626,-44.183,-2.855,0.454,0.868,0.201,9.593,5.756,-44.076,4.458,none
0.492187,0.949,0.270,-0.161,2292.39,-28.200,-17.233,-0.560,-0.991,-0.115,0.070,0.979,0.188,-0.079,2220.81,-23.724,-9.512,5.707,-0.958,-0.187,0.216,0.404,-0.622,-0.671,2224.44,-15.219,11.638,15.331,-0.289,0.640,0.711,-0.008,0.546,-0.838,2381.81,-24.284,-14.772,18.464,-0.023,-0.048,0.999,0.537,0.518,0.666,10.849,6.733,-43.160,-10.336,0.516,0.836,0.187,10.562,4.336,-37.053,-7.740,none
0.492290,0.905,0.335,-0.261,2728.16,-25.067,-5.707,-3.917,-0.991,-0.113,0.073,0.928,0.316,-0.196,2752.97,-19.584,0.000,6.602,-0.949,-0.187,0.255,0.412,-0.536,-0.737,2653.48,-6.491,9.848,6.043,-0.295,0.636,0.713,-0.023,0.574,-0.818,2606.56,10.072,-14.660,10.743,-0.021,-0.062,0.998,0.626,0.473,0.620,11.167,-0.244,-23.969,-5.542,0.499,0.847,0.185,10.991,0.183,-33.008,-26.855,none
0.492401,0.906,0.333,-0.262,2802.55,-10.072,-2.350,7.722,-0.990,-0.126,0.061,0.962,0.201,-0.185,2811.88,-0.112,-1.567,3.917,-0.971,-0.141,0.195,0.321,-0.651,-0.688,2922.96,6.714,-3.581,-2.462,-0.284,0.629,0.723,-0.018,0.506,-0.862,2745.75,22.381,-11.079,0.000,-0.014,-0.048,0.999,0.480,0.555,0.680,11.206,8.504,-16.061,-15.084,0.542,0.812,0.216,11.166,-8.107,-6.595,-18.947,none
0.492817,0.937,0.202,-0.284,2822.73,1.790,-7.386,11.638,-0.998,-0.060,0.037,0.984,0.068,-0.167,2708.10,5.931,-5.260,4.812,-0.968,-0.141,0.205,0.322,-0.681,-0.658,2791.94,8.505,-8.729,3.581,-0.311,0.644,0.699,-0.049,0.467,-0.883,2614.68,9.848,-5.371,1.119,-0.013,-0.037,0.999,0.532,0.520,0.668,10.949,10.153,-15.374,-17.221,0.470,0.860,0.198,10.249,-13.328,-33.450,-21.069,none
0.492911,0.946,0.247,-0.210,2465.03,1.567,-14.995,17.122,-0.996,-0.080,0.030,0.980,0.148,-0.134,2418.70,0.448,-6.491,12.757,-0.975,-0.142,0.172,0.364,-0.688,-0.628,2438.83,10.072,-7.386,6.043,-0.311,0.683,0.662,-0.051,0.457,-0.888,2523.03,-5.371,4.812,2.238,-0.005,-0.040,0.999,0.534,0.517,0.669,10.294,13.344,-13.511,-16.794,0.396,0.896,0.200,9.541,-11.130,-8.214,-12.656,none
0.493003,0.940,0.285,-0.190,2210.23,2.462,-5.707,12.310,-0.997,-0.078,0.007,0.988,0.107,-0.108,2169.28,4.812,-0.671,9.512,-0.971,-0.144,0.189,0.341,-0.685,-0.644,2347.72,7.386,-0.448,1.567,-0.299,0.638,0.710,-0.025,0.477,-0.878,2315.53,-8.729,11.974,3.805,-0.018,-0.038,0.999,0.475,0.567,0.673,9.931,15.679,-13.954,-13.603,0.664,0.739,0.111,9.970,-0.550,3.420,-3.985,none
0.493085,0.973,0.121,-0.195,2205.54,7.498,9.288,7.610,-0.992,-0.108,0.059,0.997,0.055,-0.052,2081.93,1.343,5.819,6.826,-0.967,-0.145,0.209,0.335,-0.705,-0.625,2182.44,3.469,3.021,0.671,-0.304,0.680,0.667,0.000,0.481,-0.877,2154.44,2.462,13.541,7.610,-0.022,-0.044,0.999,0.517,0.560,0.648,9.844,12.000,-13.206,-10.046,0.403,0.891,0.206,9.163,0.290,-15.985,-14.489,none
0.493172,0.961,0.208,-0.184,2172.34,-7.945,12.310,5.036,-0.993,-0.099,0.058,0.986,0.151,-0.071,2056.82,-12.310,10.519,3.357,-0.969,-0.129,0.210,0.369,-0.650,-0.664,2112.99,-5.707,13.764,0.224,-0.335,0.670,0.662,-0.009,0.504,-0.864,2230.08,2.238,11.974,15.219,-0.023,-0.033,0.999,0.528,0.565,0.634,10.415,6.977,-11.099,-12.748,0.407,0.892,0.196,9.796,-3.725,-17.924,-19.267,none
0.493254,0.938,0.242,-0.249,2350.73,-18.688,8.841,8.057,-0.998,-0.065,0.016,0.982,0.148,-0.115,2223.46,-20.143,18.576,0.000,-0.974,-0.115,0.196,0.354,-0.644,-0.679,2315.28,-8.729,24.395,-5.595,-0.307,0.669,0.677,0.000,0.565,-0.825,2407.03,-5.036,12.422,21.598,-0.038,-0.032,0.999,0.527,0.572,0.629,11.013,0.779,-12.229,-13.527,0.474,0.864,0.169,10.451,-4.260,-35.038,-31.328,none
0.493336,0.936,0.277,-0.219,2587.60,-23.276,9.512,10.743,-0.998,-0.066,0.025,0.979,0.141,-0.150,2543.60,-20.814,21.038,0.560,-0.983,-0.115,0.141,0.330,-0.656,-0.679,2573.38,-7.945,28.200,-5.931,-0.318,0.672,0.669,0.031,0.573,-0.819,2545.40,-10.855,9.288,25.962,-0.031,-0.026,0.999,0.567,0.555,0.608,11.266,-2.519,-4.092,-21.664,0.473,0.868,0.149,10.858,-8.779,-26.885,-26.061,none
0.493419,0.929,0.271,-0.252,2785.38,-18.464,7.274,12.310,-0.999,-0.030,-0.017,0.969,0.182,-0.169,2731.45,-23.500,15.219,6.155,-0.980,-0.118,0.161,0.354,-0.620,-0.700,2593.50,-0.224,27.753,5.483,-0.414,0.648,0.640,0.042,0.585,-0.810,2574.87,0.783,2.910,25.291,-0.034,-0.034,0.999,0.559,0.562,0.609,11.125,-5.924,1.191,-23.878,0.474,0.869,0.142,10.773,-13.145,-19.466,-21.008,none
0.496784,0.927,0.302,-0.223,2665.14,-20.255,3.133,13.317,-0.998,-0.023,-0.065,0.967,0.192,-0.168,2684.93,-20.479,8.617,11.079,-0.990,-0.100,0.096,0.375,-0.614,-0.694,2602.20,5.483,25.179,9.624,-0.404,0.673,0.620,0.042,0.571,-0.820,2552.23,16.898,-4.700,22.941,-0.038,-0.032,0.999,0.560,0.568,0.603,10.797,-7.160,3.679,-24.611,0.464,0.877,0.128,10.428,-15.160,-17.374,-18.885,none
0.496899,0.930,0.306,-0.206,2603.53,-18.017,3.133,14.100,-0.997,-0.013,-0.080,0.970,0.204,-0.133,2576.69,-17.793,4.252,13.317,-0.993,-0.088,0.076,0.403,-0.607,-0.685,2568.23,6.938,22.381,11.191,-0.401,0.652,0.643,0.068,0.527,-0.847,2470.05,21.934,-6.602,21.038,-0.042,-0.033,0.999,0.543,0.582,0.605,10.643,-8.046,3.359,-20.824,0.441,0.889,0.125,10.217,-15.206,-16.473,-15.389,none
0.496989,0.945,0.277,-0.176,2551.21,-12.981,2.574,13.093,-0.995,0.004,-0.105,0.980,0.185,-0.071,2479.04,-15.779,2.238,11.974,-0.988,-0.128,0.084,0.428,-0.632,-0.646,2510.98,5.148,20.591,9.960,-0.407,0.678,0.612,0.088,0.507,-0.858,2451.05,13.876,-6.491,20.143,-0.043,-0.031,0.999,0.531,0.586,0.613,10.702,-11.710,3.969,-12.031,0.429,0.894,0.134,10.201,-16.870,-13.603,-7.832,none
0.514751,0.947,0.269,-0.173,2587.26,-13.205,-1.679,10.855,-0.995,0.024,-0.096,0.982,0.177,-0.062,2524.04,-17.233,1.679,9.288,-0.992,-0.089,0.086,0.432,-0.633,-0.642,2555.31,2.798,20.255,9.848,-0.418,0.710,0.567,0.112,0.471,-0.875,2449.45,4.924,-8.281,19.024,-0.035,-0.027,0.999,0.527,0.584,0.617,10.616,-17.206,-0.122,4.855,0.431,0.892,0.139,10.248,-18.031,-12.260,8.198,none
0.535428,0.946,0.273,-0.174,2630.39,-12.422,-12.086,0.560,-0.996,0.000,-0.092,0.982,0.166,-0.085,2643.27,-20.367,-5.260,-1.231,-0.992,-0.076,0.100,0.409,-0.646,-0.644,2698.33,-4.588,18.017,10.519,-0.425,0.682,0.596,0.111,0.463,-0.879,2471.09,0.336,-13.093,17.457,-0.035,-0.035,0.999,0.518,0.581,0.628,10.545,-19.802,-9.847,17.588,0.431,0.891,0.144,10.266,-16.565,-16.641,23.252,none
0.561160,0.942,0.274,-0.191,2651.52,-14.324,-20.031,-9.624,-1.000,0.008,-0.027,0.981,0.160,-0.110,2667.04,-23.836,-13.205,-10.183,-0.988,-0.082,0.128,0.392,-0.639,-0.661,2761.92,-22.381,10.407,16.114,-0.401,0.687,0.605,0.082,0.469,-0.880,2502.55,-11.302,-20.814,16.003,-0.029,-0.033,0.999,0.535,0.563,0.630,10.549,-19.359,-24.718,26.183,0.452,0.880,0.145,10.259,-12.672,-24.321,36.504,none
0.583726,0.937,0.283,-0.206,2605.77,-18.688,-26.522,-19.807,-0.999,-0.028,-0.041,0.976,0.179,-0.124,2601.72,-26.074,-20.255,-16.003,-0.995,-0.061,0.073,0.388,-0.631,-0.672,2643.73,-32.453,3.581,20.591,-0.446,0.661,0.603,0.059,0.505,-0.861,2476.80,-27.529,-22.717,14.772,-0.030,-0.035,0.999,0.565,0.539,0.625,10.586,-17.527,-32.840,31.130,0.479,0.867,0.139,10.206,-9.740,-29.389,42.901,none
1.002804,0.931,0.294,-0.217,2567.64,-24.619,-30.326,-28.200,-0.999,-0.039,-0.015,0.969,0.203,-0.137,2497.19,-28.088,-24.955,-20.143,-0.990,-0.106,0.097,0.388,-0.613,-0.688,2541.98,-39.279,-0.112,23.165,-0.429,0.657,0.620,0.044,0.550,-0.834,2474.14,-40.062,-23.276,14.212,-0.034,-0.033,0.999,0.593,0.518,0.617,10.542,-15.588,-36.168,30.824,0.513,0.848,0.134,10.166,-8.504,-31.756,43.969,none
1.003020,0.910,0.338,-0.242,2500.23,-26.074,-28.760,-28.200,-1.000,-0.024,0.006,0.958,0.239,-0.160,2446.54,-27.641,-23.836,-19.472,-0.985,-0.123,0.120,0.382,-0.584,-0.717,2454.11,-39.615,0.671,23.165,-0.399,0.671,0.625,0.016,0.605,-0.796,2457.36,-34.579,-23.500,13.429,-0.034,-0.044,0.998,0.620,0.498,0.606,10.621,-13.313,-33.908,25.374,0.541,0.832,0.126,10.233,-8.977,-30.290,39.084,none
1.003172,0.897,0.360,-0.256,2480.54,-24.284,-24.507,-22.941,-0.998,-0.059,-0.020,0.948,0.265,-0.177,2428.93,-25.291,-20.926,-16.338,-0.982,-0.127,0.138,0.376,-0.546,-0.748,2387.51,-34.691,1.119,21.934,-0.405,0.625,0.667,-0.016,0.635,-0.772,2495.41,-25.962,-21.710,12.310,-0.047,-0.044,0.998,0.641,0.480,0.599,10.673,-10.931,-27.511,16.626,0.562,0.818,0.120,10.276,-10.107,-26.672,29.130,none
1.003315,0.882,0.380,-0.280,2478.65,-18.688,-16.003,-10.519,-0.998,-0.050,-0.036,0.938,0.292,-0.187,2411.28,-19.472,-14.660,-10.295,-0.987,-0.107,0.117,0.375,-0.518,-0.768,2364.98,-26.634,1.790,17.793,-0.410,0.668,0.621,-0.028,0.654,-0.756,2484.41,-19.136,-18.017,11.302,-0.042,-0.048,0.998,0.656,0.463,0.595,10.689,-8.229,-16.229,5.481,0.582,0.805,0.113,10.320,-12.137,-20.153,14.656,none
1.003424,0.873,0.391,-0.292,2513.02,-11.974,-11.526,-3.021,-0.999,-0.046,-0.013,0.938,0.290,-0.190,2423.48,-14.212,-9.848,-6.043,-0.987,-0.107,0.118,0.368,-0.534,-0.761,2387.05,-14.548,2.686,10.072,-0.415,0.635,0.651,-0.024,0.635,-0.772,2482.37,-8.841,-11.079,9.176,-0.057,-0.065,0.996,0.660,0.457,0.596,10.673,-5.481,-6.611,-0.794,0.590,0.799,0.118,10.325,-13.023,-13.740,5.756,none
1.003533,0.878,0.384,-0.285,2532.53,-7.386,-8.505,1.119,-0.998,-0.061,-0.034,0.939,0.287,-0.190,2484.29,-10.631,-7.162,-3.693,-0.987,-0.120,0.111,0.359,-0.547,-0.757,2529.93,-10.631,3.805,5.260,-0.362,0.662,0.656,-0.012,0.623,-0.782,2463.66,-2.574,-8.281,7.386,-0.047,-0.050,0.998,0.657,0.451,0.605,10.655,-5.344,-2.794,1.527,0.592,0.796,0.126,10.335,-13.725,-9.847,7.450,none
1.003636,0.878,0.379,-0.293,2567.26,-0.224,-7.945,2.238,-0.999,-0.015,-0.045,0.943,0.276,-0.187,2513.76,-5.707,-6.602,-5.707,-0.986,-0.112,0.120,0.344,-0.573,-0.743,2548.81,-9.624,1.679,2.574,-0.404,0.636,0.657,-0.008,0.591,-0.807,2450.64,-1.119,-7.274,5.148,-0.042,-0.054,0.998,0.646,0.448,0.618,10.589,-6.672,-1.435,6.076,0.585,0.798,0.144,10.222,-15.328,-6.565,14.656,none
1.003724,0.893,0.341,-0.293,2535.21,0.783,-9.064,-0.112,-1.000,-0.031,0.008,0.955,0.232,-0.186,2473.35,-4.924,-6.714,-5.707,-0.980,-0.150,0.132,0.345,-0.590,-0.730,2460.77,-7.610,-1.343,4.924,-0.424,0.618,0.662,-0.016,0.579,-0.815,2435.36,-4.812,-6.714,3.133,-0.038,-0.044,0.998,0.634,0.448,0.631,10.423,-6.473,-0.992,9.588,0.575,0.804,0.153,10.062,-15.099,-6.763,20.290,none
1.003809,0.895,0.335,-0.294,2495.94,-1.343,-9.624,-3.581,-0.999,-0.038,-0.002,0.954,0.231,-0.189,2444.31,-4.812,-7.498,-7.274,-0.979,-0.130,0.155,0.340,-0.590,-0.732,2493.78,-8.393,-0.671,5.036,-0.394,0.622,0.677,-0.024,0.576,-0.817,2430.81,-8.841,-6.491,2.350,-0.043,-0.070,0.997,0.617,0.454,0.643,10.610,-3.573,-3.221,9.634,0.561,0.811,0.166,10.145,-11.969,-9.328,17.191,none
1.003893,0.903,0.325,-0.280,2506.82,-2.798,-7.945,-5.148,-0.998,-0.049,-0.047,0.956,0.227,-0.188,2450.84,-5.595,-7.274,-8.281,-0.986,-0.114,0.120,0.338,-0.586,-0.736,2508.46,-11.191,-0.671,3.133,-0.350,0.620,0.702,-0.028,0.586,-0.810,2488.12,-8.393,-5.483,2.350,-0.052,-0.057,0.997,0.600,0.463,0.652,10.764,-1.099,-4.244,3.863,0.556,0.813,0.174,10.409,-9.008,-10.702,8.534,none
1.004010,0.909,0.309,-0.280,2543.92,-4.141,-4.700,-3.581,-0.999,-0.031,-0.017,0.961,0.206,-0.184,2507.36,-5.707,-4.588,-5.595,-0.976,-0.175,0.132,0.337,-0.590,-0.733,2491.12,-11.414,-0.560,2.014,-0.388,0.655,0.649,-0.023,0.597,-0.802,2524.10,-8.057,-4.476,3.021,-0.047,-0.062,0.997,0.600,0.463,0.652,10.767,1.725,-2.580,-5.634,0.547,0.818,0.177,10.364,-7.405,-9.740,-1.267,none
1.004125,0.911,0.303,-0.278,2526.81,-4.924,-2.574,-1.790,-0.998,-0.062,-0.010,0.962,0.202,-0.184,2454.53,-4.588,-3.917,-2.238,-0.979,-0.155,0.134,0.352,-0.608,-0.712,2356.60,-4.364,-1.007,4.029,-0.388,0.608,0.693,-0.016,0.601,-0.799,2474.11,-5.707,-3.581,2.686,-0.053,-0.065,0.997,0.597,0.475,0.647,10.461,3.588,0.656,-13.542,0.543,0.823,0.168,10.009,-7.099,-9.053,-8.947,none
1.528560,0.913,0.314,-0.261,2437.34,-6.938,2.798,3.357,-0.999,-0.040,0.023,0.964,0.215,-0.158,2357.42,-3.133,0.560,6.602,-0.984,-0.131,0.122,0.371,-0.595,-0.713,2339.88,3.357,2.574,4.700,-0.397,0.631,0.667,0.000,0.591,-0.806,2414.54,2.798,-2.350,3.357,-0.045,-0.052,0.998,0.611,0.477,0.632,10.410,5.252,-0.275,-15.252,0.556,0.817,0.149,9.979,-6.092,-8.748,-11.710,none
1.528733,0.908,0.333,-0.255,2450.61,-7.050,4.588,2.910,-0.996,-0.084,-0.039,0.958,0.240,-0.155,2393.09,-3.021,2.014,7.050,-0.984,-0.121,0.131,0.381,-0.582,-0.718,2459.14,4.700,5.483,1.790,-0.399,0.626,0.670,0.020,0.572,-0.820,2410.93,12.422,-0.448,4.029,-0.048,-0.065,0.997,0.626,0.476,0.617,10.504,6.779,-2.916,-11.160,0.568,0.813,0.128,10.188,-3.878,-9.099,-9.527,none
1.528826,0.894,0.364,-0.263,2565.66,-4.700,3.357,-0.560,-0.995,-0.103,0.013,0.949,0.265,-0.170,2540.00,-2.126,2.126,2.574,-0.985,-0.108,0.137,0.378,-0.564,-0.734,2608.31,0.000,4.029,-1.343,-0.402,0.608,0.685,0.036,0.563,-0.825,2465.42,4.029,0.560,2.574,-0.050,-0.056,0.997,0.631,0.480,0.610,10.660,6.443,-3.634,-4.931,0.566,0.815,0.125,10.355,-3.069,-8.656,-3.924,none
1.528925,0.897,0.359,-0.259,2601.47,-1.790,0.895,-3.917,-0.999,0.019,-0.027,0.949,0.268,-0.167,2581.40,0.000,-0.671,-2.238,-0.985,-0.108,0.137,0.368,-0.577,-0.729,2652.14,-1.790,1.455,-1.343,-0.388,0.655,0.649,0.039,0.570,-0.821,2491.02,-8.617,0.224,-0.224,-0.053,-0.049,0.997,0.624,0.484,0.613,10.696,6.290,-3.878,-1.420,0.556,0.821,0.129,10.318,-2.901,-7.939,0.031,none
1.529035,0.903,0.344,-0.258,2571.78,-1.455,-1.119,-6.267,-0.999,-0.013,-0.032,0.956,0.245,-0.160,2510.66,0.224,-1.679,-2.798,-0.984,-0.123,0.130,0.376,-0.567,-0.733,2491.18,-3.357,-1.902,3.469,-0.374,0.641,0.670,0.024,0.599,-0.801,2467.71,-11.191,0.000,-0.895,-0.047,-0.062,0.997,0.637,0.481,0.603,10.695,7.450,-6.672,1.053,0.568,0.815,0.114,10.339,-1.618,-8.305,2.046,none
1.529124,0.893,0.370,-0.257,2548.06,-4.141,-1.679,-7.833,-0.999,-0.035,-0.004,0.946,0.275,-0.170,2483.36,-1.007,-1.902,-2.350,-0.984,-0.141,0.107,0.376,-0.551,-0.745,2492.30,-3.917,-1.455,2.350,-0.411,0.631,0.658,0.020,0.619,-0.785,2465.60,-8.169,-0.112,-0.895,-0.047,-0.059,0.997,0.663,0.474,0.579,10.821,10.626,-10.000,3.298,0.591,0.802,0.088,10.541,1.237,-8.779,2.443,none
1.529207,0.876,0.403,-0.266,2606.22,-4.700,-1.679,-8.057,-0.999,-0.040,-0.036,0.935,0.307,-0.181,2547.87,0.448,-1.007,-2.014,-0.980,-0.149,0.133,0.384,-0.512,-0.768,2566.63,-4.141,-1.007,0.336,-0.396,0.642,0.656,0.023,0.638,-0.770,2515.47,-0.336,0.671,-3.245,-0.050,-0.059,0.997,0.667,0.477,0.572,11.084,12.992,-8.550,4.718,0.585,0.806,0.095,10.658,0.504,-6.290,0.702,none
1.529289,0.874,0.408,-0.263,2600.49,2.126,-0.783,-3.693,-0.999,-0.049,-0.014,0.920,0.349,-0.179,2577.28,3.693,-2.798,-3.357,-0.978,-0.149,0.144,0.383,-0.477,-0.791,2653.77,-5.260,-2.686,-1.902,-0.390,0.640,0.663,0.023,0.658,-0.753,2545.71,-4.924,1.902,-5.819,-0.051,-0.058,0.997,0.641,0.481,0.598,10.985,6.122,9.481,0.290,0.570,0.812,0.128,10.573,-10.137,4.947,-3.160,none
1.529370,0.896,0.361,-0.257,2503.13,15.891,2.014,10.967,-0.999,-0.035,0.008,0.948,0.268,-0.173,2439.50,8.505,-0.336,-1.679,-0.976,-0.169,0.139,0.369,-0.569,-0.735,2378.44,5.707,-13.317,-2.238,-0.414,0.600,0.685,0.008,0.627,-0.779,2433.90,-4.252,2.686,-7.722,-0.041,-0.053,0.998,0.603,0.487,0.631,10.110,3.679,21.038,-5.420,0.537,0.832,0.140,9.676,-13.328,10.855,-8.076,none
1.529452,0.921,0.298,-0.251,2372.36,17.457,6.043,16.562,-0.997,-0.049,-0.058,0.972,0.177,-0.152,2257.18,11.079,1.455,5.148,-0.990,-0.107,0.094,0.370,-0.603,-0.706,2293.01,13.205,-5.260,-2.014,-0.400,0.660,0.636,0.004,0.575,-0.818,2296.09,9.624,3.021,-7.050,-0.051,-0.058,0.997,0.584,0.500,0.639,9.952,7.969,9.878,-6.611,0.524,0.840,0.144,9.582,-6.687,2.565,-8.901,none
1.529533,0.917,0.317,-0.243,2447.80,6.602,6.043,9.848,-0.999,-0.048,-0.025,0.966,0.215,-0.143,2403.25,4.029,5.595,4.812,-0.983,-0.132,0.132,0.366,-0.608,-0.704,2482.65,8.505,1.007,-7.498,-0.364,0.635,0.681,0.021,0.542,-0.840,2364.64,21.262,2.126,-3.133,-0.057,-0.057,0.997,0.604,0.494,0.625,10.674,10.550,-0.840,-3.252,0.539,0.830,0.144,10.410,-2.718,-3.099,-5.221,none
1.529621,0.910,0.327,-0.254,2614.31,1.007,2.238,-0.448,-0.999,-0.029,-0.029,0.960,0.226,-0.162,2541.43,1.902,2.014,-0.224,-0.984,-0.129,0.123,0.366,-0.582,-0.726,2693.69,1.231,1.679,-7.498,-0.384,0.623,0.681,0.043,0.549,-0.835,2530.12,0.000,2.126,-2.014,-0.047,-0.051,0.998,0.612,0.494,0.618,11.013,8.321,-3.145,2.748,0.542,0.829,0.141,10.688,-3.282,-3.771,0.611,none
1.529705,0.906,0.337,-0.255,2681.08,1.007,-2.126,-2.462,-0.999,-0.042,-0.015,0.952,0.255,-0.169,2674.32,2.462,-4.588,-4.141,-0.984,-0.136,0.113,0.368,-0.577,-0.729,2734.47,-3.133,-3.469,-4.364,-0.376,0.638,0.672,0.043,0.570,-0.820,2539.97,-16.450,0.671,-4.141,-0.051,-0.050,0.997,0.610,0.493,0.620,10.800,5.603,-1.969,6.595,0.539,0.831,0.141,10.371,-5.053,-3.588,5.557,none
1.529787,0.909,0.333,-0.251,2565.59,2.910,-4.700,-3.581,-0.999,-0.042,-0.015,0.954,0.255,-0.160,2567.13,2.462,-7.162,-8.841,-0.977,-0.162,0.137,0.371,-0.576,-0.728,2603.10,-8.841,-10.743,-0.895,-0.384,0.623,0.681,0.031,0.583,-0.812,2482.54,-14.100,-2.014,-5.148,-0.042,-0.062,0.997,0.606,0.491,0.626,10.579,4.840,-1.053,8.305,0.534,0.832,0.150,10.137,-5.740,-2.641,7.099,none
1.529872,0.913,0.323,-0.251,2492.84,2.574,-4.812,-4.588,-0.998,-0.049,-0.047,0.958,0.234,-0.164,2453.45,2.462,-8.169,-11.302,-0.980,-0.134,0.150,0.374,-0.580,-0.724,2453.36,-10.519,-11.414,-1.455,-0.379,0.597,0.707,0.012,0.583,-0.812,2432.90,-8.952,-2.686,-5.260,-0.059,-0.070,0.996,0.600,0.488,0.635,10.454,5.130,-0.412,7.038,0.536,0.830,0.154,10.015,-6.198,-1.511,6.153,none
1.529956,0.913,0.321,-0.251,2447.70,1.455,-2.910,-5.260,-0.999,-0.035,-0.004,0.959,0.235,-0.155,2400.30,2.462,-7.386,-11.191,-0.972,-0.167,0.164,0.366,-0.579,-0.729,2423.41,-11.079,-9.512,-4.588,-0.352,0.630,0.692,0.008,0.574,-0.819,2402.32,-2.910,-2.574,-4.812,-0.037,-0.048,0.998,0.599,0.485,0.637,10.405,6.427,-2.504,5.542,0.537,0.829,0.157,9.985,-5.573,-2.809,4.504,none
1.530039,0.915,0.309,-0.260,2476.23,-0.560,-2.462,-6.379,-0.999,-0.040,0.010,0.958,0.234,-0.167,2413.75,0.671,-5.819,-13.653,-0.980,-0.136,0.148,0.363,-0.585,-0.726,2448.86,-12.086,-8.281,-6.491,-0.390,0.604,0.696,0.004,0.570,-0.822,2404.49,-13.988,0.224,-2.798,-0.046,-0.067,0.997,0.600,0.485,0.636,10.446,7.557,-7.206,5.450,0.541,0.827,0.155,10.134,-4.031,-5.985,4.305,none
1.530123,0.911,0.325,-0.254,2538.77,-1.007,-3.357,-9.176,-0.999,-0.043,-0.002,0.957,0.232,-0.174,2477.50,-0.112,-6.491,-16.338,-0.970,-0.169,0.172,0.337,-0.603,-0.723,2552.28,-16.562,-7.945,-8.505,-0.366,0.619,0.695,0.012,0.572,-0.820,2430.27,-21.262,0.000,-2.238,-0.048,-0.062,0.997,0.616,0.480,0.625,10.666,8.321,-10.366,7.191,0.546,0.824,0.151,10.279,-2.458,-7.939,6.092,none
1.530205,0.909,0.327,-0.260,2556.26,-3.245,-4.476,-11.974,-0.999,-0.043,-0.002,0.961,0.222,-0.168,2509.05,-1.231,-6.826,-15.555,-0.968,-0.174,0.179,0.362,-0.605,-0.709,2397.32,-23.388,-16.114,-4.364,-0.362,0.613,0.702,0.020,0.585,-0.811,2473.69,-20.143,-1.567,-2.126,-0.044,-0.076,0.996,0.624,0.481,0.616,10.747,8.214,-13.023,9.038,0.551,0.822,0.142,10.361,-1.252,-8.809,8.504,none
1.530286,0.902,0.347,-0.258,2575.23,-6.714,-4.924,-16.226,-0.998,-0.060,-0.012,0.950,0.250,-0.186,2536.12,-1.902,-8.057,-15.219,-0.967,-0.195,0.163,0.362,-0.563,-0.743,2508.53,-17.569,-7.498,-2.126,-0.355,0.600,0.717,0.016,0.618,-0.786,2487.32,-14.548,-2.798,-2.574,-0.046,-0.073,0.996,0.634,0.478,0.609,10.714,8.305,-11.985,9.069,0.559,0.818,0.135,10.345,-1.313,-7.924,8.901,none
1.530383,0.894,0.367,-0.257,2544.37,-6.826,-4.252,-16.674,-0.997,-0.073,0.031,0.939,0.294,-0.177,2493.98,-1.902,-8.393,-14.883,-0.974,-0.159,0.162,0.357,-0.542,-0.761,2515.47,-16.562,-8.505,-2.126,-0.341,0.573,0.745,0.008,0.624,-0.782,2478.40,-14.324,-2.126,-2.798,-0.045,-0.072,0.996,0.639,0.476,0.604,10.656,8.290,-9.771,7.710,0.564,0.815,0.135,10.295,-1.832,-6.305,7.679,none
1.530530,0.897,0.363,-0.253,2514.32,-4.812,-2.126,-15.891,-0.998,-0.058,0.002,0.948,0.260,-0.185,2439.41,0.560,-6.155,-12.310,-0.964,-0.178,0.196,0.349,-0.556,-0.755,2434.33,-14.660,-9.064,-1.343,-0.328,0.596,0.733,0.004,0.643,-0.766,2465.13,-14.995,-1.119,-3.581,-0.040,-0.068,0.997,0.640,0.476,0.603,10.684,8.000,-6.046,5.542,0.561,0.817,0.135,10.230,-2.382,-4.397,5.573,none
1.530688,0.900,0.342,-0.270,2494.72,-1.455,-0.112,-8.617,-0.997,-0.078,0.029,0.949,0.264,-0.174,2364.35,0.224,-3.693,-4.252,-0.974,-0.164,0.155,0.374,-0.512,-0.773,2298.03,-7.498,-6.379,1.902,-0.322,0.549,0.772,0.000,0.651,-0.759,2434.61,-13.317,-0.112,-3.357,-0.043,-0.066,0.997,0.644,0.475,0.600,10.599,7.695,-2.046,2.229,0.565,0.815,0.130,10.146,-3.115,-3.267,1.511,none
1.530836,0.888,0.380,-0.259,2452.15,1.790,1.231,-1.679,-0.998,-0.062,0.014,0.933,0.314,-0.174,2361.76,1.902,0.336,0.448,-0.959,-0.195,0.204,0.368,-0.515,-0.774,2360.45,-0.671,-1.679,-1.455,-0.332,0.571,0.751,0.004,0.660,-0.751,2432.63,1.679,2.462,-2.126,-0.045,-0.072,0.996,0.645,0.478,0.596,10.567,7.695,4.107,-2.168,0.564,0.816,0.127,10.199,-4.931,-0.061,-4.015,none
2.021093,0.892,0.369,-0.261,2504.08,5.036,3.357,3.133,-0.996,-0.090,0.008,0.934,0.306,-0.182,2422.03,4.700,3.805,1.790,-0.967,-0.189,0.171,0.362,-0.523,-0.772,2455.24,4.029,-0.448,-3.357,-0.336,0.589,0.735,0.012,0.645,-0.764,2444.19,6.155,2.910,-2.238,-0.039,-0.073,0.997,0.635,0.483,0.603,10.606,7.145,6.977,-4.000,0.557,0.820,0.133,10.227,-6.321,1.130,-5.847,none
2.021263,0.897,0.362,-0.255,2524.68,5.483,3.357,3.917,-0.995,-0.099,0.023,0.943,0.278,-0.181,2492.16,4.700,3.245,2.910,-0.962,-0.206,0.180,0.358,-0.543,-0.759,2507.87,5.819,0.000,-4.700,-0.314,0.586,0.747,0.020,0.612,-0.791,2462.57,8.281,2.686,-2.350,-0.050,-0.074,0.996,0.626,0.487,0.609,10.582,6.779,6.290,-3.405,0.548,0.825,0.139,10.260,-6.397,0.321,-4.870,none
2.021380,0.904,0.346,-0.252,2557.64,4.476,2.462,2.798,-0.996,-0.085,0.020,0.948,0.264,-0.176,2510.62,4.364,2.350,1.790,-0.970,-0.175,0.166,0.353,-0.562,-0.748,2546.77,4.812,-0.448,-3.581,-0.337,0.563,0.754,0.024,0.597,-0.802,2475.72,2.350,2.238,-2.126,-0.047,-0.069,0.996,0.622,0.488,0.612,10.602,6.351,2.916,-1.527,0.544,0.827,0.142,10.263,-5.450,-1.908,-2.275,none
2.021465,0.907,0.340,-0.250,2572.32,1.567,0.895,0.783,-0.994,-0.112,-0.010,0.953,0.247,-0.178,2530.00,2.014,0.671,1.567,-0.970,-0.162,0.179,0.355,-0.563,-0.746,2526.21,3.469,-1.007,-1.343,-0.299,0.597,0.745,0.024,0.599,-0.801,2467.71,-1.119,0.895,-1.455,-0.036,-0.064,0.997,0.621,0.489,0.612,10.560,6.061,-0.153,-0.092,0.546,0.826,0.139,10.218,-4.947,-4.092,0.015,none
2.021548,0.901,0.353,-0.252,2555.26,-0.112,-0.783,-1.455,-0.993,-0.120,0.017,0.946,0.273,-0.176,2505.57,0.895,-1.790,-0.671,-0.961,-0.192,0.199,0.361,-0.547,-0.756,2546.01,-0.112,-1.119,-0.783,-0.296,0.587,0.754,0.024,0.608,-0.794,2463.82,-1.119,-1.007,-1.119,-0.041,-0.071,0.997,0.624,0.488,0.611,10.584,5.771,-1.725,0.565,0.547,0.825,0.138,10.227,-4.977,-5.008,1.115,none
2.021659,0.902,0.352,-0.250,2540.81,-0.224,-1.343,-2.126,-0.994,-0.104,0.025,0.947,0.271,-0.174,2482.17,0.448,-2.350,-2.350,-0.964,-0.192,0.185,0.362,-0.551,-0.752,2508.06,-2.014,-2.686,-0.112,-0.341,0.573,0.745,0.024,0.609,-0.793,2456.68,-1.455,-1.679,-1.119,-0.046,-0.070,0.996,0.625,0.485,0.612,10.586,5.359,-2.122,1.038,0.547,0.826,0.134,10.193,-5.282,-5.511,1.725,none
2.021755,0.900,0.357,-0.251,2528.69,-0.895,-1.567,-2.910,-0.997,-0.076,0.018,0.946,0.273,-0.175,2466.09,-0.224,-2.686,-2.910,-0.973,-0.172,0.157,0.359,-0.550,-0.754,2498.20,-3.357,-2.238,-0.224,-0.307,0.594,0.743,0.020,0.611,-0.791,2448.55,-3.693,-1.567,-0.783,-0.039,-0.072,0.997,0.628,0.485,0.609,10.559,5.008,-1.725,0.794,0.550,0.824,0.136,10.196,-5.496,-5.588,1.649,none
2.021839,0.900,0.355,-0.252,2516.48,-0.783,-1.343,-3.021,-0.996,-0.075,0.052,0.947,0.269,-0.175,2463.38,-0.336,-2.238,-3.021,-0.967,-0.190,0.168,0.357,-0.547,-0.757,2489.89,-3.581,-2.014,0.336,-0.331,0.564,0.757,0.016,0.616,-0.788,2446.61,-4.700,-1.343,-0.560,-0.044,-0.072,0.996,0.630,0.482,0.609,10.626,5.038,-1.786,0.214,0.551,0.824,0.136,10.222,-5.496,-5.939,1.160,none
2.021923,0.901,0.350,-0.255,2524.25,-1.455,-1.231,-2.798,-0.994,-0.105,0.034,0.944,0.277,-0.179,2469.65,-1.567,-1.679,-2.126,-0.959,-0.201,0.198,0.360,-0.541,-0.760,2465.98,-3.245,-1.119,0.448,-0.343,0.575,0.743,0.012,0.623,-0.782,2463.66,-3.021,-1.007,0.224,-0.045,-0.072,0.996,0.635,0.480,0.606,10.632,5.084,-2.046,-0.321,0.557,0.820,0.135,10.266,-5.450,-6.046,0.611,none
2.022008,0.894,0.367,-0.257,2544.37,-1.343,-1.119,-1.902,-0.992,-0.124,0.004,0.941,0.285,-0.184,2499.33,-1.119,-1.679,-2.126,-0.960,-0.202,0.195,0.353,-0.538,-0.765,2514.15,-3.245,-0.783,-0.224,-0.333,0.559,0.759,0.008,0.621,-0.784,2457.35,-0.671,-1.343,0.112,-0.044,-0.084,0.996,0.636,0.476,0.607,10.596,4.611,-1.573,-0.015,0.560,0.817,0.136,10.238,-5.817,-5.817,1.084,none
2.022090,0.894,0.368,-0.254,2532.87,-2.014,-1.567,-3.245,-0.996,-0.091,-0.004,0.942,0.282,-0.185,2495.84,-1.343,-2.238,-3.133,-0.967,-0.195,0.161,0.349,-0.542,-0.765,2516.03,-3.917,-1.902,0.000,-0.308,0.598,0.740,0.012,0.614,-0.789,2453.57,-2.126,-1.679,0.000,-0.038,-0.078,0.996,0.638,0.477,0.604,10.570,4.626,-1.832,0.550,0.560,0.817,0.138,10.195,-5.802,-6.092,1.832,none
2.022172,0.900,0.351,-0.260,2517.82,-1.679,-1.119,-4.364,-0.993,-0.114,0.040,0.946,0.267,-0.184,2445.63,-1.567,-2.462,-2.462,-0.961,-0.188,0.201,0.351,-0.545,-0.762,2448.06,-3.245,-1.902,1.455,-0.316,0.563,0.764,0.004,0.627,-0.779,2448.68,-4.924,-1.679,0.336,-0.039,-0.069,0.997,0.638,0.473,0.607,10.586,4.687,-2.718,0.687,0.563,0.815,0.134,10.201,-5.298,-6.794,1.740,none
2.022260,0.891,0.372,-0.261,2508.67,-2.350,-1.567,-2.462,-0.993,-0.114,0.014,0.940,0.288,-0.185,2439.44,-2.126,-1.343,-1.790,-0.963,-0.192,0.188,0.356,-0.528,-0.771,2469.11,-3.469,-0.224,0.671,-0.330,0.590,0.737,0.000,0.633,-0.774,2440.99,-3.245,-1.007,0.783,-0.042,-0.074,0.996,0.644,0.471,0.603,10.624,4.840,-1.985,-0.015,0.568,0.812,0.137,10.275,-5.588,-6.061,0.748,none
2.022344,0.887,0.378,-0.265,2542.59,-1.679,-1.119,-1.790,-0.992,-0.122,0.015,0.938,0.294,-0.185,2487.28,-1.119,-1.119,-2.686,-0.965,-0.178,0.193,0.354,-0.528,-0.772,2507.14,-3.245,-0.448,-0.112,-0.329,0.565,0.757,0.008,0.632,-0.775,2461.34,-1.007,-1.007,0.560,-0.042,-0.090,0.995,0.646,0.469,0.603,10.633,4.504,-1.298,0.061,0.567,0.813,0.134,10.300,-6.122,-5.466,0.855,none
2.022448,0.892,0.368,-0.262,2537.14,-0.671,-1.679,-2.238,-0.996,-0.086,0.020,0.941,0.282,-0.185,2489.25,-1.119,-2.014,-2.686,-0.958,-0.219,0.184,0.347,-0.540,-0.767,2507.50,-2.910,-1.119,0.112,-0.322,0.567,0.758,0.004,0.624,-0.782,2463.51,-1.343,-1.679,0.000,-0.047,-0.073,0.996,0.642,0.470,0.606,10.594,4.244,-1.527,0.565,0.568,0.812,0.136,10.224,-6.137,-5.435,1.359,none
2.022609,0.890,0.372,-0.264,2523.59,-1.231,-1.231,-2.574,-0.994,-0.104,-0.026,0.939,0.288,-0.186,2473.01,-0.895,-1.902,-2.238,-0.970,-0.173,0.168,0.356,-0.527,-0.772,2493.37,-3.357,-1.343,0.448,-0.348,0.560,0.752,0.004,0.625,-0.780,2455.70,-4.141,-1.231,0.224,-0.042,-0.074,0.996,0.644,0.469,0.605,10.558,4.458,-1.863,0.702,0.569,0.811,0.135,10.207,-6.015,-5.389,1.389,none
2.022772,0.887,0.375,-0.268,2529.99,-1.455,-1.343,-3.469,-0.995,-0.094,-0.013,0.939,0.288,-0.186,2473.01,-0.448,-2.462,-3.693,-0.950,-0.214,0.226,0.344,-0.537,-0.770,2499.43,-3.805,-1.679,-0.112,-0.333,0.559,0.759,0.000,0.627,-0.779,2448.66,-4.029,-1.455,-0.224,-0.047,-0.078,0.996,0.643,0.469,0.606,10.569,4.901,-2.382,0.916,0.567,0.812,0.138,10.217,-5.664,-5.328,1.740,none
2.022924,0.900,0.346,-0.265,2517.04,-0.671,-0.783,-3.133,-0.989,-0.132,0.065,0.945,0.266,-0.188,2456.94,-0.895,-1.679,-2.014,-0.962,-0.194,0.194,0.343,-0.549,-0.762,2445.83,-3.133,-1.679,0.895,-0.329,0.541,0.774,-0.004,0.634,-0.773,2452.76,-2.798,-1.567,0.000,-0.037,-0.078,0.996,0.644,0.468,0.606,10.623,5.252,-2.794,0.748,0.570,0.811,0.134,10.214,-4.809,-6.168,1.496,none
2.023070,0.891,0.369,-0.265,2518.99,-2.350,-0.671,-1.567,-0.996,-0.094,0.010,0.936,0.299,-0.188,2449.82,-2.126,-0.224,-0.224,-0.962,-0.194,0.194,0.352,-0.517,-0.780,2467.07,-1.902,0.895,1.455,-0.335,0.569,0.751,-0.004,0.641,-0.768,2460.12,-1.343,-0.336,0.783,-0.046,-0.075,0.996,0.650,0.465,0.600,10.612,5.893,-1.191,-1.618,0.574,0.807,0.137,10.292,-4.885,-5.374,-1.237,none
2.023167,0.879,0.387,-0.277,2552.76,-0.783,0.336,-0.224,-0.986,-0.149,0.069,0.930,0.315,-0.190,2477.02,-0.560,0.671,-0.671,-0.963,-0.185,0.197,0.352,-0.518,-0.779,2505.47,-1.343,0.783,-0.560,-0.311,0.570,0.761,-0.004,0.639,-0.769,2465.50,0.112,0.560,0.448,-0.043,-0.089,0.995,0.648,0.467,0.601,10.650,6.122,0.489,-3.298,0.572,0.809,0.138,10.299,-5.511,-4.656,-2.473,none
2.023253,0.886,0.376,-0.272,2555.72,0.000,0.112,0.336,-0.991,-0.125,0.042,0.940,0.286,-0.189,2493.68,0.336,-0.336,-0.448,-0.967,-0.182,0.177,0.351,-0.527,-0.774,2483.89,-0.336,-0.671,-1.007,-0.315,0.545,0.777,0.008,0.630,-0.776,2468.32,1.455,0.224,-0.112,-0.040,-0.084,0.996,0.644,0.470,0.604,10.579,5.969,0.168,-3.008,0.567,0.813,0.135,10.191,-5.466,-4.702,-2.275,none
2.029203,0.890,0.372,-0.264,2523.59,-0.112,-0.112,-0.112,-0.990,-0.129,0.053,0.940,0.289,-0.183,2461.77,0.224,-1.007,-0.560,-0.956,-0.210,0.203,0.354,-0.529,-0.771,2493.47,0.112,-0.448,-0.671,-0.335,0.558,0.759,0.008,0.625,-0.781,2442.48,1.343,0.000,0.000,-0.049,-0.076,0.996,0.645,0.473,0.601,10.556,6.015,-0.763,-2.137,0.566,0.814,0.131,10.198,-5.206,-5.130,-1.527,none
2.029316,0.890,0.371,-0.263,2532.49,-0.224,-0.336,-0.895,-0.993,-0.108,0.038,0.940,0.289,-0.183,2461.77,-0.336,-0.448,-1.790,-0.954,-0.205,0.219,0.358,-0.528,-0.770,2496.26,-1.007,-0.560,-0.783,-0.307,0.578,0.756,0.008,0.623,-0.783,2436.87,-1.119,0.224,-0.224,-0.054,-0.086,0.995,0.645,0.475,0.599,10.609,5.832,-1.099,-1.038,0.565,0.814,0.132,10.233,-5.267,-5.099,-0.458,none
2.029415,0.889,0.373,-0.266,2546.87,0.336,-0.336,-1.231,-0.990,-0.140,0.009,0.938,0.293,-0.185,2496.66,-0.336,-0.895,-2.462,-0.963,-0.198,0.181,0.356,-0.525,-0.773,2511.69,-2.238,-0.671,-0.895,-0.339,0.563,0.754,0.012,0.630,-0.777,2455.12,-3.469,0.000,-0.224,-0.046,-0.078,0.996,0.645,0.474,0.600,10.609,5.450,-1.115,0.137,0.566,0.813,0.134,10.288,-5.664,-4.916,0.427,none
2.029504,0.890,0.377,-0.258,2546.27,-0.224,-1.231,-3.805,-0.993,-0.115,0.026,0.936,0.300,-0.184,2503.53,0.112,-1.790,-3.917,-0.958,-0.214,0.190,0.356,-0.524,-0.774,2535.44,-3.245,-1.455,-1.455,-0.337,0.568,0.751,0.016,0.628,-0.778,2462.25,-3.693,-0.336,-0.671,-0.051,-0.081,0.995,0.643,0.475,0.601,10.638,5.023,-1.145,1.069,0.565,0.815,0.133,10.288,-5.985,-4.672,1.252,none
2.032691,0.890,0.377,-0.258,2546.27,-0.783,-1.455,-4.476,-0.994,-0.111,0.014,0.937,0.297,-0.184,2499.61,-0.448,-2.014,-4.700,-0.965,-0.190,0.179,0.354,-0.524,-0.775,2519.43,-4.364,-1.902,-0.783,-0.314,0.568,0.761,0.012,0.628,-0.778,2462.12,-3.917,-0.895,-0.895,-0.047,-0.089,0.995,0.644,0.472,0.601,10.596,4.656,-1.481,1.786,0.566,0.813,0.137,10.253,-6.168,-4.748,2.046,none
2.032803,0.889,0.373,-0.266,2546.87,-0.895,-1.902,-5.036,-0.995,-0.089,0.045,0.940,0.287,-0.186,2481.47,-0.224,-2.686,-4.924,-0.957,-0.215,0.193,0.349,-0.531,-0.772,2502.44,-5.036,-2.574,-0.895,-0.316,0.596,0.738,0.008,0.632,-0.775,2461.34,-5.483,-1.455,-1.007,-0.047,-0.081,0.996,0.643,0.471,0.604,10.578,4.473,-1.908,1.985,0.568,0.812,0.135,10.215,-6.076,-4.870,2.382,none
2.032895,0.889,0.376,-0.260,2523.82,-1.567,-2.350,-4.812,-0.993,-0.118,0.027,0.938,0.293,-0.187,2466.53,-0.671,-2.686,-4.588,-0.955,-0.222,0.197,0.354,-0.523,-0.775,2465.64,-4.924,-2.462,0.224,-0.319,0.563,0.762,0.004,0.634,-0.773,2452.76,-6.043,-1.455,-0.783,-0.040,-0.080,0.996,0.646,0.470,0.601,10.555,4.733,-1.817,1.557,0.568,0.812,0.134,10.198,-5.802,-5.084,2.000,none
2.032980,0.885,0.382,-0.265,2513.39,-1.231,-1.567,-4.588,-0.993,-0.117,0.027,0.934,0.303,-0.188,2452.82,-0.895,-2.462,-4.252,-0.963,-0.192,0.187,0.352,-0.516,-0.780,2476.78,-4.700,-1.679,-0.560,-0.303,0.555,0.775,0.000,0.643,-0.766,2452.43,-5.036,-0.783,-0.112,-0.044,-0.085,0.995,0.646,0.466,0.604,10.665,5.374,-1.542,1.084,0.568,0.811,0.138,10.232,-5.573,-5.374,1.023,none
2.036507,0.885,0.379,-0.271,2535.30,-0.895,-0.895,-3.805,-0.993,-0.117,0.027,0.936,0.296,-0.191,2471.36,-0.671,-1.567,-3.693,-0.956,-0.211,0.205,0.349,-0.517,-0.781,2473.63,-4.252,-1.455,-0.783,-0.333,0.540,0.773,0.000,0.640,-0.768,2446.02,-3.469,-0.336,0.224,-0.037,-0.078,0.996,0.647,0.465,0.604,10.635,5.344,-1.298,-0.183,0.570,0.810,0.136,10.283,-5.481,-5.191,0.183,none
2.036646,0.887,0.378,-0.266,2542.63,-0.336,-0.224,-2.798,-0.989,-0.142,0.032,0.940,0.282,-0.192,2459.15,-0.560,-0.448,-1.007,-0.951,-0.218,0.220,0.344,-0.534,-0.772,2450.61,-2.126,-1.119,-0.336,-0.298,0.560,0.773,0.000,0.643,-0.766,2465.11,-1.343,-0.783,0.112,-0.051,-0.086,0.995,0.649,0.465,0.601,10.632,5.298,-0.153,-0.809,0.571,0.810,0.137,10.233,-5.374,-5.008,-0.336,none
2.036762,0.883,0.389,-0.265,2519.82,-1.567,0.112,0.560,-0.988,-0.145,0.046,0.936,0.296,-0.189,2438.42,-0.783,0.336,1.902,-0.948,-0.250,0.195,0.355,-0.509,-0.785,2437.18,0.560,0.783,1.455,-0.298,0.566,0.768,-0.004,0.645,-0.764,2457.48,0.224,0.000,0.448,-0.045,-0.079,0.996,0.654,0.463,0.598,10.606,5.252,1.618,-2.290,0.574,0.808,0.129,10.224,-5.740,-4.107,-2.122,none
2.036871,0.881,0.393,-0.265,2517.56,-0.895,0.783,1.455,-0.990,-0.138,0.021,0.929,0.318,-0.188,2455.61,0.336,1.790,2.798,-0.956,-0.210,0.207,0.348,-0.516,-0.783,2480.67,2.574,1.679,0.336,-0.328,0.535,0.779,0.000,0.647,-0.763,2450.59,3.581,0.671,0.448,-0.043,-0.098,0.994,0.652,0.463,0.601,10.606,5.267,3.084,-3.252,0.575,0.807,0.134,10.260,-6.214,-3.206,-3.206,none
2.039629,0.884,0.380,-0.271,2527.33,0.671,1.790,2.910,-0.995,-0.098,0.010,0.938,0.289,-0.191,2465.51,0.560,2.350,3.245,-0.960,-0.213,0.182,0.350,-0.522,-0.778,2470.24,3.805,1.567,0.336,-0.306,0.553,0.775,0.004,0.636,-0.772,2447.36,5.036,0.671,0.336,-0.049,-0.088,0.995,0.649,0.464,0.602,10.559,5.298,2.748,-3.389,0.573,0.808,0.135,10.241,-6.137,-3.481,-3.237,none
2.064369,0.884,0.382,-0.270,2539.10,0.895,1.567,2.574,-0.991,-0.129,0.029,0.936,0.299,-0.186,2481.82,0.448,1.567,2.798,-0.960,-0.195,0.202,0.347,-0.528,-0.775,2517.14,2.910,1.231,-0.224,-0.319,0.550,0.772,0.000,0.628,-0.778,2461.94,4.029,0.448,0.336,-0.036,-0.084,0.996,0.647,0.464,0.604,10.587,5.695,1.145,-2.962,0.570,0.809,0.140,10.266,-5.710,-4.214,-2.427,none
2.085470,0.890,0.369,-0.266,2544.04,0.560,1.119,1.567,-0.991,-0.130,0.017,0.940,0.282,-0.189,2490.18,0.336,0.783,1.567,-0.960,-0.201,0.197,0.347,-0.533,-0.772,2490.82,1.902,0.895,0.000,-0.313,0.557,0.769,0.004,0.632,-0.775,2461.28,0.895,0.336,0.448,-0.040,-0.080,0.996,0.647,0.467,0.602,10.599,5.664,0.122,-2.107,0.569,0.811,0.135,10.250,-5.191,-4.931,-1.344,none
2.106974,0.889,0.375,-0.263,2535.33,-0.671,0.671,0.895,-0.995,-0.099,0.009,0.938,0.293,-0.187,2466.53,-0.336,0.560,2.126,-0.956,-0.221,0.191,0.353,-0.529,-0.772,2476.16,1.679,1.007,0.895,-0.313,0.550,0.774,0.004,0.637,-0.771,2459.12,0.671,0.000,0.224,-0.040,-0.076,0.996,0.648,0.467,0.601,10.616,5.679,0.504,-2.275,0.570,0.811,0.134,10.252,-5.191,-4.687,-1.557,none
2.528981,0.886,0.381,-0.264,2522.24,-0.336,0.895,1.902,-0.987,-0.155,0.036,0.932,0.312,-0.186,2472.00,0.000,1.343,3.245,-0.967,-0.196,0.162,0.360,-0.518,-0.776,2451.57,2.798,2.014,1.119,-0.328,0.561,0.760,0.004,0.640,-0.768,2446.04,2.350,0.336,0.336,-0.042,-0.073,0.996,0.650,0.468,0.599,10.564,5.527,2.107,-3.038,0.573,0.809,0.133,10.257,-5.908,-3.634,-2.901,none
2.531431,0.881,0.390,-0.267,2535.19,0.224,1.119,2.126,-0.992,-0.123,0.004,0.930,0.314,-0.189,2486.32,0.671,1.679,2.014,-0.961,-0.199,0.194,0.357,-0.514,-0.780,2528.94,2.574,1.343,-1.119,-0.318,0.549,0.773,0.008,0.630,-0.777,2455.03,3.805,0.783,0.112,-0.044,-0.076,0.996,0.644,0.470,0.604,10.584,5.344,2.519,-2.885,0.568,0.811,0.138,10.261,-6.565,-3.115,-2.733,none
2.531539,0.891,0.372,-0.261,2554.02,2.238,1.231,1.790,-0.987,-0.159,0.025,0.941,0.280,-0.188,2507.12,1.567,0.895,0.336,-0.958,-0.215,0.190,0.348,-0.540,-0.766,2535.03,0.783,-0.560,-1.119,-0.330,0.572,0.751,0.008,0.621,-0.784,2457.35,2.462,0.336,-0.560,-0.042,-0.081,0.996,0.639,0.472,0.607,10.553,5.359,-0.443,-1.099,0.563,0.815,0.140,10.223,-5.618,-5.099,-0.275,none
2.531642,0.894,0.364,-0.261,2554.69,0.895,-0.448,-0.560,-0.995,-0.093,-0.030,0.943,0.278,-0.185,2493.04,-0.783,-1.679,-1.343,-0.958,-0.208,0.197,0.352,-0.537,-0.766,2508.16,-1.343,-1.007,-0.112,-0.331,0.534,0.778,0.008,0.621,-0.784,2472.18,-3.021,-0.671,0.000,-0.037,-0.082,0.996,0.643,0.472,0.603,10.614,5.710,-2.855,-0.183,0.565,0.814,0.134,10.240,-4.626,-6.427,0.840,none
2.531755,0.889,0.377,-0.262,2548.87,-1.231,-0.783,-2.126,-0.994,-0.087,0.070,0.936,0.298,-0.185,2490.24,-1.343,-1.231,-2.350,-0.958,-0.220,0.183,0.354,-0.519,-0.778,2521.98,-3.133,-0.671,0.560,-0.332,0.571,0.751,0.004,0.637,-0.771,2473.97,-4.252,-0.448,0.224,-0.056,-0.082,0.995,0.647,0.468,0.602,10.652,5.939,-2.626,-0.687,0.570,0.811,0.133,10.284,-4.550,-6.412,0.550,none
2.531848,0.888,0.378,-0.263,2539.10,-1.679,-1.007,-1.790,-0.985,-0.160,0.060,0.939,0.288,-0.190,2473.96,-0.560,-1.343,-0.783,-0.962,-0.200,0.187,0.356,-0.521,-0.776,2453.44,-2.014,-1.119,0.783,-0.329,0.547,0.770,0.004,0.645,-0.764,2457.48,-2.014,-0.895,0.112,-0.041,-0.079,0.996,0.649,0.469,0.599,10.629,5.481,-0.824,-1.374,0.570,0.811,0.135,10.222,-5.237,-5.420,-0.458,none
2.531930,0.884,0.385,-0.265,2517.22,-1.231,-0.671,-0.336,-0.992,-0.124,0.004,0.930,0.317,-0.185,2431.97,-0.336,-1.007,0.224,-0.961,-0.188,0.202,0.359,-0.509,-0.782,2457.67,-0.560,0.000,0.783,-0.329,0.528,0.783,0.004,0.647,-0.763,2437.16,1.343,-0.448,0.000,-0.046,-0.086,0.995,0.647,0.469,0.602,10.577,5.344,1.298,-2.290,0.569,0.812,0.132,10.193,-6.000,-3.954,-1.908,none
2.532010,0.886,0.382,-0.262,2510.75,-0.112,-0.448,0.448,-0.983,-0.173,0.051,0.935,0.303,-0.184,2451.90,0.895,0.448,-0.112,-0.957,-0.209,0.200,0.360,-0.525,-0.771,2453.75,0.783,-0.448,-0.671,-0.342,0.556,0.758,0.004,0.638,-0.770,2439.65,2.686,0.448,-0.336,-0.040,-0.080,0.996,0.644,0.468,0.605,10.583,5.298,1.954,-2.321,0.567,0.813,0.135,10.216,-6.321,-3.481,-2.000,none
2.532095,0.891,0.372,-0.260,2529.88,1.567,0.448,1.007,-0.991,-0.125,0.042,0.942,0.280,-0.186,2477.03,0.448,0.895,0.783,-0.960,-0.207,0.190,0.352,-0.532,-0.771,2481.46,1.231,0.112,-0.783,-0.329,0.547,0.770,0.004,0.623,-0.782,2449.46,1.231,0.448,-0.224,-0.050,-0.083,0.995,0.643,0.468,0.606,10.605,5.191,1.176,-1.450,0.567,0.813,0.137,10.251,-6.000,-4.137,-1.160,none
2.536771,0.889,0.377,-0.262,2548.87,0.895,0.671,0.895,-0.990,-0.135,0.042,0.937,0.293,-0.188,2499.46,0.224,0.224,0.448,-0.969,-0.167,0.184,0.349,-0.530,-0.773,2526.69,0.671,0.560,0.000,-0.327,0.516,0.792,0.008,0.625,-0.780,2455.76,-0.783,0.224,-0.224,-0.049,-0.076,0.996,0.643,0.468,0.606,10.638,5.313,0.427,-1.023,0.567,0.812,0.136,10.284,-5.664,-4.519,-0.504,none
2.536882,0.889,0.375,-0.261,2557.76,0.783,0.336,0.336,-0.992,-0.125,0.018,0.940,0.286,-0.185,2490.87,0.336,-0.112,0.336,-0.961,-0.200,0.190,0.348,-0.529,-0.774,2509.40,0.336,-0.448,0.336,-0.327,0.528,0.784,0.008,0.633,-0.774,2474.63,-0.783,-0.224,-0.112,-0.048,-0.092,0.995,0.647,0.469,0.601,10.611,5.160,0.168,-0.702,0.568,0.812,0.135,10.242,-5.573,-4.763,-0.092,none
2.536973,0.886,0.379,-0.267,2533.76,-0.783,-0.224,-0.336,-0.992,-0.119,0.039,0.935,0.300,-0.187,2471.52,-0.112,-0.560,0.671,-0.954,-0.222,0.203,0.352,-0.516,-0.780,2476.78,0.560,0.000,0.783,-0.308,0.546,0.779,0.004,0.636,-0.772,2447.36,0.224,-0.783,-0.112,-0.050,-0.075,0.996,0.648,0.467,0.602,10.601,5.130,0.702,-1.084,0.570,0.811,0.132,10.200,-5.817,-4.366,-0.626,none
2.537057,0.888,0.378,-0.261,2515.82,-0.224,-0.112,0.000,-0.992,-0.124,0.004,0.939,0.291,-0.185,2442.99,0.895,0.671,1.567,-0.959,-0.189,0.213,0.351,-0.528,-0.773,2459.98,1.343,0.336,0.671,-0.325,0.553,0.767,0.000,0.640,-0.768,2446.02,0.895,-0.224,-0.112,-0.048,-0.089,0.995,0.646,0.467,0.604,10.581,5.344,1.450,-2.107,0.567,0.812,0.136,10.212,-5.573,-4.122,-1.786,none
2.538866,0.893,0.366,-0.264,2492.43,0.336,1.007,1.455,-0.996,-0.084,0.032,0.943,0.274,-0.190,2421.61,0.336,2.462,4.476,-0.962,-0.213,0.173,0.346,-0.534,-0.771,2378.12,3.917,1.455,1.790,-0.322,0.549,0.772,-0.012,0.649,-0.761,2457.24,2.686,-0.112,0.448,-0.035,-0.088,0.995,0.647,0.461,0.608,10.538,6.702,2.137,-5.527,0.573,0.808,0.139,10.133,-4.489,-4.214,-5.603,none
2.538979,0.887,0.369,-0.278,2466.47,-0.224,3.133,4.812,-0.993,-0.117,0.016,0.940,0.278,-0.196,2354.15,0.671,6.155,10.743,-0.958,-0.208,0.197,0.333,-0.531,-0.780,2301.31,9.512,4.588,2.686,-0.323,0.561,0.762,-0.032,0.664,-0.747,2461.29,8.393,2.014,1.790,-0.039,-0.080,0.996,0.650,0.457,0.607,10.548,9.756,3.679,-13.130,0.575,0.806,0.136,10.088,-2.611,-4.168,-13.618,none
2.539070,0.888,0.369,-0.273,2439.79,-0.336,6.155,9.960,-0.995,-0.102,-0.002,0.943,0.268,-0.198,2327.13,2.238,12.086,20.814,-0.953,-0.217,0.209,0.334,-0.528,-0.781,2236.80,19.584,9.400,3.357,-0.330,0.572,0.751,-0.052,0.680,-0.731,2473.41,18.241,5.595,3.357,-0.047,-0.081,0.996,0.657,0.448,0.606,10.501,13.527,8.427,-24.198,0.587,0.798,0.138,10.129,-1.145,-2.931,-26.824,none
2.539156,0.864,0.413,-0.288,2417.06,-0.336,12.422,15.891,-0.991,-0.132,0.019,0.913,0.348,-0.212,2358.41,4.364,19.136,27.529,-0.960,-0.214,0.179,0.361,-0.468,-0.807,2396.22,29.207,15.555,0.112,-0.315,0.588,0.745,-0.052,0.678,-0.733,2468.02,31.334,10.855,3.581,-0.046,-0.078,0.996,0.659,0.443,0.609,10.280,20.855,12.214,-37.939,0.583,0.799,0.147,9.985,3.588,-4.382,-45.221,none
2.541413,0.871,0.380,-0.313,2476.40,4.141,19.136,22.045,-0.995,-0.103,-0.011,0.914,0.333,-0.234,2435.59,9.512,21.038,27.081,-0.969,-0.182,0.167,0.343,-0.524,-0.779,2517.08,33.684,13.764,-11.302,-0.361,0.589,0.723,-0.053,0.600,-0.798,2413.00,40.174,16.562,2.686,-0.039,-0.057,0.998,0.622,0.475,0.623,10.275,29.649,7.756,-44.290,0.535,0.833,0.143,9.852,12.046,-11.221,-55.206,none
2.541529,0.923,0.306,-0.231,2462.39,4.141,23.836,21.262,-0.992,-0.122,-0.030,0.979,0.134,-0.155,2393.83,12.869,24.507,24.172,-0.976,-0.158,0.152,0.308,-0.653,-0.691,2512.76,30.326,12.757,-17.681,-0.397,0.577,0.714,-0.039,0.566,-0.823,2540.46,35.586,18.576,5.371,-0.041,-0.056,0.998,0.622,0.495,0.607,10.647,39.466,-9.008,-42.076,0.522,0.842,0.134,10.103,22.519,-16.305,-56.702,none
2.541645,0.914,0.336,-0.226,2475.96,-11.974,35.474,7.722,-0.994,-0.105,0.000,0.953,0.242,-0.183,2459.08,3.917,31.893,28.424,-0.975,-0.142,0.172,0.360,-0.563,-0.744,2479.80,29.879,20.479,-12.533,-0.369,0.614,0.698,-0.031,0.585,-0.810,2509.63,19.695,25.291,9.960,-0.037,-0.051,0.998,0.710,0.445,0.545,10.377,25.237,-5.588,-21.267,0.558,0.820,0.124,10.234,23.954,-28.260,-66.244,none
2.541745,0.884,0.401,-0.241,2517.61,-16.114,44.427,11.302,-0.996,-0.052,-0.073,0.940,0.290,-0.181,2491.92,12.086,34.915,30.774,-0.985,-0.130,0.111,0.411,-0.546,-0.730,2486.13,35.698,19.360,-20.143,-0.410,0.593,0.693,-0.008,0.618,-0.786,2501.13,14.324,33.124,7.610,-0.045,-0.055,0.997,0.661,0.478,0.579,10.496,29.496,4.382,-28.824,0.488,0.867,0.096,10.107,9.145,-18.809,-50.504,none
2.563615,0.908,0.365,-0.205,2493.13,-4.029,52.708,21.262,-0.996,-0.059,-0.067,0.952,0.267,-0.153,2377.05,24.619,37.041,33.684,-0.989,-0.127,0.069,0.382,-0.559,-0.736,2465.30,40.622,19.024,-29.767,-0.418,0.629,0.655,-0.012,0.600,-0.800,2494.37,32.005,42.077,0.560,-0.044,-0.040,0.998,0.671,0.452,0.587,10.498,49.160,27.466,-27.634,0.470,0.877,0.101,10.122,35.115,-60.137,-122.489,none
2.583626,0.914,0.349,-0.206,2521.82,-1.007,64.793,25.067,-0.988,-0.010,-0.155,0.968,0.201,-0.147,2468.94,31.446,48.008,27.417,-0.995,-0.089,0.035,0.340,-0.588,-0.734,2540.87,39.503,13.653,-37.377,-0.455,0.652,0.607,-0.008,0.567,-0.824,2433.53,47.224,35.250,-9.960,-0.057,-0.045,0.997,0.597,0.508,0.621,9.843,61.985,22.504,-28.794,0.642,0.760,0.100,10.899,45.099,-80.336,-137.710,none
2.607640,0.936,0.283,-0.209,2491.11,1.007,80.236,17.569,-0.987,-0.028,-0.156,0.973,0.084,-0.216,2638.66,28.536,36.705,27.529,-0.991,-0.102,0.091,0.294,-0.682,-0.670,2506.29,48.791,6.379,-24.060,-0.426,0.687,0.588,-0.033,0.460,-0.887,2338.23,44.874,25.962,-11.079,-0.050,-0.024,0.998,0.581,0.536,0.612,9.640,61.221,7.099,-12.290,0.222,0.973,0.063,10.074,72.015,-113.695,-158.015,none
3.039811,0.951,0.289,-0.108,2537.11,8.729,71.620,-10.072,-0.981,-0.020,-0.193,0.991,0.076,-0.114,2156.17,16.338,22.717,17.905,-0.994,-0.081,0.069,0.336,-0.665,-0.667,2279.35,25.962,12.869,-16.562,-0.418,0.665,0.619,-0.016,0.523,-0.852,2489.38,25.515,27.641,-2.014,-0.039,-0.020,0.999,0.587,0.555,0.589,10.450,81.511,-10.718,-20.198,0.300,0.953,-0.036,10.200,117.573,-142.595,-207.221,none
3.039956,0.913,0.400,-0.077,2427.05,-30.215,74.305,-25.179,-0.962,0.015,-0.273,0.980,0.063,-0.187,2568.52,4.141,36.257,22.157,-0.995,-0.082,0.058,0.354,-0.662,-0.660,2495.60,33.684,20.814,-12.533,-0.486,0.661,0.572,0.040,0.521,-0.852,2421.23,21.934,24.843,2.462,-0.068,-0.031,0.997,0.558,0.609,0.563,10.356,80.748,-11.832,-25.542,0.211,0.976,-0.051,10.098,138.641,-143.802,-222.534,none
3.040049,0.896,0.412,-0.166,2833.36,-154.990,44.091,-13.317,-0.960,-0.046,-0.276,0.990,0.115,-0.085,2435.06,7.386,42.636,14.883,-0.997,-0.071,0.013,0.377,-0.650,-0.660,2572.59,37.488,19.919,-3.581,-0.466,0.642,0.608,0.063,0.562,-0.825,2490.13,26.634,22.045,3.021,-0.049,-0.021,0.999,0.562,0.644,0.519,10.739,79.557,0.656,-42.153,0.109,0.979,-0.174,10.402,140.137,-178.641,-234.534,none
3.040135,0.936,0.352,-0.023,2534.51,-77.775,39.727,13.317,-0.938,-0.024,-0.346,0.978,0.192,-0.083,2485.91,1.567,42.524,21.486,-0.999,-0.054,0.000,0.467,-0.569,-0.677,2332.29,40.958,21.710,-0.671,-0.518,0.662,0.542,0.086,0.583,-0.808,2518.51,31.334,23.612,3.805,-0.049,-0.011,0.999,0.480,0.717,0.506,11.170,73.893,7.740,-63.695,0.123,0.964,-0.237,10.120,158.504,-128.763,-257.221,none
3.049329,0.900,0.416,-0.128,2755.59,-94.225,43.419,27.417,-0.930,0.000,-0.369,0.974,0.210,-0.090,2507.15,3.357,45.881,29.543,-0.998,-0.055,-0.008,0.472,-0.585,-0.660,2454.43,49.798,23.053,-5.595,-0.479,0.686,0.548,0.146,0.578,-0.803,2351.98,36.369,25.403,2.126,-0.047,0.008,0.999,0.561,0.679,0.474,10.782,61.420,40.931,-61.603,-0.049,0.951,-0.306,10.076,170.473,-76.107,-260.733,none
3.049451,0.944,0.325,0.057,2409.87,43.531,10.855,53.715,-0.917,0.045,-0.397,0.991,0.132,0.016,2431.46,19.919,30.550,41.853,-0.999,-0.027,-0.031,0.504,-0.581,-0.639,2318.34,51.589,18.688,-3.245,-0.529,0.704,0.474,0.193,0.548,-0.814,2284.26,45.434,29.431,2.686,-0.057,-0.001,0.998,0.534,0.742,0.406,9.391,45.710,48.137,-56.870,-0.294,0.856,-0.426,9.981,116.672,-31.847,-178.702,none
3.049553,0.867,0.484,0.114,2326.52,-12.310,15.667,55.617,-0.914,0.048,-0.403,0.963,0.248,0.102,2318.85,9.848,31.669,47.560,-1.000,0.006,-0.030,0.467,-0.682,-0.564,2438.27,59.758,17.233,0.000,-0.516,0.703,0.488,0.233,0.466,-0.854,2141.40,64.793,17.905,-1.902,-0.052,0.012,0.999,0.478,0.752,0.454,9.961,37.282,33.573,-46.916,0.400,0.863,-0.309,12.050,64.824,47.786,-113.878,none
3.049657,0.954,0.299,0.025,2394.03,89.189,19.248,70.724,-0.917,0.054,-0.395,0.982,0.173,0.077,2304.71,18.576,34.579,39.055,-0.998,0.006,-0.066,0.603,-0.556,-0.572,2246.56,53.939,19.472,10.967,-0.521,0.730,0.443,0.286,0.496,-0.820,2229.81,60.653,19.024,1.007,-0.047,0.018,0.999,0.489,0.773,0.404,9.531,5.649,22.962,-32.443,-0.302,0.900,-0.315,8.895,-15.191,23.389,-11.771,none
3.049743,0.972,0.233,0.022,2227.62,134.063,-6.826,90.420,-0.911,0.095,-0.402,0.874,0.382,0.301,2017.99,6.267,19.919,43.755,-0.997,0.030,-0.072,0.720,-0.474,-0.508,2183.36,51.141,22.493,3.133,-0.525,0.738,0.424,0.265,0.473,-0.840,2255.83,55.617,21.598,3.357,-0.044,0.031,0.999,0.393,0.831,0.394,11.093,0.107,47.786,-26.962,-0.456,0.776,-0.436,11.562,1.008,-8.779,-110.092,none
3.049826,0.895,0.359,0.264,2453.89,31.334,30.662,63.786,-0.900,0.149,-0.410,0.880,0.277,0.385,2292.15,14.548,37.712,39.727,-0.994,0.052,-0.092,0.725,-0.507,-0.466,2273.02,58.862,38.831,-19.360,-0.533,0.751,0.389,0.261,0.547,-0.796,2667.83,44.203,44.874,3.469,-0.037,0.047,0.998,0.436,0.801,0.411,12.183,4.244,36.733,-60.244,-0.288,0.882,-0.374,11.440,-12.763,-12.626,-123.725,none
3.049910,0.978,0.199,0.056,2995.84,66.808,51.253,85.608,-0.883,0.186,-0.431,0.992,0.084,0.095,3012.12,24.619,69.494,54.946,-0.996,0.026,-0.086,0.594,-0.635,-0.493,2724.04,79.565,42.188,-33.460,-0.589,0.736,0.334,0.303,0.494,-0.815,2750.86,62.443,42.077,2.686,-0.047,0.039,0.998,0.415,0.796,0.441,11.241,-8.183,62.046,-56.534,-0.235,0.888,-0.396,11.293,-53.878,-5.405,-80.153,none
3.049992,0.968,0.243,0.068,3020.78,51.700,33.012,86.727,-0.854,0.232,-0.465,0.994,0.104,0.031,3182.67,22.493,51.924,53.267,-0.985,0.103,-0.138,0.468,-0.695,-0.546,3394.47,91.763,40.174,-26.969,-0.619,0.743,0.254,0.299,0.407,-0.863,2788.40,87.510,27.193,-3.357,-0.038,0.047,0.998,0.420,0.773,0.476,11.839,-8.565,65.847,-62.229,-0.288,0.894,-0.343,11.032,-86.977,6.382,-29.466,none
3.050351,0.986,0.157,0.056,2981.85,48.231,27.641,74.529,-0.861,0.239,-0.449,0.995,0.065,0.082,2984.34,21.038,37.041,43.867,-0.984,0.102,-0.147,0.415,-0.757,-0.504,3542.81,99.820,8.952,-0.112,-0.590,0.776,0.223,0.262,0.304,-0.916,2766.56,98.925,14.212,-8.841,-0.029,0.066,0.997,0.396,0.797,0.456,10.466,4.641,52.656,-49.756,-0.357,0.888,-0.291,10.733,-97.725,31.924,12.641,none
3.050464,0.993,0.105,0.056,2972.25,53.267,24.172,61.884,-0.805,0.326,-0.496,0.990,-0.064,0.122,2978.32,15.891,30.326,34.915,-0.970,0.144,-0.197,0.502,-0.785,-0.361,2714.46,94.784,-6.602,26.634,-0.578,0.793,0.193,0.224,0.171,-0.959,2673.31,84.265,1.567,-10.519,-0.017,0.072,0.997,0.307,0.828,0.470,9.222,29.710,46.656,-40.550,-0.398,0.885,-0.242,9.997,-85.328,30.519,35.878,none
3.050556,1.000,0.007,0.011,2676.22,52.372,14.212,46.553,-0.813,0.293,-0.503,0.989,-0.116,0.093,2735.42,8.057,12.533,30.438,-0.968,0.151,-0.202,0.502,-0.796,-0.338,2640.36,64.458,-0.783,22.941,-0.586,0.794,0.164,0.199,0.139,-0.970,2512.26,44.315,-0.336,-7.162,-0.015,0.086,0.996,0.272,0.756,0.596,10.765,23.374,22.733,-22.137,-0.341,0.911,-0.231,9.249,-56.443,17.405,35.740,none
3.050651,0.997,0.012,0.074,2378.76,21.150,-2.014,26.186,-0.818,0.342,-0.461,0.986,-0.096,0.135,2482.21,3.133,7.610,26.074,-0.962,0.169,-0.214,0.456,-0.804,-0.380,2578.60,31.557,2.238,20.814,-0.518,0.842,0.152,0.188,0.129,-0.974,2402.17,12.533,-3.805,-0.224,-0.014,0.080,0.997,0.275,0.776,0.568,9.644,12.870,8.061,-7.176,-0.305,0.925,-0.227,9.007,-25.069,0.427,22.824,none
3.054185,0.999,0.033,0.041,2365.29,0.224,-6.379,6.714,-0.816,0.344,-0.465,0.988,-0.061,0.139,2328.96,-9.736,3.581,3.357,-0.961,0.186,-0.204,0.480,-0.786,-0.390,2413.12,4.029,5.483,16.898,-0.547,0.818,0.177,0.173,0.201,-0.964,2323.21,0.000,-5.371,5.260,-0.004,0.088,0.996,0.333,0.757,0.562,10.261,6.031,-3.893,-0.565,-0.254,0.937,-0.241,9.521,-5.160,-7.328,9.084,none
3.054301,0.995,0.096,0.028,2443.21,-13.317,-6.602,-3.133,-0.833,0.345,-0.432,0.995,-0.014,0.097,2422.75,-10.631,2.126,1.455,-0.961,0.198,-0.192,0.490,-0.770,-0.409,2401.35,-6.491,8.057,12.757,-0.536,0.830,0.152,0.161,0.279,-0.947,2376.83,-4.029,-4.700,6.155,-0.017,0.074,0.997,0.375,0.754,0.539,10.634,3.450,-3.740,-1.756,-0.231,0.939,-0.256,10.017,-2.931,-8.366,0.504,none
3.054393,0.992,0.125,0.016,2510.89,-13.093,-3.021,-3.021,-0.834,0.299,-0.463,0.996,0.030,0.083,2478.71,-6.491,2.798,2.910,-0.965,0.168,-0.203,0.492,-0.765,-0.416,2431.22,-1.231,8.281,8.617,-0.550,0.828,0.110,0.153,0.333,-0.930,2491.58,-4.364,-3.357,3.805,-0.010,0.078,0.997,0.383,0.762,0.522,10.798,3.221,2.107,-7.679,-0.236,0.936,-0.261,10.175,-7.191,-7.679,-5.466,none
3.054477,0.994,0.105,0.023,2524.53,-7.610,2.910,2.910,-0.836,0.314,-0.450,0.995,-0.005,0.104,2462.27,-3.245,5.595,9.288,-0.961,0.185,-0.207,0.493,-0.761,-0.421,2427.01,10.295,8.841,7.722,-0.506,0.854,0.124,0.153,0.357,-0.922,2493.40,2.910,-1.119,2.686,-0.016,0.069,0.997,0.382,0.766,0.518,10.718,1.267,9.298,-14.626,-0.240,0.933,-0.267,10.106,-14.626,-6.336,-8.992,none
3.057211,0.992,0.122,0.044,2480.94,-6.602,6.826,10.519,-0.830,0.325,-0.454,0.993,0.011,0.116,2447.79,-2.910,7.162,13.093,-0.958,0.196,-0.210,0.519,-0.745,-0.418,2440.07,24.395,7.945,8.952,-0.570,0.813,0.122,0.172,0.358,-0.918,2453.11,18.912,1.790,1.455,-0.008,0.082,0.997,0.372,0.774,0.512,10.407,1.496,13.450,-20.885,-0.241,0.934,-0.263,10.021,-24.489,-4.275,-12.992,none
3.067528,0.992,0.118,0.048,2481.19,3.469,12.981,20.143,-0.834,0.307,-0.459,0.991,0.023,0.133,2442.21,4.476,13.317,18.353,-0.956,0.186,-0.226,0.516,-0.761,-0.392,2453.08,37.936,2.238,7.274,-0.549,0.830,0.094,0.184,0.303,-0.935,2450.03,32.900,4.812,-0.895,-0.008,0.076,0.997,0.365,0.777,0.513,10.171,10.458,14.885,-25.359,-0.220,0.945,-0.242,9.965,-38.092,10.321,-8.473,none
3.093694,0.996,0.080,0.046,2549.99,18.912,16.338,27.529,-0.831,0.341,-0.440,0.992,-0.032,0.119,2557.46,7.162,14.212,17.569,-0.953,0.212,-0.217,0.467,-0.810,-0.353,2582.84,43.867,0.560,4.924,-0.544,0.832,0.111,0.198,0.237,-0.951,2469.84,36.481,5.483,-2.350,-0.011,0.089,0.996,0.312,0.792,0.525,9.892,30.122,10.962,-8.672,-0.342,0.907,-0.248,9.727,-54.443,53.282,17.496,none
3.118810,0.998,0.058,0.031,2533.44,17.233,13.317,23.612,-0.784,0.380,-0.491,0.991,-0.062,0.122,2571.27,2.910,7.498,11.638,-0.944,0.220,-0.246,0.463,-0.819,-0.339,2604.22,35.586,0.336,6.602,-0.517,0.856,0.026,0.190,0.216,-0.958,2483.70,20.031,2.462,-2.462,-0.004,0.090,0.996,0.291,0.781,0.552,10.606,9.359,8.290,-8.931,-0.274,0.938,-0.212,9.860,-29.328,12.107,3.954,none
3.549641,0.997,0.049,0.065,2567.54,4.924,4.588,11.750,-0.799,0.374,-0.471,0.985,-0.093,0.145,2567.51,3.581,5.036,7.050,-0.940,0.235,-0.249,0.467,-0.828,-0.310,2563.58,17.457,0.671,5.483,-0.487,0.872,0.041,0.202,0.197,-0.960,2478.32,7.945,1.567,0.224,0.003,0.106,0.994,0.282,0.787,0.549,10.524,4.565,0.855,-4.122,-0.264,0.944,-0.199,9.799,-13.008,-1.954,1.863,none
3.552355,0.997,0.045,0.057,2564.84,0.560,-0.336,3.581,-0.763,0.419,-0.492,0.991,-0.062,0.118,2578.98,-1.119,1.455,2.574,-0.941,0.228,-0.250,0.467,-0.822,-0.327,2583.03,4.252,1.679,2.910,-0.497,0.866,0.057,0.194,0.201,-0.960,2477.31,2.462,-0.336,1.790,-0.005,0.088,0.996,0.299,0.790,0.534,10.401,3.679,-4.855,0.977,-0.253,0.946,-0.202,9.874,-4.733,-5.389,5.160,none
3.552493,0.998,0.042,0.053,2573.88,-4.252,-4.252,-3.469,-0.816,0.331,-0.474,0.989,-0.055,0.134,2556.05,-4.141,-3.469,-2.462,-0.945,0.222,-0.239,0.469,-0.820,-0.327,2551.28,-6.602,0.783,1.790,-0.491,0.870,0.042,0.193,0.208,-0.959,2481.19,-3.693,-4.364,2.798,0.002,0.098,0.995,0.314,0.789,0.528,10.427,3.832,-8.290,4.580,-0.246,0.946,-0.210,9.895,-1.313,-5.939,7.649,none
3.552662,0.997,0.050,0.054,2535.84,-7.162,-7.498,-7.833,-0.797,0.359,-0.486,0.988,-0.049,0.146,2487.60,-5.595,-7.498,-5.371,-0.936,0.242,-0.254,0.476,-0.812,-0.338,2494.38,-12.645,0.112,2.462,-0.482,0.875,0.041,0.192,0.239,-0.952,2447.10,-10.183,-4.476,2.798,-0.003,0.093,0.996,0.331,0.784,0.526,10.478,3.237,-7.511,5.481,-0.233,0.948,-0.219,9.902,-2.351,-5.084,8.382,none
3.552774,0.997,0.062,0.055,2498.64,-6.938,-8.617,-7.722,-0.793,0.366,-0.487,0.990,-0.029,0.135,2471.73,-4.924,-6.714,-4.364,-0.948,0.209,-0.238,0.485,-0.801,-0.350,2466.55,-12.533,-0.783,3.469,-0.503,0.860,0.085,0.185,0.269,-0.945,2431.44,-11.526,-4.141,2.126,0.000,0.089,0.996,0.337,0.782,0.525,10.471,2.580,-4.870,5.069,-0.230,0.948,-0.219,9.899,-4.794,-4.107,7.298,none
3.552872,0.996,0.074,0.047,2509.61,-2.014,-6.826,-4.588,-0.825,0.338,-0.453,0.991,-0.029,0.131,2480.31,-2.798,-6.155,-4.364,-0.953,0.212,-0.217,0.476,-0.806,-0.353,2474.57,-9.400,-2.126,4.029,-0.515,0.857,0.029,0.194,0.262,-0.945,2422.37,-5.707,-4.252,1.343,0.004,0.102,0.995,0.329,0.784,0.526,10.418,1.450,-4.260,5.191,-0.232,0.948,-0.219,9.911,-6.244,-3.756,7.389,none
3.552970,0.997,0.069,0.047,2528.82,0.783,-6.826,-3.245,-0.817,0.355,-0.455,0.991,-0.040,0.126,2499.86,-2.910,-6.602,-4.924,-0.957,0.214,-0.198,0.472,-0.805,-0.359,2514.15,-8.281,-2.798,4.252,-0.508,0.857,0.084,0.184,0.259,-0.948,2445.09,-1.343,-5.260,1.231,-0.002,0.089,0.996,0.329,0.782,0.530,10.425,0.855,-5.008,6.168,-0.229,0.950,-0.213,9.921,-6.519,-3.695,8.321,none
3.553067,0.997,0.065,0.042,2545.65,0.783,-8.169,-3.693,-0.834,0.336,-0.438,0.992,-0.037,0.117,2516.92,-2.910,-8.617,-7.162,-0.955,0.216,-0.205,0.467,-0.809,-0.356,2539.17,-9.848,-3.245,4.141,-0.539,0.841,0.038,0.178,0.244,-0.954,2484.49,-5.148,-6.155,1.119,-0.001,0.083,0.997,0.332,0.779,0.531,10.433,1.160,-6.168,7.450,-0.225,0.951,-0.211,9.918,-5.771,-3.557,9.985,none
3.553162,0.998,0.062,0.035,2535.33,-0.112,-9.288,-5.371,-0.826,0.316,-0.467,0.991,-0.044,0.125,2511.18,-4.700,-9.624,-7.498,-0.944,0.238,-0.227,0.462,-0.808,-0.365,2504.22,-13.205,-3.469,4.364,-0.510,0.858,0.055,0.175,0.237,-0.956,2467.42,-10.631,-5.931,1.231,0.004,0.095,0.995,0.335,0.777,0.533,10.297,1.710,-8.519,9.160,-0.220,0.953,-0.210,9.783,-3.496,-4.122,10.550,none
3.553455,0.997,0.066,0.032,2507.68,-1.119,-10.967,-7.833,-0.799,0.370,-0.473,0.995,-0.033,0.098,2501.38,-5.036,-12.198,-10.295,-0.952,0.217,-0.216,0.460,-0.809,-0.367,2515.59,-16.450,-3.357,3.693,-0.510,0.855,0.095,0.195,0.221,-0.956,2467.53,-11.974,-7.945,0.895,0.012,0.092,0.996,0.337,0.777,0.532,10.169,0.427,-15.084,12.031,-0.211,0.953,-0.216,9.771,0.809,-4.519,11.893,none
3.553550,0.997,0.074,0.020,2497.34,-1.343,-12.310,-11.750,-0.807,0.358,-0.470,0.997,-0.001,0.079,2485.74,-10.295,-15.667,-13.988,-0.967,0.166,-0.194,0.490,-0.771,-0.407,2601.78,-22.605,-1.007,3.469,-0.489,0.863,0.125,0.128,0.247,-0.960,2444.94,-32.341,-8.393,2.126,0.010,0.099,0.995,0.352,0.778,0.520,10.653,0.534,-14.275,12.244,-0.219,0.952,-0.215,10.010,-0.718,-4.626,13.649,none
3.553663,0.999,0.049,0.008,2581.15,-5.707,-13.764,-12.757,-0.829,0.329,-0.452,0.990,-0.072,0.118,2492.95,-6.379,-12.645,-14.212,-0.958,0.203,-0.203,0.487,-0.789,-0.375,2380.19,-21.374,-2.014,0.671,-0.505,0.850,0.151,0.138,0.351,-0.926,2418.88,-21.262,1.231,6.826,-0.005,0.080,0.997,0.384,0.766,0.516,10.830,-2.840,-6.443,6.031,-0.192,0.954,-0.230,10.185,-9.542,-3.038,11.359,none
3.553750,0.992,0.122,0.032,2480.84,-7.610,-10.407,-5.260,-0.834,0.336,-0.438,0.993,0.023,0.115,2397.46,-6.267,-11.414,-5.483,-0.966,0.179,-0.187,0.467,-0.786,-0.405,2398.33,-1.567,-2.798,-1.902,-0.473,0.872,0.124,0.125,0.442,-0.888,2433.57,7.498,25.291,11.862,-0.009,0.071,0.997,0.408,0.768,0.493,11.073,-5.893,3.924,-4.672,-0.186,0.956,-0.228,10.264,-25.145,-0.382,9.771,none
3.553830,0.997,0.071,0.012,2456.41,-0.783,-2.350,6.379,-0.851,0.312,-0.424,0.990,-0.010,0.141,2305.99,-1.119,-1.790,4.588,-0.965,0.189,-0.183,0.446,-0.819,-0.362,2197.91,21.038,2.014,3.245,-0.462,0.873,0.153,0.081,0.489,-0.869,2420.85,47.896,50.470,23.053,-0.027,0.063,0.998,0.458,0.755,0.469,10.159,4.290,14.916,-25.649,-0.145,0.957,-0.249,10.087,-45.817,3.878,8.534,none
3.553924,0.984,0.177,0.004,2369.54,-4.252,3.469,24.060,-0.845,0.318,-0.430,0.986,0.160,0.045,2374.93,-6.267,10.967,20.031,-0.965,0.189,-0.183,0.500,-0.718,-0.484,2451.46,62.667,5.819,1.567,-0.497,0.861,0.113,0.282,0.265,-0.922,2504.16,165.173,43.531,22.157,-0.065,0.070,0.995,0.435,0.735,0.521,9.670,17.634,20.611,-32.595,-0.105,0.964,-0.246,9.662,-70.153,14.107,-21.359,none
3.554008,0.953,0.302,-0.035,2531.64,18.241,17.010,32.005,-0.841,0.314,-0.441,0.995,0.086,0.046,2579.28,21.038,12.310,11.750,-0.971,0.177,-0.162,0.410,-0.849,-0.334,2707.52,78.446,-10.967,-0.224,-0.514,0.855,0.070,0.241,-0.020,-0.970,2642.46,154.654,20.255,2.798,-0.041,0.103,0.994,0.280,0.772,0.571,9.874,24.397,14.214,-15.878,-0.211,0.965,-0.158,9.535,-73.206,50.550,-24.779,none
3.554090,0.994,-0.107,0.018,2672.80,30.550,12.533,-1.790,-0.822,0.334,-0.461,0.992,-0.105,0.063,2637.02,15.107,0.336,-4.812,-0.969,0.165,-0.186,0.438,-0.842,-0.315,2556.48,47.112,-10.072,3.693,-0.538,0.843,0.014,0.224,-0.009,-0.974,2580.89,50.134,15.779,-1.902,-0.046,0.116,0.992,0.370,0.759,0.535,9.915,27.069,4.870,6.870,-0.442,0.894,-0.077,10.602,-71.420,74.137,17.847,none
3.555458,0.999,0.024,0.044,2453.06,0.783,-0.783,-7.386,-0.822,0.346,-0.452,0.986,-0.116,0.119,2474.47,2.014,-2.574,-6.155,-0.965,0.181,-0.188,0.433,-0.848,-0.304,2582.42,35.922,-8.841,-0.224,-0.517,0.856,0.002,0.217,0.054,-0.975,2479.99,-17.681,10.967,-0.336,-0.050,0.116,0.992,0.275,0.757,0.593,11.583,8.931,2.290,-9.023,-0.248,0.963,-0.106,9.864,-24.794,7.237,-12.641,none
3.555560,0.998,-0.064,0.022,2624.05,5.148,3.469,-8.393,-0.857,0.290,-0.425,0.982,-0.078,0.174,2425.56,4.700,-2.350,-4.252,-0.968,0.165,-0.190,0.454,-0.839,-0.298,2633.92,21.710,-6.938,-2.462,-0.515,0.857,0.029,0.238,0.015,-0.971,2429.28,2.686,45.769,3.469,-0.063,0.111,0.992,0.265,0.787,0.557,10.068,9.053,-0.885,2.641,-0.228,0.968,-0.107,9.669,-3.191,3.618,-3.038,none
3.555668,1.000,-0.018,0.018,2716.90,1.007,0.112,-7.722,-0.855,0.268,-0.444,0.984,-0.143,0.106,2697.02,0.671,-0.671,-12.869,-0.969,0.156,-0.189,0.397,-0.881,-0.256,2642.93,-10.967,-9.960,-9.400,-0.524,0.852,-0.015,0.267,0.002,-0.964,2569.28,-5.371,69.717,11.414,-0.082,0.102,0.991,0.299,0.797,0.525,10.469,9.756,-20.366,11.282,-0.221,0.965,-0.138,9.936,15.145,-6.656,8.214,none
3.559754,0.999,0.038,0.027,2550.78,-4.924,-4.812,-20.031,-0.833,0.328,-0.446,0.990,-0.123,0.070,2652.88,-9.624,-9.736,-11.638,-0.975,0.142,-0.173,0.497,-0.790,-0.358,2386.48,-33.572,2.014,-5.483,-0.475,0.880,-0.009,0.329,0.148,-0.933,2561.56,-0.671,56.289,16.674,-0.119,0.091,0.989,0.394,0.770,0.502,11.071,10.779,-13.389,5.511,-0.156,0.972,-0.177,10.336,7.359,-6.290,4.855,none
3.581041,0.985,0.175,0.012,2518.90,-12.198,-3.917,-9.288,-0.889,0.248,-0.384,0.984,0.134,0.119,2389.73,-5.148,-4.364,-1.231,-0.971,0.156,-0.180,0.487,-0.801,-0.349,2417.80,-9.848,-1.343,-5.483,-0.486,0.871,0.072,0.317,0.204,-0.926,2441.26,10.183,27.641,8.505,-0.137,0.087,0.987,0.387,0.777,0.497,10.638,4.183,8.412,-4.336,-0.165,0.970,-0.180,10.013,-13.649,-0.031,-3.328,none
3.604412,0.991,0.134,0.020,2483.78,2.798,1.679,6.379,-0.877,0.258,-0.406,0.995,0.047,0.092,2444.14,6.938,1.790,3.581,-0.970,0.154,-0.188,0.467,-0.804,-0.368,2480.03,10.407,-4.476,-1.007,-0.513,0.858,0.000,0.333,0.137,-0.933,2412.95,13.653,13.653,0.112,-0.143,0.089,0.986,0.333,0.788,0.518,10.170,2.076,10.672,-5.832,-0.195,0.969,-0.150,9.694,-17.847,0.305,-4.443,none
3.625533,0.996,0.092,0.011,2531.01,15.107,3.917,10.183,-0.838,0.310,-0.450,0.995,-0.048,0.093,2542.87,7.386,0.671,-1.007,-0.969,0.166,-0.184,0.454,-0.821,-0.345,2526.99,10.967,-8.281,-1.007,-0.468,0.883,0.045,0.328,0.080,-0.941,2422.94,13.205,14.548,1.231,-0.142,0.093,0.986,0.303,0.789,0.535,10.121,3.557,3.481,-0.962,-0.210,0.968,-0.134,9.654,-10.504,-1.557,-2.718,none
3.648598,0.996,0.078,0.043,2490.00,8.617,-1.790,-3.917,-0.882,0.250,-0.399,0.990,-0.072,0.117,2502.85,2.350,-5.260,-8.393,-0.969,0.149,-0.197,0.452,-0.835,-0.313,2541.07,-6.938,-9.288,-4.812,-0.505,0.863,0.031,0.316,0.054,-0.947,2480.00,11.862,11.638,2.126,-0.152,0.089,0.984,0.319,0.785,0.531,10.390,6.458,-4.901,3.817,-0.191,0.972,-0.140,9.866,-1.344,-1.542,4.656,none
4.059813,0.999,0.042,0.027,2571.15,-0.448,-3.469,-8.281,-0.882,0.238,-0.408,0.993,-0.048,0.108,2536.85,-0.448,-5.148,-9.288,-0.972,0.159,-0.175,0.454,-0.839,-0.300,2484.34,-13.876,-4.364,-5.931,-0.483,0.873,0.059,0.339,0.074,-0.938,2483.62,2.910,14.995,4.141,-0.162,0.085,0.983,0.347,0.779,0.523,10.544,7.023,-7.496,7.664,-0.200,0.969,-0.145,9.985,1.695,1.557,9.099,none
4.059974,0.995,0.093,0.019,2521.36,-7.386,-5.819,-10.519,-0.852,0.294,-0.433,0.997,0.002,0.082,2507.48,-4.476,-5.483,-8.281,-0.975,0.138,-0.175,0.465,-0.815,-0.346,2471.32,-14.548,-0.671,-3.917,-0.503,0.862,0.059,0.346,0.115,-0.931,2438.66,-10.967,-0.895,1.343,-0.162,0.084,0.983,0.356,0.778,0.518,10.442,6.214,-4.565,4.794,-0.180,0.971,-0.157,9.955,-1.527,-1.847,4.198,none
4.060074,0.993,0.117,0.016,2497.55,-4.924,-5.260,-7.833,-0.883,0.247,-0.399,0.994,0.035,0.099,2462.69,-2.574,-6.602,-6.043,-0.982,0.112,-0.153,0.481,-0.801,-0.358,2468.45,-9.624,-1.790,-2.014,-0.479,0.877,0.044,0.378,0.106,-0.920,2383.69,-2.014,-8.952,-1.455,-0.176,0.073,0.982,0.339,0.786,0.517,10.134,4.977,-3.618,7.450,-0.178,0.971,-0.158,9.595,-4.183,0.443,5.160,none
4.060159,0.993,0.103,0.052,2466.45,-3.469,-8.729,-11.191,-0.867,0.278,-0.414,0.995,0.018,0.098,2500.46,0.783,-10.743,-12.645,-0.981,0.140,-0.136,0.471,-0.810,-0.349,2560.42,-13.317,-5.036,-1.231,-0.487,0.866,0.113,0.371,0.048,-0.928,2382.60,18.800,-14.660,-1.455,-0.181,0.060,0.982,0.266,0.806,0.529,9.795,4.519,-4.336,20.061,-0.252,0.957,-0.145,9.824,-6.046,9.053,19.435,none
4.060243,0.997,0.079,0.020,2469.20,-1.007,-9.736,-17.905,-0.882,0.252,-0.398,0.993,-0.040,0.114,2496.38,-3.805,-14.324,-21.486,-0.990,0.089,-0.105,0.459,-0.822,-0.338,2608.63,-24.955,-7.162,-0.336,-0.467,0.879,0.099,0.325,0.014,-0.946,2535.88,20.479,-27.641,-1.679,-0.178,0.063,0.982,0.322,0.789,0.523,10.729,9.588,-17.786,18.000,-0.214,0.967,-0.140,10.091,8.641,-4.702,11.359,none
4.060333,0.998,-0.054,0.011,2720.18,-10.855,-12.533,-19.695,-0.912,0.233,-0.339,0.979,-0.152,0.135,2611.45,-3.133,-9.512,-17.122,-0.991,0.090,-0.098,0.457,-0.844,-0.282,2470.91,-38.496,-3.133,1.343,-0.480,0.864,0.152,0.305,0.073,-0.949,2505.66,-15.107,-20.143,-2.574,-0.170,0.070,0.983,0.356,0.779,0.516,10.632,10.641,-19.176,20.672,-0.185,0.970,-0.158,10.041,12.183,-4.840,14.351,none
4.060418,0.995,0.097,0.019,2522.31,-15.107,-12.981,-20.479,-0.923,0.197,-0.330,0.995,0.073,0.067,2490.35,-11.638,-10.407,-9.848,-0.987,0.075,-0.143,0.484,-0.789,-0.380,2454.73,-39.055,2.798,0.671,-0.451,0.874,0.180,0.307,0.134,-0.942,2460.09,-46.105,-17.793,-3.133,-0.173,0.066,0.983,0.383,0.776,0.501,10.556,10.366,-15.863,13.649,-0.169,0.969,-0.180,10.028,8.809,-5.649,9.328,none
4.060500,0.989,0.150,0.020,2478.42,-13.429,-9.288,-13.653,-0.922,0.181,-0.342,0.994,0.052,0.099,2394.88,-3.805,-8.617,-7.498,-0.989,0.088,-0.122,0.491,-0.769,-0.410,2418.04,-24.507,0.560,-0.336,-0.481,0.853,0.203,0.303,0.190,-0.934,2461.41,-45.658,-14.324,-4.588,-0.169,0.052,0.984,0.394,0.775,0.494,10.512,9.420,-7.481,4.809,-0.163,0.969,-0.184,9.955,1.557,-5.237,2.443,none
4.060604,0.989,0.150,0.012,2479.09,-6.379,-3.021,-5.595,-0.909,0.205,-0.363,0.995,0.056,0.086,2403.60,-0.671,-2.462,-1.790,-0.984,0.102,-0.143,0.481,-0.783,-0.395,2386.36,-8.617,0.000,-2.910,-0.446,0.874,0.194,0.299,0.183,-0.936,2393.03,-31.222,-12.086,-5.819,-0.164,0.062,0.984,0.384,0.776,0.501,10.392,8.611,-0.947,-1.450,-0.168,0.969,-0.181,9.830,-3.282,-5.267,-2.626,none
4.060692,0.992,0.123,0.016,2460.04,-1.790,1.119,0.000,-0.904,0.243,-0.351,0.995,0.023,0.094,2402.29,2.574,0.783,2.126,-0.983,0.102,-0.150,0.474,-0.788,-0.393,2445.35,0.671,0.112,-2.126,-0.517,0.837,0.178,0.292,0.147,-0.945,2381.05,-15.667,-12.198,-6.155,-0.154,0.059,0.986,0.369,0.778,0.509,10.204,9.084,0.641,-3.023,-0.176,0.969,-0.173,9.690,-2.748,-5.740,-5.817,none
4.060774,0.994,0.111,0.012,2466.33,0.112,3.357,1.231,-0.905,0.239,-0.352,0.995,-0.001,0.097,2432.48,3.357,2.462,2.238,-0.984,0.087,-0.155,0.463,-0.794,-0.393,2498.71,-0.560,-1.007,-2.798,-0.517,0.837,0.178,0.292,0.096,-0.952,2520.71,-9.400,-8.841,-6.155,-0.133,0.073,0.988,0.361,0.781,0.509,10.334,11.344,-1.817,-2.076,-0.182,0.968,-0.170,9.875,0.870,-6.733,-6.443,none
4.060864,0.995,0.103,0.011,2572.75,0.448,3.805,-0.448,-0.891,0.235,-0.388,0.995,-0.028,0.092,2557.93,2.798,3.133,1.119,-0.985,0.078,-0.154,0.438,-0.826,-0.356,2534.12,-5.483,0.224,-3.245,-0.469,0.870,0.152,0.298,0.112,-0.948,2499.23,-38.048,-18.576,-9.624,-0.119,0.089,0.989,0.371,0.782,0.502,10.416,11.099,-7.542,1.267,-0.173,0.969,-0.178,9.948,5.481,-8.107,-1.603,none
4.060950,0.997,0.082,-0.008,2597.91,-9.288,-2.238,-5.036,-0.914,0.201,-0.352,0.999,-0.005,0.050,2569.22,-3.357,0.112,-0.336,-0.982,0.119,-0.148,0.488,-0.765,-0.421,2494.04,-11.862,4.252,1.119,-0.517,0.840,0.166,0.300,0.187,-0.935,2449.22,-36.481,-25.067,-6.491,-0.122,0.079,0.989,0.399,0.774,0.491,10.548,9.725,-7.542,2.061,-0.158,0.969,-0.191,9.994,3.817,-7.344,-0.214,none
4.061033,0.983,0.185,0.011,2533.95,-10.072,-3.469,-4.364,-0.904,0.200,-0.379,0.993,0.066,0.100,2458.67,-2.462,-3.357,-1.343,-0.977,0.117,-0.180,0.463,-0.788,-0.405,2542.88,-9.624,1.567,-0.224,-0.489,0.863,0.125,0.248,0.211,-0.946,2494.69,-20.814,-28.312,-6.043,-0.111,0.070,0.991,0.396,0.779,0.487,10.630,8.137,-3.710,0.214,-0.164,0.968,-0.188,10.066,-2.275,-6.046,0.198,none
4.061114,0.993,0.115,0.000,2555.85,-2.462,-0.895,-1.343,-0.903,0.193,-0.385,0.998,-0.013,0.063,2503.15,0.224,1.343,0.224,-0.982,0.098,-0.159,0.479,-0.779,-0.405,2374.72,-3.133,3.021,2.686,-0.510,0.841,0.178,0.234,0.274,-0.933,2391.14,-10.072,-19.919,-4.364,-0.117,0.066,0.991,0.412,0.769,0.489,10.536,4.855,3.374,-4.275,-0.151,0.969,-0.196,9.951,-7.649,-4.244,-3.389,none
4.061199,0.986,0.168,0.008,2446.85,-3.021,1.567,4.476,-0.912,0.184,-0.367,0.990,0.106,0.095,2375.24,-1.007,1.455,7.162,-0.984,0.108,-0.138,0.470,-0.776,-0.421,2444.10,8.169,1.343,0.336,-0.497,0.857,0.140,0.243,0.221,-0.945,2424.28,8.169,-3.693,-0.783,-0.112,0.069,0.991,0.392,0.776,0.495,10.316,4.458,7.679,-7.115,-0.162,0.969,-0.187,9.829,-10.794,-3.618,-6.962,none
4.061279,0.993,0.116,-0.004,2528.06,8.281,7.050,8.393,-0.908,0.200,-0.368,0.998,-0.017,0.058,2533.63,4.252,6.938,3.917,-0.984,0.105,-0.144,0.457,-0.790,-0.410,2512.98,10.967,0.895,1.231,-0.530,0.837,0.139,0.248,0.173,-0.953,2411.04,19.248,-1.231,-0.224,-0.099,0.084,0.992,0.382,0.776,0.502,10.334,4.687,4.565,-5.725,-0.165,0.971,-0.175,9.882,-8.427,-4.748,-4.687,none
4.061923,0.991,0.131,0.000,2542.77,2.014,4.029,5.148,-0.892,0.209,-0.401,0.997,0.010,0.078,2505.81,0.895,3.693,4.252,-0.979,0.110,-0.171,0.450,-0.800,-0.396,2528.56,6.379,0.783,0.000,-0.534,0.834,0.138,0.257,0.157,-0.954,2482.84,3.917,6.602,1.455,-0.108,0.079,0.991,0.385,0.775,0.500,10.455,5.252,2.611,-4.427,-0.168,0.969,-0.180,9.952,-6.809,-5.267,-3.237,none
4.062045,0.992,0.123,0.008,2540.44,0.224,2.238,2.350,-0.882,0.252,-0.398,0.996,-0.009,0.091,2479.43,-0.112,2.686,5.036,-0.985,0.100,-0.142,0.471,-0.787,-0.399,2459.96,3.917,1.455,0.560,-0.515,0.844,0.151,0.257,0.180,-0.950,2483.27,0.000,2.126,0.560,-0.106,0.079,0.991,0.391,0.776,0.495,10.496,5.023,3.740,-5.115,-0.163,0.969,-0.185,9.994,-7.679,-4.626,-3.603,none
4.065622,0.992,0.127,0.000,2531.56,-1.455,3.021,3.357,-0.876,0.285,-0.388,0.996,0.030,0.083,2488.67,1.007,5.036,6.043,-0.982,0.119,-0.148,0.466,-0.785,-0.408,2504.36,5.707,2.798,0.000,-0.486,0.865,0.124,0.265,0.204,-0.942,2439.47,2.014,1.790,0.336,-0.104,0.078,0.992,0.397,0.771,0.497,10.527,4.931,7.618,-6.687,-0.157,0.971,-0.183,10.012,-10.321,-3.069,-5.679,none
4.087927,0.989,0.147,0.000,2527.38,4.588,4.588,7.722,-0.894,0.247,-0.375,0.996,0.030,0.078,2506.80,4.812,5.931,8.617,-0.978,0.139,-0.158,0.478,-0.780,-0.403,2506.17,11.079,0.448,1.231,-0.505,0.845,0.179,0.280,0.165,-0.946,2422.03,13.093,2.686,-2.014,-0.101,0.080,0.992,0.361,0.779,0.514,10.237,8.153,6.626,-5.374,-0.176,0.969,-0.171,9.938,-8.244,-3.954,-4.076,none
4.108838,0.994,0.107,0.000,2652.14,6.714,4.812,5.595,-0.894,0.247,-0.375,0.995,-0.023,0.096,2649.03,7.498,6.267,8.393,-0.978,0.144,-0.154,0.456,-0.809,-0.371,2563.59,4.700,-1.007,0.112,-0.488,0.857,0.167,0.262,0.124,-0.957,2587.71,19.360,-2.238,-3.581,-0.107,0.086,0.991,0.379,0.764,0.522,10.578,15.527,2.992,-5.695,-0.153,0.975,-0.159,10.352,-5.939,-3.802,0.931,none
4.132355,0.992,0.124,-0.010,2766.38,14.212,5.483,2.126,-0.892,0.209,-0.401,0.999,0.041,0.021,2795.95,5.483,6.267,7.722,-0.981,0.099,-0.167,0.449,-0.804,-0.390,2665.07,-3.021,-4.029,-0.560,-0.515,0.848,0.124,0.247,0.098,-0.964,2659.67,4.700,-14.772,-14.995,-0.102,0.085,0.991,0.370,0.778,0.507,10.800,21.145,2.092,-3.008,-0.172,0.970,-0.172,10.310,-6.275,-1.847,8.763,none
4.155348,0.997,0.063,0.049,2772.92,15.891,5.819,-2.126,-0.873,0.221,-0.434,0.995,-0.067,0.069,2836.17,14.548,-8.281,9.848,-0.985,0.115,-0.132,0.450,-0.820,-0.354,2661.89,-11.862,-7.722,-0.224,-0.513,0.847,0.139,0.259,0.141,-0.955,2683.68,-6.155,-15.891,-19.248,-0.111,0.083,0.990,0.362,0.802,0.474,11.277,21.008,1.282,2.611,-0.210,0.963,-0.169,10.503,-13.588,19.282,32.916,none
4.568109,0.998,0.064,0.014,2750.85,4.700,9.176,-4.924,-0.870,0.242,-0.429,0.990,-0.104,0.099,2674.72,5.931,-10.855,9.176,-0.980,0.139,-0.145,0.460,-0.785,-0.415,2815.20,-8.617,1.679,15.219,-0.535,0.829,0.164,0.248,0.250,-0.936,2456.03,-10.855,-7.833,-14.100,-0.109,0.095,0.990,0.334,0.810,0.482,10.952,11.603,2.870,-4.366,-0.001,0.976,-0.219,9.697,-34.275,13.466,60.443,none
4.569510,0.982,0.189,0.008,2535.73,-18.800,-6.938,2.798,-0.907,0.198,-0.373,0.981,0.098,0.165,2377.05,0.560,-14.548,16.898,-0.973,0.152,-0.173,0.481,-0.772,-0.416,2547.91,-5.371,-13.317,16.114,-0.516,0.841,0.164,0.264,0.239,-0.935,2451.43,-12.645,17.345,-9.176,-0.118,0.091,0.989,0.397,0.783,0.478,10.202,4.214,4.351,-14.244,-0.263,0.947,-0.182,10.381,-57.878,91.725,93.908,none
4.569638,0.948,0.317,0.034,2347.42,-18.912,-11.862,-10.072,-0.892,0.208,-0.402,0.990,0.141,0.029,2415.05,4.364,-5.931,3.021,-0.976,0.151,-0.155,0.474,-0.774,-0.420,2526.33,-3.805,-12.981,14.436,-0.491,0.856,0.165,0.282,0.227,-0.932,2361.48,-1.790,21.598,-5.260,-0.131,0.087,0.987,0.431,0.772,0.466,10.077,9.954,5.847,4.687,0.028,0.987,-0.159,9.518,-66.947,106.580,105.145,none
4.569732,0.991,0.130,-0.016,2482.28,3.469,-8.617,-16.562,-0.889,0.237,-0.392,0.998,-0.033,0.052,2483.66,14.660,-6.491,-9.736,-0.978,0.142,-0.150,0.412,-0.822,-0.393,2571.09,-9.176,-17.569,10.855,-0.482,0.863,0.152,0.248,0.139,-0.959,2368.98,15.219,32.565,-1.567,-0.143,0.089,0.986,0.342,0.812,0.473,9.192,11.450,-2.244,17.878,-0.127,0.986,-0.111,9.589,-53.328,71.359,112.137,none
4.569824,0.998,0.046,0.050,2337.43,11.862,-22.157,-20.591,-0.878,0.234,-0.418,0.991,-0.086,0.098,2312.77,9.288,-17.010,-17.122,-0.982,0.134,-0.133,0.421,-0.799,-0.429,2424.05,-15.667,-16.786,18.241,-0.415,0.903,0.114,0.357,0.145,-0.923,2141.47,29.767,8.952,1.343,-0.171,0.087,0.981,0.281,0.809,0.517,9.614,17.008,-12.565,20.122,-0.097,0.994,-0.060,9.466,-37.389,43.634,109.527,none
4.569915,0.999,0.026,0.035,2267.12,4.476,-17.793,-22.493,-0.886,0.251,-0.389,0.983,-0.138,0.119,2221.34,0.895,-17.233,-19.248,-0.994,0.063,-0.092,0.443,-0.834,-0.329,2239.02,-29.767,-17.569,18.129,-0.452,0.874,0.180,0.277,0.075,-0.958,2296.89,11.079,-0.112,2.126,-0.181,0.089,0.980,0.311,0.798,0.516,10.407,8.443,-20.198,14.870,-0.070,0.994,-0.081,9.574,-1.435,-12.397,39.863,none
4.570002,0.997,-0.017,0.076,2340.05,-0.783,-14.212,-16.338,-0.919,0.179,-0.350,0.970,-0.153,0.187,2201.32,-7.833,-10.855,-12.645,-0.987,0.117,-0.114,0.460,-0.827,-0.323,2092.88,-29.879,-4.812,12.757,-0.441,0.889,0.126,0.274,0.134,-0.952,2320.77,-25.179,-10.295,3.917,-0.181,0.086,0.980,0.379,0.792,0.479,10.046,2.214,-19.969,10.885,0.048,0.994,-0.100,9.610,2.992,-21.802,31.924,none
4.570087,0.983,0.182,-0.004,2362.48,-14.436,-8.281,-7.833,-0.909,0.207,-0.362,0.997,0.046,0.064,2280.12,-12.981,-7.162,-5.483,-0.987,0.106,-0.118,0.463,-0.791,-0.401,2226.20,-23.836,9.736,5.260,-0.433,0.864,0.257,0.247,0.217,-0.944,2340.17,-38.608,-8.057,5.707,-0.186,0.076,0.979,0.435,0.774,0.460,10.031,5.588,-16.916,6.015,0.099,0.983,-0.157,9.749,1.206,-14.718,19.160,none
4.570392,0.971,0.240,0.000,2403.29,-11.414,-5.819,-5.819,-0.919,0.191,-0.344,0.992,0.103,0.067,2350.77,-7.386,-2.350,-6.826,-0.994,0.065,-0.092,0.434,-0.740,-0.513,2483.57,-20.255,12.645,-1.343,-0.411,0.868,0.277,0.270,0.203,-0.941,2400.70,-26.522,-2.910,3.021,-0.182,0.072,0.981,0.428,0.765,0.481,10.776,4.947,-11.252,2.580,0.086,0.989,-0.116,10.233,1.420,-20.000,5.618,none
4.570484,0.992,0.119,-0.048,2619.87,3.133,2.238,-4.476,-0.897,0.251,-0.364,1.000,-0.009,0.028,2489.06,-2.798,2.462,-5.148,-0.990,0.098,-0.101,0.412,-0.793,-0.448,2428.46,-12.533,5.371,-0.783,-0.444,0.868,0.222,0.268,0.250,-0.930,2418.08,-10.407,-1.343,1.567,-0.184,0.077,0.980,0.427,0.765,0.482,10.766,1.053,-7.221,1.496,0.096,0.988,-0.120,10.225,5.542,-37.908,0.458,none
4.570573,0.992,0.125,-0.030,2579.37,-4.476,-4.029,5.707,-0.932,0.151,-0.329,1.000,0.014,0.028,2489.22,-3.133,-1.902,5.595,-0.992,0.071,-0.100,0.431,-0.788,-0.439,2345.60,-2.910,10.631,2.238,-0.419,0.873,0.249,0.236,0.202,-0.950,2409.36,2.574,-3.469,1.567,-0.186,0.077,0.980,0.409,0.781,0.472,10.063,-2.305,-2.031,-1.511,0.221,0.972,-0.082,10.113,-14.626,2.061,5.679,none
4.570670,0.984,0.179,0.009,2302.07,-2.014,-1.679,5.707,-0.927,0.165,-0.337,0.996,0.042,0.074,2271.14,-3.469,0.000,5.148,-0.984,0.136,-0.117,0.434,-0.763,-0.478,2420.45,1.231,12.757,0.671,-0.475,0.851,0.223,0.233,0.232,-0.944,2352.10,-5.931,0.448,2.014,-0.187,0.081,0.979,0.449,0.755,0.478,10.502,-3.740,3.618,-6.733,0.049,0.984,-0.171,9.702,-10.137,-18.244,-6.656,none
4.571081,0.986,0.168,0.008,2387.01,10.743,7.274,15.219,-0.910,0.197,-0.364,0.996,0.028,0.080,2350.35,-1.455,8.841,8.393,-0.986,0.114,-0.120,0.476,-0.751,-0.458,2227.47,4.029,10.519,-4.700,-0.463,0.850,0.251,0.240,0.219,-0.946,2450.75,-1.679,2.014,1.119,-0.179,0.087,0.980,0.425,0.789,0.443,10.136,-5.069,12.656,-10.412,0.109,0.981,-0.157,9.975,-4.443,-36.718,-23.008,none
4.571184,0.984,0.176,0.004,2450.05,14.212,15.667,18.800,-0.912,0.197,-0.359,0.997,0.060,0.054,2387.79,-0.671,15.667,10.855,-0.984,0.105,-0.143,0.450,-0.769,-0.454,2377.89,11.191,17.569,-12.086,-0.460,0.863,0.206,0.268,0.238,-0.933,2453.16,-8.617,7.274,-0.448,-0.170,0.087,0.982,0.432,0.781,0.451,10.540,-2.382,17.374,-15.878,0.458,0.884,-0.090,11.290,-34.626,55.359,-3.771,none
4.571276,0.986,0.165,-0.004,2494.12,11.750,17.569,19.919,-0.908,0.205,-0.366,0.997,0.039,0.064,2447.89,0.895,19.248,11.302,-0.983,0.119,-0.139,0.445,-0.758,-0.476,2555.02,15.555,12.310,-13.093,-0.462,0.856,0.231,0.259,0.249,-0.933,2463.36,-7.274,1.567,-0.224,-0.163,0.092,0.982,0.432,0.784,0.446,10.673,-0.992,22.992,-18.107,0.021,0.988,-0.153,10.195,-15.466,-8.718,-23.740,none
4.571370,0.994,0.095,0.050,2573.79,7.610,19.360,22.829,-0.894,0.221,-0.391,0.993,0.045,0.113,2517.78,0.895,21.150,13.093,-0.981,0.138,-0.134,0.458,-0.768,-0.447,2482.25,21.038,9.736,-10.183,-0.486,0.849,0.206,0.252,0.282,-0.926,2525.94,1.119,-1.343,1.007,-0.158,0.085,0.984,0.411,0.781,0.471,10.785,1.191,28.183,-25.450,0.088,0.987,-0.133,10.554,-18.351,-0.397,-30.397,none
4.576404,0.982,0.189,0.023,2585.35,3.133,21.934,24.955,-0.902,0.211,-0.376,0.996,0.063,0.060,2596.88,-0.336,26.410,17.681,-0.977,0.133,-0.168,0.466,-0.770,-0.436,2567.01,28.312,12.198,-10.855,-0.504,0.839,0.205,0.281,0.217,-0.935,2512.84,23.165,-1.007,2.574,-0.159,0.090,0.983,0.394,0.779,0.489,10.576,-0.595,33.130,-25.023,0.093,0.989,-0.119,10.374,-23.298,9.206,-32.305,none
4.576517,0.985,0.174,-0.008,2649.32,7.833,20.591,22.941,-0.886,0.242,-0.395,0.996,0.044,0.071,2616.18,4.812,23.388,16.114,-0.968,0.131,-0.212,0.452,-0.772,-0.448,2650.25,31.222,7.162,-9.624,-0.504,0.848,0.167,0.291,0.154,-0.944,2528.65,35.586,1.790,1.007,-0.149,0.092,0.984,0.363,0.782,0.506,10.446,0.046,31.053,-21.344,0.065,0.993,-0.094,10.206,-26.198,15.863,-28.534,none
4.576655,0.993,0.119,0.015,2628.00,10.631,19.919,15.107,-0.868,0.279,-0.410,0.996,-0.031,0.089,2638.85,6.379,19.472,10.743,-0.972,0.166,-0.165,0.424,-0.813,-0.399,2731.25,31.222,-2.238,-2.126,-0.511,0.844,0.167,0.276,0.111,-0.955,2520.36,30.886,-5.036,-2.350,-0.133,0.108,0.985,0.323,0.795,0.513,10.242,1.573,22.626,-12.870,0.004,0.997,-0.077,10.004,-22.733,15.939,-17.618,none
4.576772,0.998,0.059,0.026,2632.53,7.833,13.429,6.826,-0.885,0.233,-0.404,0.994,-0.064,0.089,2652.99,4.364,12.869,3.805,-0.970,0.168,-0.178,0.441,-0.827,-0.350,2580.73,19.360,-2.686,1.231,-0.531,0.838,0.123,0.275,0.068,-0.959,2529.79,12.533,-5.819,-2.686,-0.133,0.107,0.985,0.305,0.795,0.525,10.339,2.687,9.435,-2.443,-0.009,0.998,-0.067,9.873,-13.969,6.397,-5.618,none
4.594034,1.000,0.022,0.019,2609.10,0.224,8.281,-0.336,-0.887,0.236,-0.397,0.988,-0.100,0.118,2586.91,-5.371,4.029,-3.133,-0.966,0.158,-0.207,0.444,-0.817,-0.368,2561.85,4.141,1.231,1.007,-0.491,0.860,0.140,0.270,0.090,-0.959,2471.10,-10.967,-8.505,1.902,-0.121,0.114,0.986,0.320,0.789,0.525,10.281,2.855,-1.863,4.947,0.018,0.997,-0.071,9.869,-5.832,-2.840,4.595,none
4.618593,0.996,0.088,0.023,2531.62,-7.945,0.112,-5.595,-0.863,0.250,-0.439,0.994,-0.025,0.106,2492.90,-7.610,-2.350,-7.498,-0.971,0.169,-0.169,0.455,-0.803,-0.385,2522.18,-7.610,2.574,-0.224,-0.495,0.860,0.124,0.268,0.135,-0.954,2451.83,-16.338,-4.476,4.364,-0.133,0.099,0.986,0.340,0.785,0.518,10.407,3.908,-5.099,6.595,0.033,0.996,-0.078,10.008,-3.344,-5.450,5.817,none
4.638990,0.994,0.101,0.035,2515.40,-7.162,-2.798,-9.176,-0.857,0.276,-0.435,0.994,-0.021,0.111,2484.81,-6.267,-3.133,-9.400,-0.964,0.180,-0.195,0.462,-0.802,-0.378,2463.38,-8.952,1.007,-2.686,-0.520,0.836,0.178,0.275,0.168,-0.947,2427.54,-12.981,-7.050,4.029,-0.119,0.103,0.988,0.345,0.785,0.514,10.455,3.969,-6.031,6.626,0.034,0.996,-0.079,10.050,-2.916,-6.550,5.069,none
4.663096,0.994,0.104,0.031,2535.02,-7.386,-4.252,-9.288,-0.875,0.253,-0.412,0.995,-0.009,0.101,2522.03,-6.379,-4.476,-9.288,-0.974,0.134,-0.183,0.463,-0.793,-0.396,2502.65,-9.400,0.783,-2.686,-0.492,0.857,0.152,0.258,0.164,-0.952,2435.44,-3.917,-6.491,3.805,-0.121,0.099,0.988,0.350,0.783,0.514,10.474,3.573,-6.137,6.366,0.036,0.996,-0.085,10.060,-3.252,-7.282,4.366,none
5.078789,0.994,0.101,0.039,2525.72,-6.491,-4.588,-8.505,-0.881,0.226,-0.416,0.992,-0.017,0.127,2468.43,-4.476,-5.148,-7.610,-0.972,0.129,-0.198,0.461,-0.801,-0.382,2490.83,-8.169,0.112,-2.126,-0.524,0.830,0.191,0.268,0.163,-0.950,2452.57,-4.029,-5.595,2.798,-0.116,0.098,0.988,0.352,0.780,0.517,10.345,4.336,-6.214,5.771,0.039,0.996,-0.085,9.978,-2.916,-7.740,3.267,none
5.080120,0.992,0.120,0.031,2520.53,-3.805,-3.469,-6.267,-0.831,0.315,-0.459,0.996,0.006,0.094,2509.17,-3.805,-5.371,-8.169,-0.979,0.135,-0.150,0.464,-0.789,-0.402,2538.46,-9.512,0.560,-1.231,-0.494,0.858,0.140,0.247,0.134,-0.960,2457.38,-6.714,-14.548,0.224,-0.112,0.099,0.989,0.351,0.782,0.515,10.320,4.779,-9.145,8.198,0.035,0.996,-0.084,9.941,-1.924,-9.939,4.611,none
5.080214,0.993,0.112,0.035,2517.51,0.224,-5.819,-10.295,-0.870,0.259,-0.420,0.994,-0.005,0.110,2494.24,-4.141,-8.169,-12.198,-0.977,0.117,-0.180,0.463,-0.791,-0.401,2523.17,-18.017,-1.231,-1.679,-0.524,0.833,0.177,0.258,0.138,-0.956,2466.08,-21.710,-7.945,0.112,-0.100,0.099,0.990,0.352,0.782,0.514,10.367,4.672,-13.237,13.053,0.033,0.995,-0.090,9.958,0.473,-11.023,7.634,none
5.080308,0.994,0.108,0.035,2526.34,-3.133,-8.169,-14.324,-0.882,0.238,-0.408,0.994,-0.017,0.105,2512.39,-5.371,-9.736,-15.891,-0.973,0.137,-0.185,0.461,-0.792,-0.399,2531.08,-24.284,-1.007,-2.574,-0.504,0.839,0.205,0.261,0.155,-0.953,2444.11,-32.005,-9.288,0.112,-0.102,0.092,0.991,0.369,0.776,0.512,10.363,3.557,-17.176,19.420,0.044,0.995,-0.092,9.976,2.931,-15.573,11.053,none
5.081252,0.990,0.137,0.019,2562.76,-4.141,-10.743,-20.143,-0.868,0.268,-0.418,0.995,0.026,0.097,2520.78,-8.952,-13.653,-21.934,-0.975,0.113,-0.189,0.461,-0.780,-0.423,2596.39,-30.662,-2.350,-4.924,-0.494,0.842,0.218,0.251,0.186,-0.950,2461.29,-33.907,-8.952,1.007,-0.105,0.090,0.990,0.380,0.776,0.503,10.560,2.611,-18.947,23.649,0.050,0.994,-0.094,10.087,3.496,-15.771,13.099,none
5.081341,0.992,0.118,0.034,2568.45,-5.819,-13.429,-21.710,-0.877,0.239,-0.416,0.994,-0.009,0.105,2532.01,-7.610,-14.883,-24.731,-0.979,0.131,-0.158,0.453,-0.787,-0.418,2557.75,-32.453,-4.141,-2.350,-0.494,0.847,0.195,0.247,0.210,-0.946,2504.15,-33.796,-4.364,2.126,-0.102,0.086,0.991,0.396,0.769,0.502,10.626,2.992,-20.137,23.756,0.062,0.993,-0.100,10.191,2.718,-12.687,17.939,none
5.081444,0.991,0.132,0.008,2600.66,-7.386,-13.764,-21.150,-0.876,0.211,-0.434,0.997,0.040,0.065,2574.53,-10.631,-14.100,-22.493,-0.985,0.077,-0.155,0.456,-0.773,-0.441,2516.88,-32.788,-3.805,-0.336,-0.511,0.815,0.272,0.253,0.227,-0.940,2485.93,-28.536,-6.714,2.462,-0.104,0.076,0.992,0.418,0.762,0.495,10.404,1.985,-19.695,23.099,0.090,0.990,-0.109,10.167,-0.733,-10.626,19.115,none
5.081534,0.975,0.224,-0.008,2535.52,-9.400,-17.010,-24.284,-0.888,0.220,-0.404,0.992,0.115,0.043,2528.13,-12.198,-18.800,-25.738,-0.981,0.097,-0.168,0.463,-0.718,-0.519,2627.23,-36.257,-6.938,-1.007,-0.513,0.822,0.248,0.241,0.232,-0.942,2398.33,-33.012,-3.357,2.014,-0.100,0.073,0.992,0.431,0.753,0.497,10.299,-1.511,-18.763,28.840,0.080,0.992,-0.098,9.946,-4.916,-11.435,14.198,none
5.082303,0.976,0.215,0.044,2452.94,-11.414,-20.591,-39.055,-0.901,0.212,-0.379,0.994,0.078,0.071,2482.85,-9.736,-24.507,-36.257,-0.989,0.077,-0.129,0.435,-0.782,-0.447,2502.80,-41.293,-16.003,-3.917,-0.542,0.815,0.205,0.245,0.220,-0.944,2476.70,-38.831,-7.498,1.679,-0.106,0.069,0.992,0.424,0.758,0.496,10.561,-1.725,-17.649,25.374,0.080,0.991,-0.104,10.063,-5.756,-16.137,14.198,none
5.082390,0.990,0.139,-0.004,2535.57,-7.945,-16.114,-38.272,-0.933,0.140,-0.331,0.996,0.059,0.073,2430.73,-10.743,-21.374,-36.817,-0.990,0.074,-0.123,0.470,-0.755,-0.457,2317.76,-37.041,-15.219,2.238,-0.515,0.815,0.265,0.223,0.299,-0.928,2415.34,-32.341,-0.560,4.029,-0.110,0.061,0.992,0.450,0.745,0.493,10.487,-1.038,-14.412,18.656,0.101,0.989,-0.109,10.101,-5.374,-13.481,14.977,none
5.082486,0.982,0.187,-0.038,2558.16,-12.533,-15.555,-30.998,-0.919,0.170,-0.355,0.996,0.086,0.012,2478.27,-12.533,-16.786,-27.641,-0.995,0.028,-0.094,0.457,-0.728,-0.511,2362.82,-27.417,-9.176,-0.336,-0.476,0.830,0.292,0.209,0.319,-0.924,2445.85,-10.519,-4.364,5.595,-0.117,0.056,0.992,0.465,0.734,0.494,10.480,-1.878,-8.321,10.901,0.115,0.988,-0.101,10.050,-10.244,-14.992,8.672,none
5.082570,0.958,0.287,-0.012,2455.56,-22.493,-17.681,-33.236,-0.933,0.113,-0.343,0.985,0.171,0.004,2446.00,-11.750,-19.024,-26.745,-0.996,0.049,-0.075,0.460,-0.702,-0.543,2493.44,-20.255,-6.267,-2.126,-0.476,0.825,0.305,0.202,0.314,-0.928,2425.54,-2.574,-1.567,6.602,-0.122,0.049,0.991,0.487,0.716,0.501,10.364,-3.313,-2.611,8.397,0.139,0.985,-0.099,9.924,-20.076,-25.176,-3.450,none
5.082669,0.954,0.298,-0.043,2529.41,-16.562,-11.638,-35.474,-0.942,0.105,-0.319,0.982,0.188,0.020,2434.96,-4.029,-14.660,-28.536,-0.998,0.016,-0.056,0.466,-0.698,-0.543,2420.27,-12.981,-11.638,-3.693,-0.495,0.819,0.289,0.201,0.331,-0.922,2386.65,11.302,-0.448,4.252,-0.130,0.049,0.990,0.505,0.709,0.492,9.998,-5.847,7.145,13.695,0.021,0.997,-0.078,9.863,-23.389,56.901,60.519,none
5.082755,0.943,0.332,0.021,2389.93,-13.093,-11.079,-41.741,-0.943,0.078,-0.323,0.989,0.145,-0.034,2277.39,-3.581,-16.114,-35.810,-0.999,-0.019,-0.040,0.427,-0.753,-0.501,2389.91,-2.798,-8.729,-7.498,-0.487,0.780,0.394,0.188,0.358,-0.915,2404.79,24.172,-4.252,4.700,-0.143,0.040,0.989,0.459,0.729,0.508,10.619,-3.542,11.603,0.260,0.113,0.990,-0.082,10.764,-23.115,-11.053,4.580,none
5.082836,0.977,0.215,0.012,2409.52,-6.379,-1.119,-24.843,-0.954,0.029,-0.297,0.994,0.080,0.073,2296.40,2.686,-5.260,-25.067,-0.997,-0.029,-0.071,0.482,-0.695,-0.534,2222.12,3.693,-6.938,-6.379,-0.480,0.780,0.400,0.176,0.292,-0.940,2508.08,32.788,-0.783,4.029,-0.143,0.040,0.989,0.458,0.720,0.521,10.531,1.618,12.168,-9.847,0.033,0.998,-0.049,9.893,-16.855,31.832,46.702,none
5.082918,0.957,0.277,-0.090,2510.63,-8.057,4.141,-12.757,-0.967,0.003,-0.254,0.992,0.121,-0.030,2559.04,3.021,7.833,-9.512,-0.998,-0.056,-0.032,0.458,-0.751,-0.475,2419.28,17.122,1.343,-18.129,-0.463,0.784,0.413,0.244,0.184,-0.952,2332.33,26.410,8.729,3.133,-0.143,0.040,0.989,0.440,0.726,0.528,9.645,6.168,11.695,3.420,0.165,0.983,-0.080,9.328,-12.947,5.802,25.008,none
5.084563,0.963,0.269,-0.032,2474.58,3.917,4.364,-17.569,-0.957,0.044,-0.288,0.995,0.075,0.065,2432.98,9.848,-0.224,-15.107,-0.999,-0.046,-0.018,0.456,-0.712,-0.534,2775.01,4.812,-4.364,-20.143,-0.511,0.768,0.386,0.255,0.138,-0.957,2463.77,25.738,10.072,0.448,-0.159,0.033,0.987,0.402,0.743,0.536,10.575,11.084,0.779,9.145,0.114,0.990,-0.081,9.891,-2.046,24.534,44.931,none
5.084684,0.984,0.178,0.023,2532.01,3.693,5.371,-24.731,-0.957,0.002,-0.291,0.993,0.102,0.064,2465.94,7.833,2.238,-24.060,-0.999,-0.044,-0.027,0.427,-0.783,-0.452,2711.30,-12.422,-13.541,-23.053,-0.520,0.753,0.404,0.271,0.106,-0.957,2567.06,0.895,-8.841,-2.350,-0.168,0.033,0.985,0.411,0.748,0.521,10.851,10.550,-12.031,16.168,0.196,0.978,-0.073,10.868,4.107,-4.809,22.718,none
5.084783,0.990,0.138,-0.024,2910.58,-0.112,5.036,-25.962,-0.956,0.009,-0.292,0.999,0.030,0.031,2805.67,-0.112,1.119,-28.760,-0.998,-0.044,-0.049,0.445,-0.761,-0.473,2715.20,-25.067,-8.617,-12.310,-0.508,0.769,0.389,0.278,0.132,-0.951,2642.52,-23.836,-12.645,-3.469,-0.159,0.042,0.986,0.414,0.748,0.518,10.968,10.382,-19.908,24.580,0.216,0.973,-0.082,10.608,5.954,-8.092,23.695,none
5.084877,0.982,0.183,-0.046,2774.06,-7.386,-11.302,-26.298,-0.963,-0.037,-0.268,0.994,0.106,0.011,2749.61,-6.714,-11.414,-23.500,-0.996,-0.090,-0.016,0.422,-0.759,-0.495,2693.81,-32.676,-9.512,0.336,-0.528,0.756,0.387,0.263,0.211,-0.941,2495.22,-46.441,-9.624,-2.798,-0.152,0.040,0.988,0.465,0.736,0.492,10.670,6.275,-25.176,25.924,0.106,0.993,-0.045,10.716,3.634,-14.305,32.702,none
5.210925,0.960,0.279,-0.011,2632.56,-13.988,-21.822,-30.662,-0.949,-0.014,-0.316,0.967,0.227,0.114,2319.04,-11.750,-23.612,-19.807,-0.996,-0.085,-0.008,0.527,-0.643,-0.556,2310.31,-32.341,-11.638,14.436,-0.511,0.734,0.448,0.208,0.311,-0.927,2448.19,-34.803,-17.233,-0.895,-0.172,0.019,0.985,0.489,0.718,0.494,10.424,5.374,-12.366,16.153,0.210,0.973,-0.092,10.011,-2.763,-9.115,19.359,none
5.588817,0.926,0.378,0.012,2384.01,-10.183,-12.757,-20.814,-0.967,-0.045,-0.251,0.968,0.252,0.013,2359.45,-7.498,-11.526,-16.786,-0.992,-0.127,0.018,0.507,-0.668,-0.544,2341.76,-25.179,-9.400,6.826,-0.491,0.768,0.411,0.225,0.282,-0.932,2350.89,-19.919,-8.057,-2.014,-0.174,0.015,0.985,0.498,0.714,0.491,10.191,5.985,-7.573,13.328,0.222,0.970,-0.099,9.779,-1.969,-3.359,13.069,none
5.588967,0.952,0.307,-0.012,2422.27,-1.679,-5.931,-20.031,-0.965,-0.038,-0.260,0.986,0.163,0.021,2382.48,-1.455,-8.729,-19.472,-0.992,-0.121,0.032,0.462,-0.695,-0.550,2460.87,-22.493,-8.952,0.000,-0.505,0.740,0.444,0.209,0.240,-0.948,2394.48,-11.974,-9.400,-3.133,-0.172,0.021,0.985,0.478,0.723,0.499,10.134,6.534,-6.992,16.641,0.192,0.978,-0.079,9.890,-1.435,-11.618,6.687,none
5.589097,0.961,0.276,-0.008,2447.02,-3.693,-4.812,-21.710,-0.969,-0.073,-0.236,0.989,0.141,0.041,2407.15,-4.252,-9.064,-21.374,-0.992,-0.122,-0.033,0.463,-0.721,-0.516,2374.53,-25.179,-9.624,-3.581,-0.491,0.724,0.484,0.204,0.247,-0.947,2448.22,-20.143,-5.148,-1.902,-0.167,0.029,0.985,0.487,0.713,0.504,10.415,8.916,-14.840,15.099,0.128,0.990,-0.066,9.854,3.969,6.061,25.191,none
5.589209,0.960,0.280,-0.008,2482.36,-5.148,-3.469,-18.576,-0.972,-0.081,-0.220,0.986,0.167,-0.008,2445.35,-6.043,-6.155,-18.576,-0.990,-0.140,-0.012,0.467,-0.716,-0.520,2377.18,-22.717,-3.021,-2.350,-0.529,0.732,0.430,0.221,0.268,-0.938,2399.61,-31.110,-3.581,-0.895,-0.173,0.018,0.985,0.456,0.729,0.510,10.444,11.130,-10.565,15.618,0.238,0.965,-0.111,9.888,9.405,6.855,27.389,none
5.589311,0.970,0.237,-0.050,2516.15,-3.133,-0.336,-16.674,-0.961,-0.097,-0.261,0.985,0.166,0.049,2406.25,-4.252,-4.924,-17.681,-0.988,-0.156,-0.001,0.473,-0.678,-0.563,2406.61,-18.464,-4.029,-5.371,-0.503,0.721,0.477,0.212,0.283,-0.935,2449.35,-36.257,-2.910,-1.343,-0.169,0.017,0.986,0.510,0.707,0.490,10.339,12.992,-16.397,14.168,0.338,0.929,-0.151,10.245,11.969,-0.550,22.947,none
5.589408,0.962,0.267,-0.049,2598.88,-2.014,1.790,-14.436,-0.967,-0.106,-0.233,0.985,0.168,0.039,2495.21,-5.148,-3.245,-15.219,-0.990,-0.138,0.020,0.465,-0.689,-0.557,2468.96,-16.562,-2.238,-5.707,-0.539,0.710,0.453,0.219,0.289,-0.932,2466.64,-26.634,4.700,-1.343,-0.167,0.013,0.986,0.525,0.711,0.469,10.130,11.695,-13.756,18.733,0.315,0.932,-0.181,9.732,10.672,13.389,34.779,none
5.589493,0.927,0.372,-0.055,2498.58,-1.567,-1.007,-17.345,-0.957,-0.098,-0.273,0.959,0.283,-0.015,2552.55,-7.610,-3.469,-16.114,-0.992,-0.129,-0.016,0.454,-0.655,-0.604,2613.38,-20.479,0.448,-4.924,-0.508,0.728,0.461,0.238,0.290,-0.927,2428.26,-21.374,8.281,-0.560,-0.164,0.016,0.986,0.522,0.712,0.469,10.464,12.824,-11.237,15.603,0.244,0.963,-0.111,10.270,3.802,-6.076,15.160,none
5.589589,0.960,0.275,-0.046,2562.71,3.021,1.790,-25.626,-0.964,-0.054,-0.260,0.963,0.262,0.063,2493.42,-1.343,-1.679,-24.731,-0.991,-0.131,-0.007,0.459,-0.629,-0.627,2564.37,-25.850,-3.693,-6.714,-0.501,0.711,0.494,0.214,0.349,-0.912,2518.72,-26.857,10.183,-1.902,-0.170,0.012,0.985,0.516,0.707,0.485,10.802,12.382,-7.878,10.412,0.228,0.970,-0.086,10.888,1.802,-12.947,1.557,none
5.589714,0.938,0.346,-0.039,2749.59,-2.574,1.007,-24.619,-0.961,-0.112,-0.251,0.970,0.243,-0.029,2647.70,-4.924,-4.700,-25.962,-0.989,-0.147,-0.004,0.408,-0.682,-0.606,2620.45,-23.500,-6.714,-5.819,-0.483,0.722,0.495,0.243,0.339,-0.909,2539.37,-34.467,7.610,-2.798,-0.171,0.007,0.985,0.546,0.701,0.460,10.507,10.351,-16.137,13.557,0.272,0.955,-0.120,10.260,1.725,-18.809,4.718,none
5.589807,0.947,0.321,-0.023,2566.26,-4.476,-4.700,-26.969,-0.963,-0.131,-0.237,0.982,0.185,-0.034,2574.11,-8.952,-11.414,-25.067,-0.986,-0.164,0.009,0.438,-0.699,-0.565,2532.47,-25.403,-7.050,2.910,-0.507,0.704,0.496,0.223,0.343,-0.913,2421.47,-28.760,0.671,0.112,-0.166,0.018,0.986,0.530,0.711,0.462,10.503,8.229,-14.992,15.740,0.282,0.950,-0.132,9.858,2.733,-3.160,30.137,none
5.589891,0.917,0.398,0.008,2458.43,-11.191,-11.638,-26.969,-0.953,-0.129,-0.272,0.964,0.265,0.025,2357.83,-12.086,-16.562,-22.717,-0.980,-0.197,0.040,0.480,-0.648,-0.592,2370.59,-23.724,-4.476,12.310,-0.528,0.688,0.498,0.212,0.365,-0.907,2407.95,-25.962,-4.252,1.343,-0.184,0.003,0.983,0.541,0.705,0.459,10.402,8.672,-8.153,11.847,0.231,0.968,-0.100,10.324,-0.641,-8.107,16.779,none
5.589973,0.907,0.419,0.040,2452.05,-4.924,-0.224,-26.074,-0.961,-0.149,-0.234,0.944,0.324,0.064,2292.39,-13.205,-10.183,-26.298,-0.981,-0.193,0.024,0.471,-0.620,-0.627,2393.24,-21.038,-0.336,4.476,-0.484,0.694,0.533,0.197,0.404,-0.893,2442.48,-22.605,-1.119,1.007,-0.175,0.011,0.985,0.571,0.684,0.455,10.594,7.221,-5.191,8.824,0.305,0.944,-0.129,10.263,-2.992,-4.214,10.840,none
5.590054,0.920,0.392,-0.008,2473.24,-9.176,6.602,-22.269,-0.968,-0.148,-0.203,0.966,0.258,-0.020,2454.79,-8.057,1.119,-22.381,-0.982,-0.188,-0.003,0.424,-0.669,-0.611,2410.60,-15.443,3.357,2.798,-0.480,0.683,0.551,0.184,0.425,-0.886,2505.45,-21.150,7.722,1.231,-0.179,0.012,0.984,0.568,0.679,0.464,10.600,6.504,-0.748,2.427,0.433,0.874,-0.222,10.050,1.786,-4.046,19.481,none
5.590135,0.914,0.399,-0.072,2573.57,-13.541,9.288,-18.241,-0.955,-0.166,-0.246,0.953,0.299,-0.051,2478.11,-11.750,4.141,-19.695,-0.981,-0.195,-0.001,0.424,-0.631,-0.649,2477.39,-5.260,1.902,5.819,-0.503,0.687,0.525,0.196,0.402,-0.894,2406.24,-17.345,9.064,1.567,-0.180,0.017,0.984,0.577,0.678,0.456,10.011,6.183,5.466,1.817,0.289,0.951,-0.110,10.223,-6.809,-10.412,-2.687,none
5.590215,0.928,0.371,-0.024,2482.89,-3.245,5.148,-12.422,-0.968,-0.146,-0.205,0.953,0.302,0.025,2324.63,-5.148,1.790,-14.324,-0.981,-0.193,0.024,0.495,-0.587,-0.641,2297.59,-3.805,0.224,5.483,-0.487,0.701,0.522,0.213,0.440,-0.872,2398.27,-20.479,5.819,-0.895,-0.191,0.011,0.982,0.563,0.687,0.459,10.265,5.374,11.481,0.748,0.268,0.957,-0.108,9.995,-6.427,5.664,1.313,none
5.593285,0.902,0.432,0.004,2379.54,-1.790,5.819,-4.364,-0.950,-0.198,-0.242,0.943,0.331,0.039,2273.76,3.245,5.931,-3.805,-0.979,-0.204,0.010,0.510,-0.620,-0.596,2270.23,5.260,2.686,-3.469,-0.450,0.708,0.544,0.230,0.409,-0.883,2390.91,-7.050,10.407,-2.238,-0.189,0.014,0.982,0.545,0.698,0.464,10.497,6.672,9.588,-6.565,0.281,0.952,-0.124,10.274,-9.099,-0.076,-13.084,none
5.593375,0.930,0.367,0.016,2455.60,7.945,13.876,4.924,-0.941,-0.128,-0.313,0.974,0.226,0.024,2413.32,8.393,12.645,1.231,-0.981,-0.195,0.000,0.466,-0.648,-0.603,2442.89,9.064,5.371,-9.960,-0.469,0.688,0.553,0.228,0.367,-0.902,2450.47,3.693,8.952,-1.567,-0.196,0.016,0.981,0.578,0.679,0.454,10.423,5.511,13.298,-3.542,0.159,0.987,-0.034,10.614,-6.534,10.214,0.275,none
5.593456,0.946,0.325,-0.015,2683.91,1.455,9.848,2.686,-0.950,-0.198,-0.242,0.953,0.289,0.085,2528.91,-1.455,7.050,-2.014,-0.983,-0.181,0.029,0.442,-0.638,-0.630,2662.90,7.498,6.938,-9.512,-0.503,0.687,0.525,0.219,0.372,-0.902,2603.57,5.148,7.386,-0.895,-0.199,0.013,0.980,0.516,0.712,0.477,10.675,7.328,8.061,-7.511,0.269,0.957,-0.109,10.570,-6.443,-2.992,-9.893,none
5.593539,0.951,0.308,-0.029,2669.24,13.876,11.526,7.050,-0.951,-0.201,-0.234,0.983,0.182,-0.033,2683.04,3.469,8.617,4.141,-0.979,-0.205,0.017,0.426,-0.717,-0.552,2578.34,6.714,0.336,-8.057,-0.520,0.690,0.503,0.269,0.347,-0.899,2481.41,7.722,13.093,0.783,-0.201,0.015,0.980,0.532,0.706,0.469,10.465,5.344,3.176,-3.023,0.273,0.954,-0.125,10.258,-5.450,-4.733,-1.817,none
5.600936,0.923,0.384,0.011,2525.86,-4.141,-1.790,2.910,-0.951,-0.128,-0.281,0.962,0.270,0.053,2426.31,0.224,0.000,5.260,-0.981,-0.195,0.000,0.459,-0.660,-0.594,2543.57,4.029,4.141,2.014,-0.506,0.688,0.520,0.261,0.361,-0.895,2438.01,3.581,5.483,1.902,-0.205,0.009,0.979,0.533,0.703,0.471,10.385,6.458,3.786,-3.099,0.268,0.954,-0.132,10.097,-4.443,-2.794,-3.221,none
5.601050,0.930,0.366,0.012,2433.19,-2.462,3.245,9.064,-0.953,-0.151,-0.262,0.965,0.259,0.033,2375.10,4.252,5.371,10.407,-0.980,-0.197,0.008,0.502,-0.643,-0.578,2307.11,7.386,2.686,3.021,-0.488,0.695,0.529,0.255,0.388,-0.886,2419.55,15.331,8.505,2.238,-0.208,0.013,0.978,0.534,0.708,0.461,10.402,7.145,4.672,-6.107,0.278,0.952,-0.131,10.143,-3.786,-2.489,-6.366,none
5.601140,0.919,0.394,-0.008,2508.30,-5.819,3.693,11.302,-0.949,-0.145,-0.279,0.960,0.279,0.008,2448.28,5.036,7.722,15.667,-0.981,-0.194,-0.009,0.483,-0.630,-0.608,2435.54,10.855,8.617,-3.693,-0.483,0.693,0.535,0.275,0.391,-0.879,2426.73,23.612,4.588,2.686,-0.202,0.013,0.979,0.553,0.699,0.454,10.631,4.427,8.214,-7.679,0.290,0.947,-0.138,10.347,-6.015,-3.176,-7.038,none
5.601226,0.918,0.398,-0.008,2563.33,-6.267,2.574,13.653,-0.955,-0.129,-0.267,0.961,0.277,0.008,2498.13,5.707,6.826,18.800,-0.983,-0.182,0.030,0.462,-0.639,-0.615,2505.79,14.660,7.610,-1.679,-0.508,0.716,0.480,0.256,0.397,-0.881,2487.81,24.060,3.357,2.014,-0.210,0.013,0.978,0.550,0.697,0.460,10.679,1.191,15.191,-10.046,0.290,0.948,-0.133,10.380,-9.511,-0.641,-9.191,none
5.616561,0.923,0.384,-0.008,2525.77,-4.700,3.021,18.464,-0.942,-0.139,-0.306,0.966,0.259,0.024,2445.35,9.064,9.960,27.865,-0.982,-0.190,0.007,0.483,-0.642,-0.596,2437.80,21.934,5.707,1.679,-0.545,0.665,0.511,0.232,0.395,-0.889,2497.56,22.381,3.693,0.336,-0.206,0.015,0.978,0.534,0.700,0.474,10.436,-0.458,22.046,-12.947,0.281,0.951,-0.126,10.139,-12.489,2.611,-11.893,none
5.639147,0.919,0.395,-0.008,2528.78,-0.224,5.148,24.619,-0.952,-0.118,-0.284,0.967,0.253,0.012,2501.85,9.512,11.638,27.865,-0.987,-0.162,0.001,0.473,-0.647,-0.598,2508.56,23.836,7.945,-1.790,-0.513,0.719,0.469,0.245,0.324,-0.914,2440.53,21.038,8.617,0.671,-0.210,0.012,0.978,0.513,0.702,0.493,10.262,-0.183,18.947,-10.611,0.276,0.954,-0.118,10.129,-11.481,1.664,-8.748,none
5.660424,0.936,0.352,-0.008,2557.08,3.245,5.483,17.122,-0.963,-0.109,-0.246,0.982,0.191,0.000,2545.03,9.288,10.855,21.262,-0.990,-0.138,-0.013,0.433,-0.697,-0.572,2625.51,15.555,5.260,-3.917,-0.515,0.690,0.508,0.250,0.301,-0.920,2467.78,16.338,6.491,1.902,-0.200,0.022,0.980,0.513,0.701,0.495,10.327,0.427,11.420,-5.939,0.275,0.955,-0.108,10.177,-8.672,-1.817,-2.107,none
5.682928,0.938,0.345,-0.011,2579.92,-3.133,1.007,10.519,-0.947,-0.071,-0.312,0.980,0.198,0.000,2558.73,5.036,6.379,16.003,-0.990,-0.128,-0.050,0.444,-0.689,-0.572,2538.34,7.722,5.595,-0.224,-0.531,0.701,0.475,0.258,0.309,-0.915,2468.61,6.826,6.379,2.798,-0.198,0.014,0.980,0.518,0.698,0.495,10.456,1.481,5.786,-2.824,0.280,0.954,-0.109,10.251,-6.626,-4.626,1.740,none
6.101020,0.938,0.348,-0.008,2562.01,-7.162,-2.126,6.714,-0.967,-0.073,-0.244,0.976,0.217,0.008,2517.99,1.790,2.238,12.645,-0.991,-0.132,-0.032,0.465,-0.673,-0.575,2509.92,5.371,4.588,1.790,-0.530,0.718,0.451,0.267,0.329,-0.906,2463.07,-1.790,1.343,1.567,-0.193,0.026,0.981,0.521,0.699,0.490,10.477,0.992,4.611,-1.481,0.280,0.952,-0.121,10.217,-7.176,-4.748,2.611,rock
6.101203,0.925,0.381,-0.004,2545.11,-8.393,-3.693,5.036,-0.944,-0.074,-0.322,0.970,0.244,0.015,2517.34,0.560,0.112,9.848,-0.992,-0.125,-0.008,0.482,-0.654,-0.583,2525.27,3.133,4.252,1.119,-0.527,0.706,0.473,0.268,0.335,-0.903,2447.07,-6.267,-0.112,1.007,-0.185,0.024,0.983,0.515,0.701,0.494,10.523,-0.168,6.351,-0.733,0.274,0.955,-0.115,10.245,-8.931,-3.389,2.840,rock
6.101300,0.939,0.344,0.000,2536.59,0.448,-3.021,6.602,-0.952,-0.069,-0.298,0.980,0.196,0.032,2489.38,3.357,0.448,7.722,-0.991,-0.133,-0.023,0.467,-0.671,-0.576,2520.54,1.455,2.238,-1.231,-0.504,0.740,0.446,0.272,0.338,-0.901,2453.14,-2.574,1.119,1.007,-0.177,0.026,0.984,0.510,0.698,0.504,10.475,-0.137,7.191,-1.069,0.272,0.956,-0.106,10.181,-9.206,-2.824,2.534,rock
6.101408,0.944,0.331,0.000,2513.68,0.560,-2.350,6.267,-0.950,-0.080,-0.300,0.982,0.184,0.028,2432.60,2.910,2.126,8.952,-0.992,-0.104,-0.065,0.468,-0.694,-0.546,2407.74,5.819,0.560,1.790,-0.491,0.714,0.500,0.255,0.334,-0.907,2424.80,3.357,0.000,0.783,-0.184,0.024,0.983,0.508,0.698,0.505,10.330,0.779,6.595,-2.031,0.277,0.955,-0.108,10.051,-7.924,-4.412,1.710,rock
6.101516,0.934,0.357,-0.008,2497.43,-0.895,-0.448,7.833,-0.956,-0.092,-0.279,0.976,0.219,0.020,2450.83,0.560,2.126,9.400,-0.989,-0.145,-0.020,0.484,-0.664,-0.570,2412.16,5.707,5.036,0.336,-0.488,0.732,0.476,0.254,0.321,-0.912,2433.16,6.043,1.231,1.343,-0.177,0.024,0.984,0.507,0.695,0.509,10.356,2.534,5.115,-3.160,0.279,0.954,-0.109,10.064,-7.023,-4.244,-1.038,rock
6.102153,0.939,0.344,-0.004,2505.94,1.007,1.790,5.707,-0.963,-0.048,-0.267,0.980,0.199,0.032,2450.19,2.462,2.574,6.155,-0.993,-0.112,-0.044,0.464,-0.676,-0.573,2517.34,4.588,2.462,-2.238,-0.508,0.712,0.485,0.253,0.320,-0.913,2443.20,5.036,2.686,1.343,-0.181,0.018,0.983,0.505,0.695,0.512,10.413,4.427,3.115,-4.412,0.275,0.955,-0.107,10.121,-5.817,-4.779,-3.206,rock
6.102249,0.945,0.326,-0.008,2521.19,-0.783,2.910,4.364,-0.953,-0.064,-0.295,0.983,0.185,0.020,2474.25,1.007,3.693,4.588,-0.992,-0.116,-0.053,0.469,-0.685,-0.557,2467.45,4.924,2.126,-1.343,-0.516,0.719,0.465,0.256,0.327,-0.910,2451.30,3.133,2.910,1.343,-0.177,0.017,0.984,0.507,0.694,0.510,10.427,6.244,0.763,-5.863,0.278,0.954,-0.109,10.158,-4.351,-6.275,-4.977,rock
6.102342,0.937,0.348,-0.008,2531.34,-3.021,3.021,4.252,-0.963,-0.055,-0.265,0.977,0.211,0.020,2496.53,0.336,3.805,5.260,-0.995,-0.097,-0.032,0.475,-0.665,-0.576,2539.76,3.021,3.357,-3.581,-0.500,0.723,0.476,0.272,0.311,-0.911,2450.08,3.805,3.245,1.119,-0.179,0.025,0.983,0.504,0.700,0.507,10.429,6.870,-1.695,-5.023,0.275,0.955,-0.112,10.206,-4.122,-6.916,-4.366,rock
6.102432,0.940,0.340,-0.004,2564.81,-0.560,2.462,2.574,-0.952,-0.031,-0.305,0.980,0.197,0.035,2528.88,-0.224,1.119,0.336,-0.994,-0.109,-0.020,0.463,-0.682,-0.566,2582.90,-0.336,-0.112,-4.364,-0.500,0.736,0.456,0.280,0.303,-0.911,2448.28,2.238,2.350,0.671,-0.172,0.018,0.985,0.503,0.703,0.503,10.442,6.718,-3.282,-2.916,0.269,0.956,-0.112,10.218,-4.000,-7.053,-1.908,rock
6.102522,0.943,0.334,-0.004,2549.59,0.112,0.783,-0.224,-0.945,-0.100,-0.312,0.982,0.185,0.027,2522.56,-0.112,0.336,-0.895,-0.991,-0.127,-0.032,0.479,-0.681,-0.554,2497.10,-2.910,-1.679,-1.455,-0.504,0.728,0.466,0.275,0.306,-0.911,2457.93,-1.902,1.455,0.336,-0.178,0.021,0.984,0.502,0.704,0.502,10.482,6.595,-3.344,-1.588,0.268,0.957,-0.114,10.181,-4.031,-6.733,-0.702,rock
6.102645,0.944,0.330,0.004,2523.14,-0.560,-0.336,-1.455,-0.954,-0.054,-0.296,0.981,0.190,0.044,2457.20,-0.783,-1.119,-1.455,-0.995,-0.102,-0.013,0.485,-0.674,-0.557,2467.03,-2.910,-1.343,-0.895,-0.523,0.716,0.463,0.276,0.322,-0.905,2452.93,-4.812,1.119,-0.224,-0.181,0.012,0.983,0.506,0.704,0.499,10.446,6.473,-2.275,-1.557,0.271,0.956,-0.115,10.186,-4.321,-5.924,-1.008,rock
6.102764,0.940,0.340,-0.004,2533.19,0.112,0.560,-0.895,-0.949,-0.074,-0.308,0.980,0.199,0.028,2499.87,-0.783,-0.895,-2.238,-0.992,-0.124,-0.018,0.479,-0.669,-0.569,2501.33,-2.350,-0.224,-1.679,-0.490,0.752,0.440,0.277,0.320,-0.906,2440.66,-3.917,0.560,0.112,-0.175,0.024,0.984,0.507,0.703,0.499,10.454,6.015,-2.840,-0.412,0.272,0.955,-0.115,10.208,-4.626,-6.351,0.366,rock
6.102857,0.941,0.338,-0.008,2553.01,0.224,-0.336,-1.567,-0.946,-0.075,-0.314,0.980,0.198,0.024,2508.44,-1.455,-2.686,-3.693,-0.993,-0.114,-0.027,0.477,-0.674,-0.563,2507.76,-5.148,-2.350,-1.902,-0.498,0.745,0.444,0.275,0.318,-0.907,2458.79,-1.790,-0.448,0.336,-0.187,0.015,0.982,0.509,0.702,0.498,10.475,5.328,-3.374,1.099,0.278,0.953,-0.118,10.253,-5.130,-6.397,2.107,rock
6.102946,0.937,0.350,-0.008,2574.87,0.895,-1.790,-2.910,-0.951,-0.048,-0.304,0.978,0.208,0.027,2524.37,-2.462,-4.364,-6.043,-0.993,-0.116,-0.003,0.470,-0.656,-0.590,2591.41,-10.855,-4.364,-2.798,-0.521,0.693,0.498,0.280,0.322,-0.904,2520.82,-3.133,-1.455,0.560,-0.182,0.014,0.983,0.523,0.691,0.499,10.675,5.649,-5.634,3.023,0.298,0.947,-0.119,10.583,-6.748,-4.626,3.664,rock
6.103040,0.920,0.393,-0.014,2741.69,13.429,-2.238,-4.924,-0.953,-0.046,-0.300,0.967,0.253,-0.014,2735.52,-3.133,-5.036,-9.624,-0.995,-0.085,-0.052,0.460,-0.668,-0.585,2664.87,-12.757,-10.519,0.224,-0.488,0.721,0.492,0.277,0.307,-0.911,2515.46,-9.960,-13.205,-4.924,-0.177,0.015,0.984,0.514,0.701,0.495,10.460,4.473,-9.435,7.878,0.281,0.953,-0.114,10.295,-8.427,-5.908,8.779,rock
6.103129,0.948,0.317,-0.015,2626.56,16.898,-7.498,-12.310,-0.966,-0.094,-0.239,0.989,0.150,0.000,2596.31,-1.119,-12.533,-19.024,-0.991,-0.133,0.001,0.438,-0.687,-0.580,2689.62,-18.688,-15.891,5.931,-0.513,0.706,0.488,0.275,0.309,-0.910,2494.49,-15.443,-15.779,-4.924,-0.183,0.020,0.983,0.506,0.706,0.496,10.447,4.412,-13.786,11.527,0.277,0.952,-0.129,10.374,-8.580,-6.382,15.313,rock
6.103216,0.923,0.380,0.050,2728.85,-2.686,-12.198,-19.807,-0.957,-0.104,-0.270,0.974,0.208,0.092,2575.47,-13.541,-14.772,-23.500,-0.992,-0.127,-0.007,0.455,-0.672,-0.585,2500.98,-23.165,-17.010,10.295,-0.455,0.725,0.516,0.252,0.346,-0.904,2685.11,-22.045,-30.550,-4.812,-0.184,-0.001,0.983,0.537,0.690,0.485,10.830,2.672,-20.824,16.061,0.321,0.938,-0.134,10.755,-13.206,-5.695,26.000,rock
6.105515,0.887,0.440,-0.138,3203.49,-17.233,-4.924,-37.712,-0.958,-0.094,-0.272,0.952,0.281,-0.122,3201.90,-19.919,-22.829,-50.246,-0.990,-0.142,0.012,0.381,-0.687,-0.619,2961.94,-23.948,-14.660,8.057,-0.478,0.727,0.493,0.256,0.303,-0.918,2676.78,-17.345,-40.286,-2.014,-0.188,0.007,0.982,0.541,0.688,0.484,10.803,-4.885,-33.008,24.336,0.419,0.861,-0.287,10.440,15.679,-52.748,77.191,rock
6.105627,0.881,0.423,-0.212,3428.70,-41.629,-38.831,-85.608,-0.953,-0.149,-0.265,0.951,0.251,-0.182,3495.82,-21.710,-60.541,-78.110,-0.984,-0.172,0.052,0.360,-0.684,-0.634,3188.02,-28.424,-20.479,16.114,-0.474,0.734,0.486,0.239,0.325,-0.915,2705.89,-17.010,-48.679,3.021,-0.191,0.005,0.982,0.581,0.672,0.459,10.582,-12.916,-47.084,26.931,0.446,0.823,-0.353,11.711,84.901,-90.702,106.992,rock
6.110010,0.901,0.330,-0.283,3886.09,-26.522,-86.951,-105.303,-0.956,-0.218,-0.196,0.960,0.157,-0.233,3962.61,-9.736,-109.668,-77.886,-0.970,-0.231,0.081,0.390,-0.629,-0.672,3372.78,-50.022,-32.676,38.608,-0.439,0.698,0.566,0.263,0.360,-0.895,2797.19,-12.086,-43.531,4.476,-0.202,0.004,0.979,0.773,0.629,0.077,9.069,5.282,-123.405,46.870,0.447,0.894,-0.039,15.797,105.130,-101.328,112.977,rock
6.131182,0.909,0.323,-0.263,4099.40,-1.902,-178.937,-90.868,-0.943,-0.296,-0.149,0.967,0.160,-0.197,3973.07,4.812,-167.747,-51.812,-0.959,-0.270,0.088,0.494,-0.415,-0.764,2916.40,-26.969,-98.253,43.643,-0.404,0.681,0.611,0.280,0.341,-0.897,2868.17,1.790,-45.322,-10.407,-0.206,0.007,0.978,0.741,0.646,0.183,10.268,133.725,-231.344,97.969,0.480,0.874,0.081,17.480,27.771,-65.252,177.542,rock
6.613787,0.852,0.494,-0.171,3611.76,4.476,-217.321,-84.153,-0.934,-0.356,0.031,0.945,0.296,-0.143,3704.30,10.183,-212.957,-32.117,-0.936,-0.288,0.205,0.497,-0.455,-0.739,2705.41,-3.245,-110.563,-17.457,-0.370,0.675,0.639,0.272,0.301,-0.914,2697.98,-11.191,-68.710,-10.967,-0.239,0.004,0.971,0.750,0.580,0.316,14.669,127.695,-257.343,124.718,0.466,0.872,-0.147,13.761,-20.901,-52.260,236.672,rock
6.613929,0.681,0.628,0.377,3325.73,9.960,-218.440,-116.606,-0.888,-0.441,0.130,0.972,0.203,-0.122,3308.22,-3.357,-245.521,-71.172,-0.878,-0.338,0.338,0.351,-0.569,-0.744,2991.82,-7.162,-118.732,-59.422,-0.367,0.670,0.645,0.200,0.365,-0.909,2594.99,-43.084,-86.615,-8.281,-0.260,0.007,0.966,0.880,0.457,0.127,15.252,132.092,-227.405,189.374,0.260,0.619,-0.741,13.186,90.382,-32.366,205.176,rock
6.614031,0.229,0.640,0.733,4975.06,-291.515,-39.950,-291.515,-0.852,-0.514,0.100,0.973,0.231,0.010,3002.23,-69.605,-209.040,-126.342,-0.859,-0.373,0.350,0.273,-0.571,-0.774,3306.80,-6.826,-123.208,-58.079,-0.307,0.684,0.661,0.099,0.464,-0.880,2467.05,-75.872,-114.592,-10.743,-0.267,0.008,0.964,0.763,0.225,-0.606,16.407,298.748,-195.389,255.893,0.130,0.099,-0.987,15.253,389.450,-45.969,115.466,rock
6.614132,0.420,0.770,0.481,3732.93,-218.104,377.906,-485.447,-0.773,-0.635,0.003,0.581,0.719,0.381,3606.55,-207.250,287.934,-515.326,-0.828,-0.493,0.268,0.291,-0.591,-0.752,3142.33,-71.284,-150.066,-49.350,-0.268,0.671,0.691,0.058,0.453,-0.890,2200.00,-113.473,-136.525,-9.624,-0.280,-0.002,0.960,0.461,0.343,-0.818,11.825,500.260,-424.641,195.847,0.527,0.032,-0.849,16.363,500.260,89.359,102.840,rock
6.614234,0.365,0.847,0.387,3599.27,-97.918,543.303,-527.076,-0.681,-0.707,-0.194,0.674,0.688,-0.267,3413.71,-83.817,342.208,-552.255,-0.764,-0.613,0.201,0.425,-0.423,-0.800,2376.92,-102.394,-142.568,-42.188,-0.237,0.641,0.730,-0.088,0.668,-0.739,1784.66,-193.485,-145.366,-25.515,-0.301,-0.015,0.953,0.838,0.161,-0.522,23.311,500.260,-53.450,214.718,0.013,0.189,-0.982,12.725,500.260,92.351,75.114,rock
6.614322,0.108,0.739,0.665,2639.52,64.234,531.665,-507.045,-0.554,-0.777,-0.299,-0.350,0.516,0.782,2975.01,-4.364,407.001,-515.214,-0.743,-0.661,0.105,0.354,-0.263,-0.898,2218.15,-133.280,-169.425,-49.462,-0.228,0.624,0.747,-0.168,0.702,-0.692,2386.70,-262.755,-142.456,-55.841,-0.325,-0.045,0.945,0.573,0.294,-0.765,18.156,500.260,-83.679,11.023,-0.392,0.418,-0.819,11.839,500.260,224.229,44.137,rock
6.614412,0.287,0.928,-0.238,1362.19,76.767,613.692,-453.666,-0.425,-0.833,-0.354,0.204,0.959,-0.198,1091.10,55.841,469.445,-481.195,-0.644,-0.760,0.087,0.108,-0.900,-0.422,1997.95,-86.503,-164.166,-64.346,-0.172,0.580,0.796,-0.179,0.822,-0.541,2239.96,-228.624,-111.794,-48.903,-0.333,-0.081,0.939,0.579,0.770,-0.269,14.550,500.260,20.580,61.450,0.421,0.643,-0.640,11.139,500.260,176.122,90.244,rock
6.614503,0.386,0.910,-0.153,1980.74,114.592,535.469,-368.058,-0.249,-0.898,-0.362,0.492,0.871,0.013,2249.85,73.970,411.590,-410.023,-0.540,-0.841,-0.026,0.207,-0.331,-0.921,3184.42,-110.787,-132.608,-2.574,-0.083,0.547,0.833,-0.143,0.698,-0.702,1920.50,-156.556,-98.477,-33.236,-0.342,-0.104,0.934,0.700,0.536,-0.471,10.877,500.260,136.107,0.550,0.536,0.415,-0.735,11.304,500.260,224.504,47.878,rock
6.614625,0.154,0.986,-0.065,1650.25,106.311,480.747,-314.679,-0.120,-0.950,-0.288,0.229,0.973,0.009,2132.68,77.886,369.961,-336.501,-0.408,-0.910,-0.078,0.257,-0.684,-0.682,2098.65,-141.113,-191.583,-14.883,-0.037,0.520,0.853,-0.240,0.571,-0.785,1881.64,-139.323,-108.996,-19.360,-0.344,-0.117,0.932,0.889,0.454,-0.060,8.936,500.260,164.458,48.275,0.700,0.569,-0.432,10.873,500.260,214.382,18.336,rock
6.614745,0.383,0.921,-0.075,1968.11,130.818,425.130,-262.979,0.010,-0.960,-0.280,0.410,0.910,0.063,1859.83,120.187,347.915,-315.798,-0.305,-0.948,-0.093,0.144,-0.694,-0.705,2323.71,-155.325,-140.330,16.898,0.011,0.421,0.907,-0.210,0.645,-0.735,2289.54,-172.111,-101.610,-4.364,-0.343,-0.136,0.930,0.855,0.287,-0.432,8.960,500.260,178.473,60.275,0.682,0.225,-0.696,9.664,500.260,203.038,-8.947,rock
6.614841,-0.232,0.969,0.086,2164.03,153.759,380.032,-206.019,0.121,-0.962,-0.243,-0.118,0.981,0.157,1936.65,118.620,320.722,-234.555,-0.201,-0.979,-0.035,0.143,-0.708,-0.692,1376.15,-137.644,-112.913,55.170,0.044,0.406,0.913,-0.181,0.688,-0.703,2602.14,-195.723,-92.658,-0.671,-0.362,-0.175,0.916,0.983,0.113,-0.142,8.760,422.886,125.496,15.206,0.883,0.172,-0.437,9.297,386.137,148.382,-54.046,rock
6.614930,-0.091,0.995,-0.041,2373.97,126.565,348.810,-137.532,0.172,-0.975,-0.141,-0.111,0.993,-0.031,2216.85,103.177,304.384,-164.725,-0.101,-0.994,-0.037,0.096,-0.465,-0.880,1739.64,-98.253,-55.505,65.577,0.084,0.370,0.925,-0.263,0.795,-0.547,2611.14,-167.747,-88.406,-9.512,-0.372,-0.205,0.905,0.997,0.079,-0.011,8.652,294.794,97.160,-32.656,0.919,0.120,-0.375,9.132,266.336,112.336,-76.702,rock
6.615025,0.078,0.957,-0.280,1996.23,108.772,289.836,-55.729,0.172,-0.983,-0.061,0.205,0.950,-0.237,1948.08,85.272,259.174,-72.067,-0.016,-0.999,0.052,0.054,-0.025,-0.998,2947.14,-100.380,-44.986,58.079,0.086,0.325,0.942,-0.408,0.831,-0.377,2379.06,-145.254,-59.198,-18.129,-0.383,-0.225,0.896,0.954,-0.274,0.121,8.964,279.985,80.397,-34.687,0.981,-0.141,-0.136,9.422,271.267,87.557,-70.153,rock
6.615121,-0.265,0.896,-0.355,2371.69,52.484,225.266,-105.415,0.122,-0.992,-0.024,0.020,0.974,-0.224,2401.73,71.284,238.471,-67.703,-0.026,-0.998,0.060,0.016,-0.318,-0.948,1893.81,-108.101,-66.024,52.036,0.117,0.288,0.951,-0.400,0.832,-0.384,2281.07,-157.675,-23.388,-21.374,-0.388,-0.258,0.885,0.984,-0.103,0.146,10.018,241.389,109.725,-32.153,0.980,0.043,-0.194,10.102,237.893,107.221,-59.008,rock
6.615213,-0.113,0.972,-0.204,2256.48,67.255,213.628,-114.032,0.162,-0.986,0.024,0.062,0.997,0.047,2504.59,31.110,176.587,-25.962,-0.028,-0.994,0.109,-0.133,-0.275,-0.952,1689.89,-104.296,-9.064,55.393,0.118,0.221,0.968,-0.185,0.922,-0.341,2601.64,-170.880,-1.231,-24.955,-0.389,-0.303,0.870,0.974,-0.225,-0.036,8.417,175.115,100.611,-24.870,0.930,-0.214,-0.298,9.175,181.130,87.557,-38.504,rock
6.615297,-0.382,0.893,-0.237,2108.01,41.629,169.425,-79.341,0.174,-0.983,0.052,-0.279,0.959,-0.046,1908.75,-6.043,138.763,-2.238,-0.028,-0.991,0.132,-0.253,-0.518,-0.817,1429.29,-76.544,45.434,68.598,0.124,0.196,0.973,-0.189,0.915,-0.356,2494.13,-136.077,7.274,-14.436,-0.386,-0.338,0.858,0.941,-0.337,0.039,8.659,158.962,67.466,-30.336,0.936,-0.287,-0.206,9.057,144.214,86.489,-44.779,rock
6.615381,-0.358,0.906,-0.226,2086.68,44.539,150.066,-70.389,0.160,-0.978,0.134,-0.517,0.855,-0.027,1463.58,-60.653,131.266,21.038,-0.063,-0.992,0.113,0.135,-0.596,-0.791,1388.65,-57.743,167.411,124.215,0.090,0.109,0.990,-0.312,0.886,-0.342,2075.99,-103.625,5.931,-9.848,-0.382,-0.366,0.848,0.935,-0.307,0.178,8.793,155.191,65.435,-3.985,0.976,-0.202,-0.077,8.883,144.336,83.359,-19.008,rock
6.615464,-0.258,0.883,-0.392,2051.99,42.524,178.826,-75.313,0.147,-0.981,0.127,-0.073,0.995,-0.067,2046.04,-17.457,175.916,2.686,-0.097,-0.993,0.074,0.203,0.190,-0.960,3330.56,-79.117,249.662,129.811,-0.044,0.054,0.998,-0.238,0.924,-0.301,1939.10,-106.087,17.569,7.050,-0.374,-0.395,0.839,0.931,-0.343,0.124,8.831,134.641,75.603,26.809,0.976,-0.193,-0.098,8.932,137.618,75.725,9.740,rock
6.615546,-0.278,0.901,-0.334,2230.31,47.112,145.589,-89.077,0.161,-0.971,0.176,-0.019,0.996,-0.083,2122.71,43.979,147.604,-52.260,-0.064,-0.995,0.075,0.148,0.006,-0.989,2657.27,-92.434,167.187,46.777,-0.117,0.028,0.993,-0.071,0.947,-0.313,2366.87,-113.584,23.724,22.717,-0.368,-0.431,0.824,0.976,-0.205,0.073,8.996,106.092,64.550,16.519,0.968,-0.188,-0.167,9.465,102.702,61.252,4.137,rock
6.615637,-0.332,0.884,-0.328,2183.69,54.834,99.708,-63.115,0.130,-0.964,0.231,-0.159,0.982,-0.097,2113.08,36.034,103.961,-29.543,-0.074,-0.994,0.079,0.239,-0.048,-0.970,2347.52,-63.227,125.558,41.853,-0.182,-0.032,0.983,-0.151,0.934,-0.323,2598.29,-92.322,8.729,16.562,-0.363,-0.457,0.812,0.967,-0.233,0.103,9.423,56.992,43.939,7.481,0.980,-0.168,-0.108,9.732,55.069,41.985,1.832,rock
6.615723,-0.246,0.889,-0.385,2315.18,28.872,57.967,-41.181,0.155,-0.959,0.237,-0.159,0.986,-0.052,2422.17,11.526,59.310,-19.024,-0.082,-0.991,0.101,0.257,0.065,-0.964,3397.52,-50.134,85.944,23.165,-0.237,-0.066,0.969,-0.156,0.939,-0.306,2513.20,-54.610,13.205,13.317,-0.361,-0.468,0.807,0.943,-0.257,0.213,10.638,24.885,28.947,4.779,0.984,-0.179,-0.008,10.969,20.092,31.450,2.229,rock
6.615805,-0.307,0.845,-0.438,2690.17,34.467,24.843,-25.962,0.161,-0.962,0.222,-0.131,0.983,-0.127,2789.60,37.041,30.550,-14.324,-0.079,-0.991,0.111,0.266,0.057,-0.962,3394.93,-72.403,-54.274,-64.793,-0.230,-0.064,0.971,-0.187,0.950,-0.250,2566.59,-46.665,24.060,9.176,-0.370,-0.475,0.798,0.952,-0.216,0.219,10.932,8.870,23.878,-3.466,0.988,-0.157,-0.000,11.212,-2.137,24.229,-9.069,rock
6.615889,-0.254,0.861,-0.441,2780.18,48.791,-9.960,4.141,0.178,-0.952,0.250,-0.024,0.975,-0.219,2549.78,66.920,4.364,-9.624,-0.084,-0.990,0.118,0.206,0.194,-0.959,2853.95,-90.644,-112.242,-104.744,-0.223,-0.091,0.971,-0.173,0.961,-0.216,2885.77,-36.034,27.193,9.848,-0.375,-0.475,0.796,0.961,-0.182,0.211,10.798,-26.641,8.336,-11.359,0.989,-0.151,-0.008,11.063,-36.336,16.076,-14.992,rock
6.623032,-0.279,0.782,-0.558,2672.74,18.912,-60.429,26.634,0.151,-0.954,0.260,-0.094,0.963,-0.252,2724.34,49.462,-39.055,3.805,-0.085,-0.987,0.133,0.201,0.179,-0.963,3706.70,-79.229,-171.664,-159.690,-0.176,-0.130,0.976,-0.195,0.962,-0.190,3012.06,-5.707,33.907,3.693,-0.390,-0.488,0.781,0.901,-0.343,0.267,10.887,-34.061,-18.107,-15.664,0.953,-0.283,0.104,11.002,-42.214,-15.878,-8.595,rock
6.648255,-0.390,0.721,-0.572,2690.30,-20.255,-99.484,2.238,0.178,-0.950,0.258,-0.451,0.870,-0.198,2723.12,60.317,-47.224,-40.174,-0.069,-0.980,0.188,0.047,0.328,-0.943,2109.21,-62.332,-199.752,-188.337,-0.048,-0.187,0.981,-0.214,0.968,-0.131,2661.92,20.143,37.377,2.126,-0.408,-0.473,0.781,0.932,-0.221,0.288,10.421,-27.557,-27.069,-21.527,0.981,-0.177,0.082,10.558,-38.565,-33.908,-11.863,rock
6.670565,-0.368,0.769,-0.523,2586.32,-62.220,-85.160,-5.931,0.207,-0.957,0.204,-0.222,0.898,-0.381,2573.43,26.634,-40.062,-8.169,-0.039,-0.993,0.115,-0.035,0.237,-0.971,2546.24,-35.810,-155.101,-183.414,0.027,-0.191,0.981,-0.179,0.976,-0.127,2731.93,36.705,42.524,-9.624,-0.417,-0.464,0.782,0.902,-0.345,0.261,11.206,-26.641,-34.504,-26.198,0.959,-0.275,0.071,11.377,-38.305,-45.542,-12.458,rock
