time,BNO0_UnitAccX,BNO0_UnitAccY,BNO0_UnitAccZ,BNO0_RawAccMag,BNO0_GyrX,BNO0_GyrY,BNO0_GyrZ,BNO0_MagX,BNO0_MagY,BNO0_MagZ,BNO1_UnitAccX,BNO1_UnitAccY,BNO1_UnitAccZ,BNO1_RawAccMag,BNO1_GyrX,BNO1_GyrY,BNO1_GyrZ,BNO1_MagX,BNO1_MagY,BNO1_MagZ,BNO2_UnitAccX,BNO2_UnitAccY,BNO2_UnitAccZ,BNO2_RawAccMag,BNO2_GyrX,BNO2_GyrY,BNO2_GyrZ,BNO2_MagX,BNO2_MagY,BNO2_MagZ,BNO3_UnitAccX,BNO3_UnitAccY,BNO3_UnitAccZ,BNO3_RawAccMag,BNO3_GyrX,BNO3_GyrY,BNO3_GyrZ,BNO3_MagX,BNO3_MagY,BNO3_MagZ,MPU0_UnitAccX,MPU0_UnitAccY,MPU0_UnitAccZ,MPU0_RawAccMag,MPU0_GyrX,MPU0_GyrY,MPU0_GyrZ,MPU1_UnitAccX,MPU1_UnitAccY,MPU1_UnitAccZ,MPU1_RawAccMag,MPU1_GyrX,MPU1_GyrY,MPU1_GyrZ,label
0.046125,0.653,-0.030,-0.757,2388.42,-69.158,43.643,-45.993,-0.880,0.197,0.432,0.853,-0.165,-0.495,2438.73,-55.058,19.584,-59.534,-0.960,0.188,0.209,-0.097,-0.867,-0.489,2475.18,-62.443,32.229,-10.519,-0.203,0.800,0.565,-0.346,-0.050,-0.937,2583.62,-114.256,55.617,29.655,0.391,-0.137,0.910,0.643,0.536,0.547,11.912,46.305,-65.237,-33.588,0.599,0.758,0.258,11.070,51.191,-61.588,-29.863,none
0.049335,0.700,0.037,-0.713,2575.72,-69.494,56.624,-31.446,-0.923,0.223,0.315,0.871,-0.080,-0.485,2466.40,-64.234,44.315,-29.096,-0.930,0.127,0.346,-0.118,-0.813,-0.570,2278.78,-45.658,47.896,-4.588,-0.248,0.806,0.537,-0.265,0.268,-0.926,2889.35,-111.122,54.386,39.167,0.335,-0.176,0.926,0.719,0.480,0.503,15.251,27.878,-43.588,-59.542,0.716,0.666,0.210,14.721,26.947,-55.237,-63.771,none
0.072718,0.600,0.212,-0.771,3448.50,2.350,56.401,4.588,-0.915,0.163,0.368,0.766,0.231,-0.600,3137.02,-66.360,64.905,6.267,-0.957,0.099,0.273,-0.029,-0.665,-0.746,2477.22,13.429,67.815,5.595,-0.280,0.798,0.533,-0.256,0.379,-0.889,2953.40,-48.903,30.215,31.110,0.284,-0.229,0.931,0.777,0.385,0.497,15.181,-10.916,27.130,-48.611,0.735,0.625,0.262,14.143,-15.969,13.893,-61.053,none
0.094743,0.519,0.349,-0.781,3534.61,-62.555,53.491,63.339,-0.928,0.207,0.309,0.787,0.095,-0.609,3089.69,-3.357,61.772,31.781,-0.972,0.139,0.188,0.017,-0.618,-0.786,2762.27,58.751,38.496,-0.224,-0.292,0.819,0.494,-0.328,0.278,-0.903,2755.14,35.586,14.660,7.945,0.287,-0.210,0.935,0.749,0.424,0.509,12.764,-21.664,54.641,-64.672,0.779,0.596,0.197,13.037,-32.794,40.565,-75.298,none
0.117333,0.620,0.058,-0.782,2799.35,58.974,43.643,57.631,-0.937,0.259,0.232,0.823,0.095,-0.560,2680.55,28.648,58.862,65.465,-0.956,0.146,0.254,-0.067,-0.796,-0.602,2403.35,85.720,21.038,-10.183,-0.306,0.841,0.446,-0.343,0.139,-0.929,2827.08,86.279,1.902,-12.869,0.299,-0.156,0.941,0.775,0.428,0.465,11.794,-23.313,63.191,-56.046,0.687,0.690,0.229,12.831,-38.366,43.038,-67.023,none
0.137817,0.660,0.183,-0.728,2925.93,40.958,41.517,62.891,-0.937,0.269,0.222,0.889,0.092,-0.448,3417.67,27.193,63.227,58.303,-0.963,0.237,0.130,-0.007,-0.758,-0.652,3270.53,88.741,40.062,-18.353,-0.298,0.858,0.419,-0.184,0.167,-0.969,2934.05,75.872,-7.945,-15.555,0.320,-0.081,0.944,0.825,0.400,0.399,15.619,-15.588,47.344,-22.855,0.777,0.615,0.132,17.152,-47.679,57.527,-24.076,none
0.158149,0.651,0.243,-0.719,4425.62,96.799,13.541,47.672,-0.943,0.305,0.133,0.829,0.221,-0.514,4483.60,24.507,35.698,43.308,-0.963,0.271,0.016,0.035,-0.780,-0.625,3849.36,91.875,29.096,3.469,-0.362,0.881,0.306,-0.166,0.121,-0.979,3074.79,107.877,-44.091,-25.626,0.373,-0.069,0.925,0.755,0.481,0.446,14.588,-20.519,80.489,32.534,0.665,0.720,0.197,14.336,-55.786,68.687,11.695,none
0.182318,0.682,0.262,-0.683,3321.71,95.679,-42.300,30.886,-0.913,0.339,0.227,0.876,-0.013,-0.482,3883.84,74.194,-10.072,51.589,-0.952,0.296,0.080,0.016,-0.735,-0.678,4014.53,86.056,-3.805,64.458,-0.312,0.882,0.354,-0.255,0.029,-0.967,3083.88,86.839,-60.205,-31.446,0.366,0.024,0.930,0.659,0.530,0.533,12.284,-22.702,79.618,36.687,0.608,0.753,0.251,11.205,-58.687,75.527,13.893,none
0.204077,0.756,0.068,-0.651,2400.03,90.308,-27.529,28.536,-0.894,0.373,0.246,0.906,-0.083,-0.415,2480.48,54.834,-33.796,66.136,-0.949,0.314,0.035,0.015,-0.773,-0.634,3007.39,65.465,-47.672,89.189,-0.299,0.912,0.282,-0.312,-0.093,-0.945,2736.22,68.151,-63.786,-27.976,0.366,0.129,0.922,0.570,0.534,0.624,8.839,-26.366,64.733,41.313,0.574,0.753,0.322,8.561,-46.656,52.351,14.229,none
0.227793,0.707,-0.161,-0.689,2026.42,76.208,-18.688,16.003,-0.906,0.389,0.166,0.880,-0.174,-0.442,2151.22,38.608,-29.096,47.448,-0.933,0.352,0.069,-0.048,-0.884,-0.465,2329.10,34.803,-45.210,77.663,-0.247,0.939,0.241,-0.413,-0.128,-0.901,2445.06,4.141,-53.155,-20.367,0.374,0.153,0.915,0.647,0.452,0.614,7.300,-11.939,22.916,35.435,0.624,0.704,0.339,7.083,-16.534,21.008,16.824,none
0.246744,0.641,-0.118,-0.759,1942.97,20.143,-10.855,-7.945,-0.882,0.429,0.196,0.863,-0.245,-0.441,2202.74,7.722,-28.536,15.891,-0.926,0.370,0.078,-0.096,-0.835,-0.541,2290.22,6.714,-20.479,62.220,-0.269,0.932,0.244,-0.447,-0.066,-0.892,2217.24,-16.003,-41.741,-3.021,0.365,0.130,0.922,0.687,0.354,0.635,8.292,11.176,6.992,35.466,0.701,0.627,0.339,7.956,-1.328,2.702,20.794,none
0.270099,0.613,0.076,-0.787,1888.02,-13.317,-20.703,-18.017,-0.878,0.452,0.157,0.836,0.034,-0.547,2005.63,-3.805,-30.886,-3.245,-0.918,0.369,0.146,-0.110,-0.827,-0.551,2180.35,-8.729,-21.150,53.379,-0.249,0.938,0.240,-0.467,-0.123,-0.876,1912.67,-17.905,-35.474,-1.790,0.354,0.060,0.933,0.700,0.290,0.652,7.553,17.252,0.046,58.824,0.766,0.576,0.286,7.245,13.099,-0.840,46.015,none
0.291990,0.611,0.083,-0.788,1847.38,3.693,-19.807,-56.065,-0.875,0.427,0.226,0.838,-0.015,-0.545,1979.25,5.595,-39.055,-32.900,-0.928,0.355,0.113,-0.136,-0.838,-0.528,2197.66,-45.658,-27.976,44.315,-0.202,0.942,0.269,-0.504,-0.153,-0.850,1925.04,-25.738,-41.069,1.679,0.335,0.090,0.938,0.700,0.296,0.650,5.345,36.351,-23.573,73.466,0.734,0.596,0.325,5.465,40.305,-20.855,61.939,none
0.314515,0.581,-0.162,-0.798,1417.95,-13.653,-15.891,-84.713,-0.892,0.339,0.299,0.798,-0.238,-0.553,1647.85,-0.224,-46.329,-61.436,-0.928,0.324,0.184,-0.149,-0.786,-0.600,1935.02,-75.089,-28.872,40.510,-0.163,0.926,0.340,-0.539,-0.052,-0.841,1874.97,-60.765,-20.367,9.400,0.299,0.045,0.953,0.650,0.310,0.694,5.138,71.084,-64.840,75.176,0.787,0.550,0.280,5.350,63.924,-50.366,70.992,none
0.336276,0.547,-0.092,-0.832,1417.81,-48.120,-18.241,-102.058,-0.907,0.343,0.244,0.811,-0.127,-0.571,1475.95,-31.669,-49.350,-103.065,-0.928,0.320,0.191,-0.134,-0.772,-0.621,1789.86,-111.122,-26.745,12.645,-0.159,0.902,0.401,-0.511,-0.185,-0.840,2017.34,-112.801,14.772,19.472,0.217,-0.016,0.976,0.755,0.319,0.573,6.026,86.031,-106.962,64.702,0.787,0.591,0.178,5.737,88.504,-69.557,74.519,none
0.360034,0.599,0.105,-0.794,1376.36,-66.920,-13.317,-117.949,-0.912,0.303,0.277,0.817,-0.014,-0.577,1513.36,-39.391,-40.510,-123.096,-0.938,0.184,0.294,-0.080,-0.770,-0.634,1771.03,-134.287,-24.507,-11.638,-0.113,0.897,0.427,-0.477,0.020,-0.879,1996.08,-168.978,40.622,16.786,0.130,-0.099,0.987,0.775,0.464,0.429,8.192,111.664,-107.008,52.000,0.753,0.658,-0.019,7.272,117.145,-79.802,59.069,none
0.382593,0.686,0.325,-0.651,1617.21,-92.658,14.772,-133.056,-0.906,0.110,0.408,0.873,0.164,-0.459,1729.34,-40.846,-22.045,-132.608,-0.951,0.135,0.278,-0.095,-0.787,-0.609,1681.41,-142.120,-21.822,-50.358,-0.092,0.815,0.572,-0.282,0.077,-0.956,2049.75,-128.916,131.154,29.207,0.119,-0.133,0.984,0.823,0.477,0.308,9.396,131.328,-104.611,38.580,0.746,0.642,-0.176,8.606,149.252,-78.321,33.527,none
0.402848,0.635,0.519,-0.572,1806.25,-113.584,41.965,-144.359,-0.928,0.106,0.356,0.804,0.307,-0.509,2330.98,-43.308,-2.798,-135.854,-0.939,0.112,0.325,0.060,-0.578,-0.814,2391.96,-131.042,-16.450,-63.451,-0.101,0.826,0.554,-0.374,0.413,-0.830,2492.04,-158.123,1.679,6.379,0.074,-0.233,0.970,0.879,0.440,0.182,10.380,151.557,-98.290,35.359,0.777,0.613,-0.142,11.052,179.069,-67.344,19.832,none
0.424672,0.581,0.607,-0.543,2499.02,-115.375,70.724,-164.725,-0.933,0.012,0.361,0.792,0.326,-0.516,2736.39,-39.279,-1.455,-139.994,-0.928,-0.009,0.371,-0.012,-0.593,-0.805,2660.70,-128.580,-29.431,-80.236,-0.061,0.762,0.644,-0.189,0.298,-0.936,2335.38,-89.077,45.434,5.931,0.080,-0.270,0.960,0.868,0.456,0.198,11.293,164.366,-119.603,39.038,0.736,0.673,0.072,13.937,167.252,-55.618,34.183,none
0.448289,0.644,0.299,-0.705,3762.61,-95.120,70.613,-169.090,-0.927,-0.101,0.360,0.796,0.170,-0.581,3561.01,-24.843,-32.676,-132.496,-0.905,-0.063,0.422,-0.066,-0.619,-0.783,3025.75,-133.727,-34.243,-73.410,-0.021,0.710,0.703,-0.241,0.346,-0.907,2692.03,-127.013,37.824,-2.350,0.100,-0.296,0.950,0.814,0.458,0.358,15.220,143.511,-101.511,52.718,0.713,0.678,0.178,16.893,107.695,-52.244,69.435,none
0.469131,0.640,0.232,-0.733,4339.02,-70.501,10.743,-138.428,-0.857,-0.279,0.434,0.800,0.039,-0.599,4761.60,8.281,-93.218,-76.879,-0.857,-0.137,0.496,-0.062,-0.572,-0.818,2916.21,-136.525,-54.051,-61.212,0.012,0.693,0.721,-0.200,0.363,-0.910,2942.11,-140.330,40.622,-14.660,0.124,-0.355,0.926,0.748,0.521,0.411,17.634,82.397,-58.687,56.611,0.660,0.729,0.180,16.687,41.756,-31.115,81.221,none
0.492157,0.678,0.261,-0.687,3700.94,-22.381,-54.946,-70.277,-0.785,-0.320,0.530,0.820,0.077,-0.568,3421.03,34.915,-135.294,-12.533,-0.808,-0.187,0.559,-0.218,-0.697,-0.683,3121.35,-79.453,-53.603,-48.343,0.013,0.653,0.757,-0.268,0.398,-0.877,3374.40,-110.003,20.814,-18.688,0.135,-0.393,0.909,0.716,0.543,0.440,16.275,15.878,-30.275,52.550,0.659,0.724,0.202,16.254,-9.298,-23.695,74.000,none
0.514266,0.666,0.152,-0.730,4180.79,-12.422,-74.082,-35.698,-0.792,-0.389,0.471,0.788,-0.086,-0.609,4105.30,29.767,-139.770,17.122,-0.816,-0.139,0.561,-0.228,-0.689,-0.688,3584.63,-59.198,-44.091,-27.417,-0.015,0.628,0.778,-0.288,0.341,-0.895,3481.44,-44.986,13.317,-10.183,0.160,-0.437,0.885,0.773,0.506,0.382,15.470,-34.519,-51.099,46.061,0.689,0.706,0.162,15.854,-53.115,-37.450,80.260,none
0.537449,0.631,0.272,-0.726,3839.10,-25.962,-111.122,0.000,-0.755,-0.396,0.522,0.781,-0.024,-0.624,3754.85,-8.617,-168.530,63.786,-0.778,-0.155,0.609,-0.217,-0.645,-0.732,3996.06,-42.188,-39.838,-1.455,0.050,0.626,0.778,-0.310,0.318,-0.896,3634.01,-4.924,-24.060,16.003,0.163,-0.425,0.891,0.872,0.396,0.289,15.547,-57.405,-54.794,56.977,0.800,0.599,0.044,14.936,-65.740,-49.008,86.656,none
0.560060,0.550,0.429,-0.717,3533.22,-50.805,-129.475,7.050,-0.732,-0.406,0.546,0.679,0.128,-0.723,2832.54,-37.265,-148.723,49.686,-0.727,-0.150,0.670,-0.247,-0.657,-0.712,3941.63,-44.091,-39.615,26.634,0.049,0.609,0.792,-0.335,0.375,-0.864,3686.59,-32.900,-44.091,24.172,0.177,-0.417,0.892,0.914,0.344,0.213,15.379,-48.519,-34.092,45.847,0.835,0.550,-0.017,14.353,-61.176,-34.458,62.443,none
0.581969,0.432,0.575,-0.695,3065.05,-40.398,-93.329,20.591,-0.692,-0.428,0.581,0.527,0.313,-0.790,2942.17,-56.512,-109.444,55.841,-0.698,-0.179,0.694,-0.279,-0.539,-0.795,3002.71,-3.133,-40.286,83.482,0.066,0.582,0.811,-0.343,0.495,-0.798,3463.94,-27.753,-68.151,20.814,0.197,-0.469,0.861,0.873,0.372,0.315,15.005,-51.863,15.511,22.763,0.854,0.519,0.031,14.052,-69.405,4.809,19.282,none
0.603952,0.354,0.624,-0.696,3073.42,12.198,-50.246,41.517,-0.721,-0.415,0.554,0.406,0.452,-0.795,2951.05,-26.634,-71.508,76.655,-0.731,-0.174,0.659,-0.341,-0.436,-0.833,2136.13,43.755,-32.117,81.691,0.057,0.637,0.769,-0.407,0.461,-0.788,3083.73,33.907,-81.579,9.736,0.230,-0.462,0.856,0.921,0.298,0.251,12.401,-67.053,52.748,3.939,0.880,0.474,0.025,12.247,-83.130,34.504,-4.214,none
0.626979,0.357,0.511,-0.782,2663.25,54.610,-21.486,50.470,-0.759,-0.372,0.534,0.339,0.424,-0.840,2313.41,43.979,-21.374,74.529,-0.721,-0.123,0.682,-0.317,-0.477,-0.820,2301.70,74.305,-7.498,57.855,0.067,0.606,0.792,-0.439,0.459,-0.773,2906.06,96.351,-75.536,-0.224,0.235,-0.431,0.871,0.931,0.264,0.254,10.757,-60.321,68.702,-13.328,0.904,0.428,-0.009,10.518,-81.527,44.198,-22.412,none
0.647715,0.330,0.518,-0.789,2377.36,62.443,-12.310,62.108,-0.762,-0.375,0.527,0.392,0.283,-0.875,2003.84,44.427,11.862,61.101,-0.713,-0.095,0.695,-0.276,-0.529,-0.802,2389.71,86.951,7.610,43.867,0.086,0.668,0.739,-0.484,0.323,-0.814,2554.36,119.627,-71.844,-3.693,0.278,-0.416,0.866,0.901,0.280,0.332,10.043,-56.122,79.084,-24.031,0.880,0.474,0.037,9.365,-71.496,50.794,-34.824,none
0.669260,0.378,0.464,-0.801,2022.24,71.508,-1.790,63.451,-0.817,-0.235,0.526,0.497,0.094,-0.862,1854.05,45.769,38.943,47.896,-0.724,-0.070,0.686,-0.283,-0.584,-0.761,2365.42,85.048,18.241,34.467,0.065,0.681,0.729,-0.495,0.276,-0.824,2379.60,108.996,-71.172,-8.281,0.341,-0.393,0.854,0.848,0.359,0.391,9.175,-55.374,82.580,-36.519,0.824,0.549,0.137,9.048,-65.573,52.290,-52.046,none
0.693541,0.474,0.307,-0.825,1904.47,66.920,18.241,65.689,-0.802,-0.233,0.550,0.562,-0.038,-0.827,1852.15,45.769,60.989,47.672,-0.770,0.017,0.638,-0.333,-0.636,-0.696,1924.69,90.532,14.100,29.655,-0.008,0.712,0.702,-0.477,0.278,-0.834,2326.39,88.965,-57.408,-11.191,0.373,-0.350,0.859,0.832,0.357,0.426,10.181,-52.748,79.130,-54.229,0.790,0.586,0.183,9.618,-68.947,51.618,-69.588,none
0.712255,0.529,0.206,-0.823,2316.73,61.212,32.900,85.048,-0.812,-0.137,0.567,0.630,-0.087,-0.772,2273.64,39.727,75.536,60.317,-0.791,0.078,0.607,-0.336,-0.657,-0.675,1938.49,104.968,25.403,22.045,-0.002,0.731,0.682,-0.542,0.216,-0.812,2316.40,85.720,-46.889,-14.660,0.425,-0.326,0.844,0.819,0.320,0.477,10.289,-57.359,92.473,-58.687,0.824,0.524,0.217,10.014,-72.611,57.725,-77.771,none
0.735526,0.460,0.262,-0.848,2384.85,65.465,29.431,92.882,-0.884,-0.041,0.465,0.604,-0.027,-0.797,2549.80,44.539,74.194,75.201,-0.870,0.145,0.472,-0.346,-0.699,-0.625,2329.13,116.494,21.150,17.569,0.014,0.798,0.602,-0.577,0.176,-0.797,2226.10,104.408,-33.012,-19.919,0.436,-0.284,0.854,0.846,0.245,0.473,9.432,-64.977,85.863,-51.679,0.831,0.505,0.235,9.718,-76.198,52.840,-65.267,none
0.755880,0.498,0.155,-0.853,2440.70,62.555,18.800,86.167,-0.915,0.085,0.395,0.640,-0.158,-0.752,2684.66,47.560,46.105,75.872,-0.866,0.196,0.460,-0.303,-0.690,-0.658,2571.35,105.863,24.619,18.912,-0.090,0.847,0.524,-0.568,0.159,-0.808,2160.03,105.415,-36.481,-12.645,0.436,-0.226,0.871,0.900,0.182,0.395,8.541,-55.053,68.000,-37.115,0.864,0.470,0.181,9.070,-68.870,38.412,-45.878,none
0.778572,0.469,0.274,-0.840,2175.40,44.091,0.336,78.334,-0.909,0.104,0.403,0.645,-0.065,-0.762,2586.76,30.662,19.136,71.172,-0.872,0.256,0.418,-0.274,-0.670,-0.690,2663.15,88.965,17.122,26.074,-0.045,0.841,0.538,-0.572,0.066,-0.817,2073.83,84.601,-25.515,-8.505,0.467,-0.172,0.867,0.853,0.200,0.482,7.979,-38.534,52.198,-23.725,0.858,0.471,0.207,8.196,-56.656,28.382,-30.137,none
0.799052,0.457,0.255,-0.852,1949.77,43.196,-5.148,59.646,-0.908,0.154,0.390,0.601,-0.040,-0.798,1990.97,25.403,0.000,59.198,-0.851,0.283,0.442,-0.280,-0.687,-0.671,2183.93,64.682,-0.671,34.467,-0.025,0.864,0.503,-0.599,0.038,-0.800,2046.69,47.560,-31.669,-6.714,0.487,-0.135,0.863,0.827,0.233,0.511,7.440,-28.198,35.389,-12.305,0.839,0.501,0.212,7.385,-41.740,16.763,-16.931,none
0.821867,0.498,0.146,-0.855,1791.87,25.515,-3.469,32.341,-0.892,0.180,0.415,0.628,-0.135,-0.767,1751.33,16.450,1.902,36.817,-0.855,0.315,0.412,-0.293,-0.692,-0.660,2057.06,29.991,-1.455,25.626,0.002,0.871,0.492,-0.607,0.059,-0.793,1843.46,23.836,-23.948,-0.671,0.479,-0.130,0.868,0.807,0.225,0.546,6.675,-17.405,16.901,-5.206,0.831,0.500,0.245,6.952,-28.641,2.321,-6.748,none
0.844249,0.495,0.132,-0.859,1602.73,5.819,-9.848,19.807,-0.889,0.208,0.407,0.616,-0.121,-0.778,1625.13,3.581,-0.112,20.926,-0.869,0.353,0.346,-0.261,-0.715,-0.649,1851.93,10.967,-1.231,20.255,-0.030,0.886,0.463,-0.593,0.031,-0.805,1886.79,9.848,-17.122,3.693,0.503,-0.137,0.853,0.779,0.362,0.512,7.263,-10.015,1.160,-9.435,0.767,0.607,0.208,6.914,-22.015,-8.046,-5.878,none
0.863545,0.586,0.191,-0.787,1673.10,-2.910,-4.252,17.793,-0.923,0.243,0.300,0.676,-0.149,-0.722,1656.23,-0.560,4.029,14.548,-0.863,0.349,0.366,-0.323,-0.730,-0.602,1651.83,2.350,8.952,12.198,-0.072,0.883,0.464,-0.504,0.189,-0.843,1869.69,-4.812,-6.379,5.819,0.483,-0.143,0.864,0.821,0.367,0.437,7.522,-10.687,-12.336,-6.275,0.798,0.592,0.111,7.565,-17.496,-20.260,-2.672,none
0.886165,0.576,0.291,-0.764,1840.00,-13.876,-4.588,11.638,-0.911,0.257,0.322,0.712,0.035,-0.702,1957.09,-17.233,4.476,8.952,-0.861,0.328,0.389,-0.178,-0.648,-0.741,2058.27,-5.371,22.717,9.288,-0.055,0.902,0.429,-0.443,0.206,-0.873,1661.88,-13.317,-0.560,18.017,0.504,-0.151,0.851,0.910,0.276,0.309,6.846,-5.405,-21.969,9.740,0.865,0.501,-0.019,7.345,-11.145,-27.588,14.840,none
0.909794,0.532,0.457,-0.713,1752.21,-21.038,-16.338,-0.224,-0.911,0.231,0.341,0.706,0.163,-0.689,1793.42,-23.948,-16.450,-9.512,-0.858,0.322,0.400,-0.174,-0.620,-0.765,1992.04,-18.464,14.660,18.241,-0.131,0.891,0.435,-0.439,0.244,-0.865,1608.85,-21.934,-1.679,22.493,0.493,-0.155,0.856,0.928,0.273,0.253,5.900,5.542,-38.672,24.183,0.869,0.484,-0.098,6.123,4.626,-40.153,31.832,none
0.938943,0.524,0.381,-0.762,1328.38,-41.181,-21.598,-29.207,-0.902,0.174,0.395,0.654,0.150,-0.741,1364.40,-38.384,-21.934,-28.424,-0.865,0.299,0.404,-0.182,-0.523,-0.833,1687.90,-51.253,11.414,25.179,-0.096,0.876,0.473,-0.473,0.300,-0.828,1597.58,-35.250,-0.560,30.438,0.468,-0.192,0.863,0.918,0.270,0.292,5.907,21.756,-57.084,24.626,0.889,0.451,-0.076,6.076,22.580,-54.076,34.366,none
0.964339,0.439,0.481,-0.759,1296.69,-51.924,-8.841,-44.986,-0.890,0.127,0.438,0.600,0.180,-0.780,1357.80,-52.260,-14.324,-50.246,-0.862,0.245,0.443,-0.273,-0.576,-0.771,1379.05,-68.486,15.331,10.072,-0.118,0.836,0.536,-0.499,0.346,-0.795,1614.50,-46.553,11.302,37.153,0.446,-0.228,0.865,0.904,0.321,0.283,5.966,33.924,-70.824,16.214,0.856,0.514,-0.049,6.222,34.489,-65.740,29.664,none
0.986194,0.490,0.428,-0.760,1321.31,-62.332,-1.790,-48.567,-0.891,0.080,0.447,0.618,0.165,-0.769,1302.40,-60.429,-3.245,-57.408,-0.893,0.298,0.338,-0.243,-0.533,-0.810,1507.05,-72.179,30.326,0.112,-0.083,0.844,0.530,-0.485,0.334,-0.808,1759.06,-54.722,29.319,42.636,0.402,-0.247,0.882,0.873,0.368,0.321,7.616,40.626,-75.771,2.809,0.832,0.553,-0.039,7.408,39.771,-71.863,16.198,none
1.008298,0.490,0.487,-0.723,1661.65,-70.277,8.841,-44.091,-0.900,0.086,0.428,0.605,0.299,-0.738,1671.49,-66.248,14.883,-56.512,-0.857,0.132,0.498,-0.225,-0.524,-0.822,1629.26,-68.374,41.293,-11.079,-0.120,0.811,0.573,-0.434,0.370,-0.822,2148.09,-56.624,42.412,41.405,0.375,-0.286,0.882,0.912,0.290,0.289,9.538,44.611,-70.473,-2.046,0.877,0.477,-0.051,9.338,49.267,-68.336,5.679,none
1.029443,0.425,0.549,-0.720,2263.40,-72.851,22.941,-43.979,-0.890,-0.019,0.456,0.615,0.295,-0.731,2186.42,-63.339,25.515,-64.570,-0.875,0.101,0.474,-0.178,-0.537,-0.825,2229.16,-61.548,48.120,-22.829,-0.115,0.788,0.605,-0.452,0.311,-0.836,2238.51,-50.022,46.329,38.608,0.344,-0.304,0.888,0.942,0.227,0.247,9.505,51.420,-69.374,5.695,0.890,0.455,-0.019,10.195,59.084,-64.534,13.588,none
1.051770,0.449,0.471,-0.759,2510.92,-65.241,22.493,-64.010,-0.910,-0.019,0.415,0.622,0.203,-0.756,2604.21,-57.520,11.974,-73.298,-0.866,0.083,0.492,-0.168,-0.541,-0.824,2646.23,-71.844,42.188,-28.088,-0.136,0.754,0.643,-0.468,0.289,-0.835,2476.77,-66.024,54.274,30.998,0.294,-0.316,0.902,0.918,0.281,0.279,10.518,65.511,-78.947,13.786,0.868,0.496,-0.001,10.707,71.924,-69.710,23.786,none
1.072969,0.472,0.455,-0.755,2536.37,-72.739,19.248,-75.536,-0.910,-0.120,0.398,0.635,0.188,-0.750,2551.50,-56.401,3.917,-82.922,-0.860,0.006,0.510,-0.199,-0.566,-0.800,2825.17,-86.839,41.293,-34.019,-0.177,0.744,0.645,-0.450,0.284,-0.847,2661.46,-81.244,59.982,29.207,0.287,-0.322,0.902,0.919,0.285,0.272,10.846,69.786,-91.374,25.802,0.864,0.504,0.001,11.306,83.099,-79.939,35.405,none
1.096044,0.495,0.420,-0.760,2791.33,-84.601,14.660,-88.629,-0.855,-0.206,0.477,0.651,0.163,-0.741,2816.90,-66.360,2.014,-99.484,-0.854,-0.019,0.519,-0.206,-0.585,-0.785,2967.79,-103.065,42.524,-33.684,-0.079,0.694,0.716,-0.439,0.324,-0.838,2748.88,-94.784,63.227,35.138,0.249,-0.335,0.909,0.935,0.270,0.231,11.709,79.511,-103.863,33.557,0.871,0.491,-0.025,11.954,93.603,-88.458,43.374,none
1.118084,0.449,0.482,-0.753,2842.43,-94.449,9.512,-96.575,-0.873,-0.259,0.414,0.587,0.250,-0.770,2854.88,-77.215,-4.141,-108.549,-0.797,-0.152,0.584,-0.194,-0.525,-0.828,2799.37,-111.570,42.636,-26.857,-0.185,0.688,0.702,-0.450,0.320,-0.834,3223.22,-96.015,69.270,31.669,0.208,-0.383,0.900,0.921,0.308,0.239,13.166,95.450,-100.458,22.870,0.863,0.505,-0.030,13.099,106.000,-87.115,31.420,none
1.141548,0.439,0.503,-0.745,3151.72,-92.434,19.136,-94.560,-0.813,-0.309,0.493,0.591,0.267,-0.761,3154.85,-66.584,9.512,-104.408,-0.822,-0.196,0.535,-0.200,-0.475,-0.857,2910.96,-100.939,48.567,-51.141,-0.137,0.630,0.765,-0.390,0.396,-0.831,3467.62,-103.849,88.070,18.576,0.154,-0.379,0.913,0.906,0.347,0.243,15.417,105.527,-76.000,-2.382,0.829,0.559,-0.001,15.160,103.740,-69.313,-0.061,none
1.162447,0.470,0.507,-0.722,3588.94,-70.836,38.272,-62.891,-0.774,-0.452,0.443,0.603,0.315,-0.733,3515.92,-51.253,24.843,-77.998,-0.789,-0.272,0.551,-0.161,-0.471,-0.867,3125.12,-62.891,37.265,-49.686,-0.121,0.590,0.799,-0.344,0.455,-0.821,3509.47,-118.956,85.720,1.567,0.142,-0.375,0.916,0.874,0.382,0.299,16.375,93.053,-35.282,-15.023,0.817,0.575,0.047,16.752,75.756,-35.466,-17.924,none
1.185752,0.491,0.515,-0.703,3896.91,-35.138,36.369,-35.698,-0.767,-0.454,0.454,0.617,0.344,-0.708,3642.56,-22.941,31.781,-49.574,-0.791,-0.237,0.564,-0.135,-0.493,-0.860,3222.40,-27.417,24.060,-47.224,-0.143,0.579,0.803,-0.282,0.490,-0.825,3340.72,-41.629,54.386,-12.533,0.130,-0.425,0.896,0.868,0.406,0.285,15.392,48.870,-7.099,-9.969,0.803,0.596,0.002,15.317,34.611,-5.939,-12.382,none
1.208053,0.546,0.505,-0.668,3392.90,-4.476,22.829,-19.136,-0.783,-0.463,0.417,0.694,0.257,-0.673,3437.44,9.736,26.522,-27.193,-0.749,-0.291,0.595,-0.110,-0.513,-0.851,3517.59,-10.295,17.122,-37.041,-0.150,0.571,0.807,-0.253,0.462,-0.850,3137.67,-2.126,23.388,-8.952,0.108,-0.423,0.900,0.893,0.402,0.201,12.996,27.038,4.885,-2.031,0.801,0.595,-0.068,13.197,17.252,-0.275,-8.153,none
1.227891,0.551,0.506,-0.663,3094.77,3.805,19.136,-12.422,-0.780,-0.483,0.398,0.705,0.242,-0.667,3160.20,4.252,13.764,-14.883,-0.749,-0.283,0.598,-0.101,-0.519,-0.849,3229.06,-4.700,-2.686,-12.869,-0.121,0.560,0.820,-0.248,0.422,-0.872,2810.21,11.638,5.819,-3.581,0.102,-0.420,0.902,0.908,0.386,0.163,11.424,20.122,3.878,6.489,0.809,0.576,-0.117,11.793,10.763,-3.847,0.733,none
1.251851,0.549,0.506,-0.665,2821.65,6.491,11.079,-10.631,-0.785,-0.438,0.438,0.706,0.250,-0.663,2737.94,0.000,0.336,-13.876,-0.749,-0.291,0.595,-0.127,-0.529,-0.839,2740.66,-13.093,-8.952,8.505,-0.121,0.561,0.819,-0.262,0.441,-0.858,2511.77,-3.581,-2.350,1.790,0.102,-0.426,0.899,0.918,0.366,0.151,9.942,15.969,-1.771,16.412,0.820,0.557,-0.128,10.332,6.473,-13.145,11.847,none
1.273033,0.514,0.529,-0.675,2327.97,-6.826,-5.819,-14.436,-0.753,-0.470,0.461,0.650,0.314,-0.692,2279.18,-11.974,-10.183,-14.883,-0.801,-0.253,0.542,-0.128,-0.473,-0.872,2468.50,-20.143,-6.267,22.829,-0.119,0.541,0.832,-0.292,0.462,-0.837,2353.00,-19.472,-5.819,8.952,0.118,-0.432,0.894,0.928,0.332,0.167,8.928,10.305,-10.046,18.931,0.856,0.487,-0.173,9.292,6.229,-20.656,15.237,none
1.295492,0.435,0.595,-0.676,2052.49,-19.248,-8.281,-17.122,-0.738,-0.474,0.480,0.594,0.354,-0.722,2130.68,-19.472,-12.086,-17.569,-0.774,-0.275,0.570,-0.170,-0.392,-0.904,2098.25,-26.522,-4.588,23.276,-0.130,0.576,0.807,-0.342,0.493,-0.800,2266.61,-27.193,-2.238,16.898,0.125,-0.431,0.894,0.963,0.253,0.096,8.586,12.153,-20.122,14.000,0.874,0.456,-0.166,9.112,10.595,-30.794,14.733,none
1.318654,0.409,0.570,-0.713,2110.45,-32.229,-6.043,-21.150,-0.734,-0.522,0.433,0.559,0.350,-0.752,2072.19,-29.431,-7.945,-22.157,-0.745,-0.326,0.583,-0.188,-0.338,-0.922,2056.27,-31.893,6.043,14.660,-0.131,0.570,0.811,-0.348,0.543,-0.764,2310.47,-19.695,2.574,20.926,0.106,-0.437,0.893,0.954,0.264,0.139,9.121,19.237,-24.351,3.603,0.883,0.437,-0.169,9.536,8.611,-35.237,8.626,none
1.341078,0.365,0.629,-0.687,2147.05,-36.034,-5.260,-15.555,-0.768,-0.494,0.408,0.503,0.425,-0.752,2165.13,-30.438,-2.126,-16.674,-0.746,-0.320,0.584,-0.173,-0.291,-0.941,2120.06,-28.872,14.660,7.386,-0.128,0.531,0.838,-0.364,0.533,-0.764,2426.47,-17.010,11.414,19.695,0.082,-0.440,0.894,0.939,0.278,0.200,9.890,15.481,-21.145,-7.282,0.889,0.431,-0.157,10.033,6.947,-30.763,-2.275,none
1.363872,0.350,0.643,-0.681,2295.85,-27.417,6.155,-6.379,-0.726,-0.511,0.459,0.500,0.434,-0.749,2276.75,-23.612,6.826,-12.086,-0.718,-0.359,0.597,-0.165,-0.319,-0.933,2274.67,-18.129,15.667,-8.952,-0.119,0.500,0.858,-0.357,0.533,-0.767,2503.45,-12.198,20.703,15.107,0.096,-0.451,0.888,0.954,0.269,0.132,9.933,8.672,-20.336,-15.206,0.878,0.444,-0.176,10.350,6.916,-27.908,-10.137,none
1.386439,0.398,0.610,-0.685,2438.49,-22.829,12.981,-3.357,-0.735,-0.539,0.412,0.560,0.378,-0.737,2434.58,-19.807,16.114,-11.638,-0.728,-0.378,0.572,-0.154,-0.371,-0.916,2510.21,-14.883,19.919,-19.584,-0.142,0.517,0.844,-0.334,0.518,-0.788,2613.06,-4.924,31.110,13.653,0.072,-0.445,0.893,0.966,0.246,0.077,10.542,16.763,-26.244,-18.382,0.875,0.450,-0.178,11.088,10.626,-34.534,-10.137,none
1.408608,0.398,0.621,-0.675,2632.80,-29.096,13.988,-4.252,-0.770,-0.500,0.396,0.581,0.389,-0.715,2769.72,-25.179,14.100,-14.772,-0.756,-0.330,0.565,-0.108,-0.368,-0.923,2766.80,-18.464,25.515,-25.291,-0.167,0.518,0.839,-0.296,0.503,-0.812,2654.08,-3.357,36.034,13.317,0.068,-0.448,0.891,0.930,0.309,0.198,11.734,14.458,-23.344,-14.534,0.867,0.489,-0.097,12.508,4.672,-35.802,0.931,none
1.431134,0.468,0.513,-0.719,3223.91,-26.634,5.148,-5.260,-0.703,-0.550,0.451,0.642,0.276,-0.715,3438.74,-19.584,-10.407,-11.638,-0.718,-0.374,0.587,-0.042,-0.308,-0.951,3121.50,-35.027,-2.238,-36.146,-0.156,0.507,0.847,-0.247,0.482,-0.841,2705.72,-7.610,44.315,8.505,0.077,-0.444,0.892,0.926,0.341,0.160,11.715,-13.405,-22.489,-2.534,0.843,0.519,-0.144,12.451,-12.550,-29.771,16.855,none
1.452420,0.488,0.577,-0.656,2936.41,-25.403,-41.517,3.133,-0.673,-0.575,0.465,0.640,0.380,-0.667,2911.22,-12.869,-45.210,2.574,-0.713,-0.399,0.576,-0.052,-0.352,-0.934,3088.42,-41.965,-28.088,-46.553,-0.154,0.488,0.859,-0.210,0.470,-0.858,2858.30,-19.360,45.881,3.917,0.057,-0.445,0.894,0.948,0.311,0.072,12.233,-3.710,-26.076,6.168,0.844,0.501,-0.192,12.914,-9.053,-28.687,24.168,none
1.473599,0.473,0.598,-0.647,3293.12,-27.641,-41.741,-4.364,-0.722,-0.554,0.415,0.633,0.407,-0.658,3052.91,-13.429,-47.448,1.679,-0.730,-0.375,0.571,-0.098,-0.474,-0.875,3121.38,-41.517,-30.215,-36.705,-0.131,0.433,0.892,-0.192,0.457,-0.868,2765.13,-20.814,35.027,0.783,0.068,-0.453,0.889,0.936,0.309,0.169,12.208,-3.130,-24.183,34.779,0.862,0.505,-0.043,13.768,-22.565,-20.168,54.412,none
1.495491,0.532,0.370,-0.762,3649.21,-6.938,-92.994,-3.021,-0.675,-0.606,0.421,0.685,0.184,-0.705,4036.41,-8.841,-80.684,-2.350,-0.696,-0.372,0.614,-0.063,-0.413,-0.909,3631.23,-56.624,-52.260,-24.284,-0.137,0.467,0.874,-0.197,0.446,-0.873,2594.22,-33.460,16.003,-2.574,0.079,-0.463,0.883,0.923,0.346,0.166,11.375,-20.122,-34.015,55.954,0.843,0.536,-0.049,11.990,-42.870,-24.794,87.420,none
1.518283,0.492,0.562,-0.665,2452.80,-11.638,-151.409,10.967,-0.654,-0.602,0.457,0.656,0.368,-0.659,2528.10,3.581,-164.166,34.691,-0.626,-0.386,0.677,-0.128,-0.434,-0.892,3094.84,-75.984,-93.329,-4.812,-0.065,0.388,0.919,-0.228,0.449,-0.864,2711.13,-54.946,8.169,-2.126,0.080,-0.482,0.873,0.935,0.325,0.139,11.079,-18.076,-43.344,62.137,0.845,0.514,-0.151,11.445,-49.893,-38.962,93.053,none
1.540827,0.415,0.627,-0.659,2432.11,-30.215,-138.875,2.686,-0.601,-0.621,0.504,0.596,0.261,-0.759,2287.05,-13.429,-132.385,10.295,-0.620,-0.385,0.684,-0.212,-0.447,-0.869,2566.67,-86.279,-98.701,14.100,-0.030,0.375,0.927,-0.230,0.494,-0.838,2560.62,-67.927,2.126,4.141,0.066,-0.506,0.860,0.906,0.316,0.281,11.548,-34.641,-43.191,74.931,0.886,0.461,-0.046,11.795,-71.542,-39.588,110.580,none
1.561744,0.396,0.523,-0.754,2747.53,-28.984,-156.892,5.931,-0.488,-0.669,0.560,0.520,0.195,-0.832,3171.89,-38.496,-136.077,11.079,-0.610,-0.420,0.672,-0.153,-0.284,-0.946,3102.05,-97.470,-124.327,13.093,0.028,0.291,0.956,-0.231,0.515,-0.825,2551.23,-72.179,-6.938,8.393,0.085,-0.521,0.849,0.947,0.263,0.183,10.889,-74.916,-45.817,84.763,0.891,0.453,-0.040,11.510,-89.649,-45.618,125.008,none
1.583168,0.387,0.389,-0.836,3065.30,-22.493,-175.804,17.681,-0.494,-0.669,0.555,0.547,0.176,-0.818,3497.33,-33.124,-187.330,42.188,-0.569,-0.402,0.717,-0.205,-0.331,-0.921,2986.88,-103.849,-148.163,24.395,0.061,0.284,0.957,-0.264,0.582,-0.770,2494.95,-67.255,-6.602,9.848,0.084,-0.549,0.832,0.989,0.126,0.082,11.101,-78.122,-47.389,87.954,0.908,0.416,0.048,12.920,-132.977,-51.328,146.840,none
1.606573,0.393,0.375,-0.839,3438.94,-10.519,-253.243,69.494,-0.481,-0.640,0.599,0.549,0.131,-0.826,4039.45,-24.395,-267.567,98.813,-0.524,-0.412,0.746,-0.266,-0.214,-0.940,2706.10,-105.415,-185.092,25.179,0.106,0.236,0.966,-0.247,0.621,-0.744,2463.33,-54.722,-6.938,1.343,0.073,-0.549,0.833,0.984,0.099,0.147,12.083,-89.099,-38.718,111.679,0.937,0.346,-0.057,12.471,-187.985,-52.214,189.450,none
1.625882,0.356,0.481,-0.801,3333.75,-1.567,-330.234,108.213,-0.467,-0.659,0.589,0.525,0.365,-0.769,3381.45,-11.638,-369.961,160.249,-0.493,-0.397,0.775,-0.299,-0.140,-0.944,2734.98,-135.294,-171.887,22.269,0.183,0.147,0.972,-0.336,0.557,-0.759,2515.16,-59.086,-21.262,-9.064,0.087,-0.563,0.822,0.991,0.044,0.127,9.959,-115.573,-48.000,128.015,0.952,0.204,-0.227,11.853,-199.176,-63.160,214.901,none
1.647401,0.198,0.728,-0.656,2621.00,-4.364,-361.344,107.430,-0.373,-0.646,0.666,0.255,0.638,-0.727,2658.45,-11.974,-431.733,154.206,-0.337,-0.389,0.858,-0.324,-0.187,-0.927,2882.65,-142.568,-185.428,15.219,0.251,0.127,0.960,-0.357,0.589,-0.725,2447.88,-93.553,-27.193,-25.291,0.099,-0.590,0.801,0.999,-0.005,0.044,10.957,-151.710,-71.893,133.679,0.944,0.109,-0.311,11.454,-198.992,-76.763,241.863,none
1.669566,0.016,0.856,-0.517,2471.44,-12.198,-362.463,101.499,-0.327,-0.662,0.675,0.080,0.683,-0.726,2080.20,-49.350,-407.449,85.496,-0.249,-0.372,0.894,-0.398,-0.173,-0.901,2889.71,-170.544,-185.540,20.926,0.319,0.057,0.946,-0.330,0.682,-0.652,2703.61,-132.608,-31.557,-44.203,0.108,-0.610,0.785,0.971,-0.093,-0.219,11.333,-143.939,-73.191,140.855,0.828,-0.057,-0.557,10.737,-161.847,-88.214,231.450,none
1.689843,-0.272,0.932,-0.238,2195.76,-39.950,-318.036,63.898,-0.297,-0.645,0.704,-0.224,0.683,-0.695,1792.28,-72.627,-370.744,64.682,-0.154,-0.417,0.896,-0.652,-0.261,-0.712,2292.67,-168.642,-206.578,37.041,0.352,-0.027,0.936,-0.359,0.703,-0.615,2790.83,-139.099,-26.634,-46.553,0.153,-0.655,0.740,0.970,-0.127,-0.208,10.753,-88.153,-75.496,126.229,0.863,-0.137,-0.486,11.157,-100.611,-97.008,185.954,none
1.712149,-0.336,0.869,-0.364,2162.15,-70.277,-242.724,32.117,-0.210,-0.696,0.687,-0.638,0.652,-0.410,2150.14,-91.763,-267.679,31.893,-0.067,-0.455,0.888,-0.710,0.340,-0.617,2135.28,-161.480,-138.987,38.160,0.385,-0.091,0.919,-0.403,0.747,-0.528,2820.61,-111.122,-43.419,-43.308,0.196,-0.683,0.703,0.972,-0.166,-0.164,11.011,-66.534,-65.634,115.939,0.932,-0.109,-0.346,11.664,-85.573,-90.733,177.328,none
1.733573,-0.288,0.819,-0.496,2617.55,-85.608,-182.183,24.843,-0.156,-0.676,0.721,-0.493,0.623,-0.607,2405.85,-112.018,-202.438,12.086,-0.014,-0.470,0.882,-0.750,0.240,-0.616,2251.99,-150.290,-117.837,4.812,0.403,-0.176,0.898,-0.418,0.760,-0.498,2773.41,-93.329,-26.634,-44.539,0.249,-0.684,0.686,0.928,-0.235,-0.288,10.105,-37.084,-68.962,99.267,0.835,-0.211,-0.508,10.893,-69.969,-80.534,158.840,none
1.756825,-0.343,0.865,-0.367,2684.28,-76.544,-145.701,0.000,-0.096,-0.735,0.671,-0.488,0.646,-0.587,2653.81,-104.296,-167.299,-6.938,0.018,-0.505,0.863,-0.820,0.102,-0.563,2324.22,-141.225,-119.739,-1.902,0.408,-0.216,0.887,-0.416,0.735,-0.535,2762.30,-86.167,-15.219,-45.434,0.281,-0.704,0.652,0.959,-0.198,-0.205,10.255,-4.718,-73.664,77.786,0.754,-0.280,-0.594,10.810,-28.107,-82.061,120.031,none
1.777488,-0.388,0.809,-0.441,2275.30,-68.822,-106.422,-19.472,-0.074,-0.741,0.667,-0.504,0.533,-0.680,2335.01,-94.113,-120.299,-30.886,0.049,-0.543,0.838,-0.702,0.178,-0.690,2592.64,-141.561,-101.275,9.400,0.420,-0.281,0.863,-0.378,0.744,-0.551,2596.13,-85.384,-19.024,-46.441,0.313,-0.725,0.614,0.965,-0.161,-0.209,9.817,-0.489,-76.779,72.611,0.819,-0.225,-0.529,10.877,20.840,-94.305,87.542,none
1.798438,-0.405,0.834,-0.375,2206.12,-98.141,-72.067,-33.236,-0.019,-0.769,0.639,-0.512,0.546,-0.663,2335.14,-106.199,-100.044,-37.712,0.113,-0.556,0.823,-0.797,0.028,-0.603,2428.01,-133.168,-102.282,2.910,0.441,-0.303,0.845,-0.393,0.744,-0.540,2596.48,-113.473,-13.988,-48.903,0.349,-0.744,0.570,0.979,-0.111,-0.172,8.996,10.336,-81.679,53.466,0.918,-0.121,-0.378,9.355,38.840,-89.679,64.153,none
1.820846,-0.415,0.814,-0.407,2055.18,-102.170,-32.117,-42.748,0.012,-0.793,0.609,-0.692,0.581,-0.428,2040.21,-100.268,-62.891,-36.817,0.149,-0.606,0.782,-0.813,0.217,-0.540,2258.40,-135.070,-86.951,33.124,0.451,-0.323,0.832,-0.359,0.813,-0.458,2567.19,-119.292,-8.841,-38.160,0.368,-0.757,0.540,0.997,-0.046,-0.063,9.642,21.847,-73.588,36.427,0.957,-0.067,-0.281,9.445,28.794,-75.603,34.122,none
1.843462,-0.278,0.728,-0.626,2151.16,-90.532,4.476,-35.698,0.035,-0.812,0.583,-0.527,0.636,-0.564,2174.54,-89.077,-10.967,-28.536,0.184,-0.633,0.752,-0.812,0.307,-0.497,2140.62,-110.227,-87.958,47.224,0.424,-0.423,0.801,-0.318,0.835,-0.449,2465.16,-95.344,-11.526,-20.255,0.401,-0.767,0.502,0.991,-0.061,-0.120,9.005,16.412,-56.412,23.893,0.928,-0.088,-0.363,10.025,14.855,-55.435,20.809,none
1.868652,-0.178,0.733,-0.656,2308.29,-58.079,4.812,-12.310,0.040,-0.812,0.583,-0.355,0.630,-0.691,2426.90,-69.829,13.653,-20.926,0.174,-0.658,0.733,-0.850,0.409,-0.332,1988.87,-79.006,-75.536,56.401,0.420,-0.440,0.794,-0.300,0.856,-0.421,2487.46,-53.155,-20.814,-2.238,0.404,-0.769,0.496,0.997,-0.024,-0.076,9.595,7.893,-31.756,14.565,0.956,-0.020,-0.294,10.055,3.618,-33.130,10.901,none
1.888090,-0.140,0.739,-0.659,2385.56,-32.005,-1.567,-0.448,0.050,-0.859,0.510,-0.218,0.560,-0.799,2554.37,-16.338,-7.833,1.231,0.167,-0.654,0.738,-0.797,0.492,-0.350,1973.49,-33.796,-77.663,60.093,0.396,-0.530,0.750,-0.274,0.875,-0.399,2431.51,-27.976,-17.905,2.798,0.404,-0.788,0.465,0.998,0.060,0.029,9.380,-11.053,0.687,3.115,0.949,-0.002,-0.314,9.969,-22.351,-2.122,3.405,none
1.910291,-0.112,0.740,-0.664,2368.74,-0.112,-10.519,12.645,0.022,-0.868,0.496,-0.363,0.665,-0.652,2239.55,16.450,-14.100,16.898,0.189,-0.673,0.716,-0.721,0.597,-0.352,2102.47,3.917,-71.284,59.310,0.412,-0.492,0.768,-0.238,0.867,-0.437,2352.02,3.357,-18.912,8.952,0.408,-0.785,0.466,0.988,-0.017,-0.152,9.303,-34.397,14.809,9.786,0.920,-0.031,-0.391,9.995,-33.573,11.115,4.870,none
1.932708,-0.124,0.803,-0.583,2292.93,22.157,-19.248,14.324,0.025,-0.860,0.510,-0.306,0.594,-0.744,2080.22,25.291,-4.029,18.129,0.150,-0.646,0.748,-0.717,0.503,-0.482,2123.88,29.096,-43.643,36.034,0.409,-0.502,0.762,-0.230,0.854,-0.467,2180.45,13.429,-29.431,14.772,0.391,-0.789,0.474,0.914,-0.120,-0.387,8.682,-27.145,7.893,16.626,0.830,-0.117,-0.545,9.776,-30.565,5.725,10.763,none
1.955192,-0.184,0.832,-0.523,1976.08,11.638,-15.331,9.288,0.019,-0.848,0.530,-0.301,0.620,-0.724,2179.37,13.317,-5.260,18.800,0.164,-0.651,0.741,-0.719,0.458,-0.522,2186.43,27.417,-25.962,32.676,0.404,-0.519,0.753,-0.262,0.875,-0.407,2286.42,7.722,-31.557,13.205,0.396,-0.768,0.504,0.977,-0.039,-0.211,8.422,-23.053,7.924,-4.214,0.881,-0.076,-0.468,9.190,-31.954,6.733,-1.160,none
1.976318,-0.196,0.852,-0.485,2149.07,9.624,-9.736,18.241,0.027,-0.838,0.546,-0.363,0.714,-0.599,2293.20,24.395,-5.595,28.984,0.162,-0.646,0.746,-0.685,0.630,-0.366,2210.32,34.131,-23.500,35.138,0.365,-0.549,0.752,-0.275,0.880,-0.388,2397.03,20.926,-28.760,16.003,0.394,-0.775,0.494,0.988,-0.049,-0.146,9.319,-36.229,25.420,-10.595,0.888,-0.100,-0.448,10.102,-39.573,23.374,-12.244,none
1.998910,-0.226,0.877,-0.424,2434.48,27.976,0.336,19.919,0.026,-0.842,0.539,-0.431,0.738,-0.519,2362.83,43.755,16.003,19.807,0.151,-0.659,0.737,-0.685,0.617,-0.388,2210.69,48.343,-13.541,19.024,0.376,-0.523,0.765,-0.309,0.864,-0.397,2416.17,47.336,-32.453,20.255,0.403,-0.768,0.497,0.958,-0.129,-0.256,9.623,-36.809,45.069,-16.229,0.853,-0.156,-0.497,10.604,-35.634,41.176,-19.695,none
2.020837,-0.224,0.856,-0.466,2447.06,42.077,16.674,7.162,-0.004,-0.827,0.563,-0.376,0.665,-0.645,2400.71,57.408,32.453,13.093,0.137,-0.632,0.763,-0.781,0.571,-0.251,2163.27,72.291,10.295,-5.371,0.392,-0.496,0.775,-0.326,0.848,-0.417,2439.08,76.879,-30.998,21.822,0.400,-0.766,0.503,0.963,-0.131,-0.234,9.618,-28.687,56.824,-25.176,0.864,-0.148,-0.481,10.647,-27.206,55.573,-30.214,none
2.041791,-0.212,0.808,-0.550,2361.20,66.920,21.374,8.169,0.008,-0.796,0.605,-0.346,0.673,-0.654,2519.80,72.067,31.110,18.576,0.137,-0.636,0.760,-0.745,0.594,-0.303,2213.44,80.796,22.717,-12.310,0.403,-0.481,0.779,-0.353,0.857,-0.376,2449.22,88.182,-25.291,15.891,0.415,-0.773,0.480,0.961,-0.153,-0.230,10.255,-23.588,73.130,-28.214,0.905,-0.131,-0.405,11.069,-28.534,70.977,-33.206,none
2.066210,-0.214,0.835,-0.506,2660.81,85.720,16.674,8.841,0.006,-0.801,0.599,-0.376,0.726,-0.576,2687.38,87.287,26.969,17.010,0.125,-0.597,0.793,-0.799,0.522,-0.300,2142.34,98.813,26.186,-36.929,0.410,-0.467,0.784,-0.370,0.825,-0.426,2411.29,97.358,-15.779,5.260,0.402,-0.739,0.541,0.959,-0.127,-0.252,9.771,-17.420,92.397,-29.740,0.890,-0.137,-0.435,10.474,-34.565,93.099,-31.298,none
2.089139,-0.266,0.787,-0.556,2174.92,112.577,10.407,8.393,0.006,-0.748,0.664,-0.431,0.656,-0.619,2343.28,112.018,34.355,3.357,0.119,-0.587,0.801,-0.709,0.492,-0.505,2453.28,105.863,46.777,-45.546,0.441,-0.411,0.798,-0.363,0.826,-0.432,2517.42,92.658,-2.014,3.693,0.400,-0.726,0.560,0.935,-0.165,-0.313,9.822,-17.847,86.992,-33.069,0.846,-0.174,-0.504,10.574,-34.458,81.527,-34.687,none
2.110656,-0.272,0.813,-0.514,2237.60,98.141,11.750,14.436,-0.022,-0.741,0.671,-0.385,0.547,-0.744,2241.11,90.308,40.062,3.917,0.080,-0.529,0.845,-0.711,0.257,-0.655,2598.02,92.434,54.051,-64.122,0.430,-0.410,0.804,-0.356,0.801,-0.481,2425.14,99.260,0.895,5.819,0.392,-0.725,0.566,0.933,-0.170,-0.318,9.863,-7.557,68.183,-32.672,0.852,-0.168,-0.496,10.795,-20.855,64.534,-32.046,none
2.132414,-0.248,0.800,-0.547,2337.82,74.977,19.807,9.624,-0.045,-0.681,0.731,-0.352,0.514,-0.782,2306.94,70.389,44.874,-0.783,0.078,-0.507,0.858,-0.749,0.185,-0.636,2490.05,67.927,39.838,-36.817,0.444,-0.342,0.828,-0.323,0.789,-0.522,2495.34,95.791,-1.679,7.386,0.394,-0.712,0.581,0.972,-0.132,-0.196,9.661,3.481,55.725,-33.908,0.914,-0.129,-0.385,10.332,-10.397,50.626,-33.328,none
2.152053,-0.223,0.701,-0.678,2333.74,57.184,28.872,2.350,-0.052,-0.666,0.744,-0.296,0.452,-0.841,2447.56,58.974,44.203,-2.350,0.070,-0.486,0.871,-0.722,0.332,-0.607,2478.81,56.289,40.062,-36.593,0.461,-0.339,0.820,-0.371,0.757,-0.537,2460.09,94.337,-6.379,8.057,0.398,-0.695,0.598,0.990,-0.093,-0.104,10.088,3.832,47.053,-34.504,0.943,-0.094,-0.320,10.874,-9.191,42.641,-32.137,none
2.173616,-0.210,0.679,-0.703,2377.07,44.427,26.298,3.805,-0.059,-0.670,0.740,-0.310,0.465,-0.829,2530.50,50.470,33.572,0.336,0.071,-0.460,0.885,-0.718,0.161,-0.677,2627.49,46.665,41.517,-50.358,0.437,-0.312,0.844,-0.355,0.706,-0.612,2511.97,77.215,-3.357,1.902,0.407,-0.691,0.597,0.996,-0.074,-0.054,10.807,0.656,37.908,-22.794,0.956,-0.071,-0.284,11.372,-5.145,32.153,-21.649,none
2.198360,-0.181,0.671,-0.719,2553.71,33.684,23.836,-3.245,-0.055,-0.648,0.759,-0.272,0.395,-0.877,2481.27,38.160,31.222,-12.310,0.052,-0.452,0.890,-0.717,-0.010,-0.697,2765.24,41.069,32.900,-42.077,0.439,-0.258,0.861,-0.385,0.661,-0.644,2342.82,62.443,-14.100,2.350,0.410,-0.664,0.625,0.979,-0.144,-0.142,9.410,0.473,19.847,-3.191,0.943,-0.131,-0.306,9.958,0.992,15.252,-6.931,none
2.222965,-0.274,0.650,-0.709,2259.06,19.360,21.374,-16.226,-0.061,-0.653,0.755,-0.377,0.283,-0.882,2212.11,17.010,26.186,-18.912,0.029,-0.457,0.889,-0.747,0.011,-0.665,2706.62,22.829,20.143,-18.464,0.450,-0.278,0.849,-0.419,0.638,-0.646,2412.69,9.512,-3.133,-1.567,0.428,-0.674,0.602,0.993,-0.108,-0.047,9.027,8.870,-7.771,-4.733,0.952,-0.129,-0.277,9.425,10.336,-11.725,-8.198,none
2.243010,-0.278,0.563,-0.778,2082.98,-13.429,28.760,-16.898,-0.070,-0.642,0.764,-0.480,0.310,-0.820,2019.82,-9.400,34.131,-22.045,0.046,-0.463,0.885,-0.784,-0.030,-0.620,2603.39,0.224,15.779,5.595,0.453,-0.267,0.851,-0.425,0.636,-0.644,2404.73,-20.367,-7.050,2.014,0.410,-0.668,0.622,0.997,-0.076,-0.016,8.895,6.779,-24.275,-10.183,0.988,-0.056,-0.146,9.175,9.511,-29.557,-15.069,none
2.264073,-0.281,0.531,-0.800,2025.78,-25.515,37.936,-7.498,-0.069,-0.653,0.754,-0.491,0.362,-0.792,2055.24,-25.850,56.401,-21.038,0.037,-0.443,0.896,-0.777,0.084,-0.624,2567.55,-14.660,16.338,24.507,0.443,-0.274,0.853,-0.395,0.683,-0.615,2485.35,-31.669,-10.295,19.472,0.415,-0.668,0.618,0.998,-0.063,0.004,9.953,1.908,-37.344,-13.206,0.986,-0.038,-0.161,10.320,-5.969,-43.466,-17.924,none
2.286603,-0.135,0.500,-0.855,2482.19,-39.838,36.369,10.407,-0.083,-0.673,0.735,-0.135,0.241,-0.961,2763.38,-38.160,56.736,-7.162,0.038,-0.469,0.882,-0.760,0.133,-0.636,2660.19,-22.605,8.281,32.453,0.459,-0.282,0.843,-0.376,0.732,-0.569,2585.23,-27.529,-13.988,28.312,0.423,-0.680,0.599,0.985,-0.114,-0.131,10.351,-7.221,-49.160,-11.252,0.946,-0.095,-0.310,11.209,-19.084,-52.885,-10.992,none
2.308009,-0.165,0.689,-0.706,2727.58,-52.931,12.086,26.410,-0.095,-0.672,0.734,-0.124,0.337,-0.933,3077.62,-39.055,7.945,21.934,0.024,-0.469,0.883,-0.691,0.330,-0.643,2827.68,-29.879,5.931,42.748,0.452,-0.282,0.846,-0.353,0.767,-0.536,2777.07,-36.593,-11.638,30.215,0.420,-0.680,0.602,0.982,-0.112,-0.151,12.567,-4.458,-51.511,-9.649,0.925,-0.102,-0.366,13.218,-18.275,-58.519,-9.359,none
2.329847,-0.139,0.792,-0.594,3389.29,-61.548,3.245,28.312,-0.149,-0.715,0.683,-0.272,0.654,-0.706,3236.71,-37.936,-12.198,28.088,0.023,-0.456,0.889,-0.701,0.357,-0.617,2772.86,-21.150,0.112,35.027,0.438,-0.269,0.858,-0.363,0.781,-0.508,2950.41,-16.114,-26.410,23.053,0.415,-0.690,0.593,0.986,-0.090,-0.137,12.970,-2.061,-25.542,-0.137,0.938,-0.067,-0.339,14.607,-16.260,-31.878,0.260,none
2.352374,-0.123,0.797,-0.591,3523.84,-17.122,-7.274,13.876,-0.111,-0.708,0.698,-0.227,0.641,-0.734,3288.93,-11.862,-8.281,15.891,0.000,-0.479,0.878,-0.672,0.518,-0.530,2691.24,8.057,-0.783,23.500,0.431,-0.320,0.844,-0.346,0.807,-0.478,2974.85,1.343,-24.060,12.198,0.416,-0.692,0.590,0.991,-0.091,-0.094,13.084,-5.359,12.870,5.588,0.931,-0.090,-0.353,14.057,-19.664,15.771,7.511,none
2.373900,-0.145,0.806,-0.574,3439.57,24.395,-17.905,3.805,-0.129,-0.711,0.691,-0.239,0.675,-0.698,3399.20,19.807,-13.541,13.205,0.003,-0.510,0.860,-0.651,0.589,-0.479,2566.76,40.174,-1.343,-5.260,0.430,-0.315,0.846,-0.367,0.806,-0.464,2808.72,29.096,-17.122,-12.981,0.407,-0.677,0.613,0.986,-0.120,-0.117,11.903,-8.321,56.809,13.130,0.916,-0.122,-0.382,13.186,-16.809,56.031,10.321,none
2.396196,-0.185,0.828,-0.530,3077.52,62.891,-22.605,-9.176,-0.147,-0.662,0.735,-0.294,0.689,-0.663,3003.79,76.879,-18.464,-8.057,0.025,-0.469,0.883,-0.740,0.450,-0.500,2244.53,69.829,-4.029,-33.572,0.454,-0.258,0.853,-0.402,0.777,-0.484,2488.07,54.946,-16.450,-28.536,0.410,-0.682,0.606,0.969,-0.163,-0.185,9.966,-5.756,81.725,17.008,0.895,-0.159,-0.417,10.667,-9.221,82.565,12.824,none
2.418755,-0.247,0.794,-0.555,2303.46,90.532,-22.605,-23.612,-0.125,-0.663,0.738,-0.358,0.548,-0.756,2217.88,92.882,-14.995,-21.038,0.013,-0.421,0.907,-0.786,0.248,-0.566,2137.93,79.565,-2.574,-46.553,0.432,-0.240,0.869,-0.436,0.750,-0.498,2184.24,65.913,-9.848,-34.243,0.397,-0.660,0.637,0.948,-0.210,-0.239,8.145,3.282,78.626,16.412,0.882,-0.199,-0.426,8.735,-3.069,75.878,11.023,none
2.440713,-0.353,0.722,-0.595,1720.10,89.972,-19.919,-28.200,-0.086,-0.651,0.754,-0.393,0.361,-0.846,1843.82,81.467,-18.129,-18.464,0.019,-0.397,0.918,-0.775,0.191,-0.603,2104.49,68.374,2.798,-47.784,0.472,-0.237,0.849,-0.464,0.706,-0.536,2029.67,69.046,-6.043,-32.229,0.408,-0.658,0.633,0.943,-0.226,-0.243,7.112,11.069,56.427,11.695,0.841,-0.247,-0.482,7.805,9.206,54.092,6.504,none
2.463530,-0.427,0.700,-0.573,1563.50,52.148,-6.826,-28.760,-0.091,-0.569,0.817,-0.457,0.345,-0.819,1757.40,59.086,-18.800,-17.681,0.035,-0.378,0.925,-0.774,0.031,-0.632,2209.18,38.719,13.429,-43.196,0.483,-0.160,0.861,-0.474,0.675,-0.566,1989.02,48.343,1.679,-28.536,0.407,-0.643,0.648,0.957,-0.203,-0.207,6.868,15.771,27.969,4.183,0.926,-0.182,-0.331,7.108,15.450,23.908,0.748,none
2.486857,-0.376,0.591,-0.714,1488.32,24.843,3.133,-22.829,-0.071,-0.598,0.798,-0.396,0.081,-0.915,1682.43,34.579,-12.086,-18.017,0.040,-0.345,0.938,-0.747,0.013,-0.664,2249.82,10.855,14.100,-23.388,0.483,-0.187,0.855,-0.480,0.667,-0.570,1941.26,13.541,11.414,-12.310,0.407,-0.636,0.655,0.934,-0.259,-0.247,6.890,23.893,-6.977,-2.947,0.885,-0.260,-0.385,7.536,13.405,-10.718,-1.405,none
2.509596,-0.455,0.619,-0.640,1658.48,-14.883,2.574,-12.645,-0.064,-0.565,0.822,-0.517,0.277,-0.810,1839.45,-20.703,-17.905,-4.588,0.055,-0.359,0.932,-0.775,0.092,-0.626,2232.37,-25.626,18.688,-22.941,0.476,-0.160,0.865,-0.468,0.603,-0.646,2244.02,-15.219,29.319,-10.295,0.420,-0.652,0.631,0.990,-0.111,-0.091,8.305,41.344,-37.908,-19.511,0.931,-0.140,-0.336,8.504,29.511,-42.733,-14.489,none
2.534757,-0.292,0.641,-0.709,1844.15,-40.734,21.598,-12.422,-0.039,-0.616,0.787,-0.365,0.256,-0.895,1907.19,-44.650,3.357,-10.295,0.042,-0.393,0.919,-0.668,-0.004,-0.745,2561.41,-50.693,28.312,-29.543,0.464,-0.159,0.871,-0.401,0.653,-0.643,2178.76,-20.255,24.395,0.560,0.438,-0.665,0.605,0.994,-0.083,-0.070,9.309,45.145,-54.122,-9.664,0.975,-0.037,-0.220,10.109,30.183,-58.183,-7.038,none
2.558799,-0.154,0.627,-0.763,2355.02,-67.032,27.529,-12.869,-0.063,-0.648,0.759,-0.225,0.360,-0.905,2393.63,-69.717,6.826,-4.029,0.051,-0.410,0.911,-0.733,0.009,-0.680,2239.61,-56.512,10.855,-2.686,0.457,-0.195,0.868,-0.397,0.649,-0.649,2250.24,-44.091,26.745,2.014,0.443,-0.678,0.586,0.997,0.012,0.078,8.869,45.130,-49.863,-17.115,0.976,-0.050,-0.214,9.276,29.817,-56.015,-12.198,none
2.580514,-0.247,0.629,-0.737,2146.19,-58.751,24.619,-12.645,-0.066,-0.675,0.735,-0.437,0.526,-0.730,2403.04,-57.520,5.819,-4.252,0.053,-0.422,0.905,-0.734,0.218,-0.643,2248.22,-55.617,15.555,0.783,0.472,-0.185,0.862,-0.375,0.568,-0.733,2591.66,-54.051,51.141,-6.155,0.448,-0.677,0.583,0.988,0.113,0.106,10.986,37.878,-41.908,-41.069,0.985,0.112,-0.131,10.666,21.450,-51.786,-35.985,none
2.603155,-0.032,0.531,-0.847,2470.95,-34.915,43.755,10.407,-0.078,-0.652,0.754,-0.156,0.433,-0.888,2628.54,-41.181,36.705,-16.338,0.037,-0.426,0.904,-0.667,0.018,-0.745,2664.57,-45.210,20.367,-7.722,0.464,-0.212,0.860,-0.225,0.724,-0.652,2614.12,-75.984,56.960,-4.252,0.432,-0.691,0.579,0.999,0.047,0.005,12.090,14.580,-33.298,-16.275,0.980,0.080,-0.184,13.152,2.153,-44.412,-19.237,none
2.622834,-0.003,0.636,-0.771,3106.36,-45.210,16.450,17.569,-0.080,-0.690,0.719,-0.003,0.291,-0.957,3135.28,-27.976,39.838,-15.667,0.038,-0.456,0.889,-0.606,0.170,-0.777,2592.83,-35.474,16.226,14.100,0.468,-0.216,0.857,-0.266,0.705,-0.658,2503.18,-80.013,42.412,6.043,0.416,-0.691,0.591,0.999,-0.000,-0.047,11.483,12.718,-28.061,-2.305,0.942,-0.016,-0.336,12.434,8.626,-33.008,-5.145,none
2.647864,-0.081,0.731,-0.678,3014.48,-29.319,8.729,-4.364,-0.074,-0.709,0.701,-0.097,0.429,-0.898,3036.57,-25.626,5.483,-5.819,0.054,-0.469,0.882,-0.595,0.229,-0.770,2526.69,-19.360,3.469,15.331,0.453,-0.231,0.861,-0.293,0.704,-0.646,2577.08,-93.106,40.174,-6.043,0.390,-0.717,0.578,0.999,0.023,-0.028,11.123,12.519,-7.649,3.618,0.962,0.019,-0.273,11.702,21.374,-13.908,-7.282,none
2.671584,-0.085,0.692,-0.717,2672.94,-12.198,7.722,-14.660,-0.089,-0.731,0.676,-0.253,0.548,-0.797,2593.75,5.371,-13.653,-7.274,0.029,-0.446,0.894,-0.621,0.320,-0.716,2484.79,-9.176,-3.357,10.743,0.467,-0.254,0.847,-0.274,0.791,-0.547,2615.29,-89.860,35.138,-10.072,0.360,-0.744,0.562,0.993,-0.040,-0.115,10.850,6.504,3.023,10.580,0.942,-0.034,-0.333,11.608,20.702,-1.206,-7.756,none
2.694536,-0.133,0.755,-0.642,2724.34,1.119,1.679,-15.219,-0.071,-0.705,0.705,-0.252,0.480,-0.841,2532.71,10.407,-6.267,-7.386,0.071,-0.453,0.889,-0.638,0.283,-0.716,2495.97,-1.007,4.476,-8.952,0.457,-0.195,0.868,-0.293,0.798,-0.527,2618.75,-42.188,24.843,-15.667,0.345,-0.737,0.581,0.966,-0.119,-0.228,10.789,21.771,5.771,12.397,0.908,-0.102,-0.406,11.774,30.763,0.733,-2.351,none
2.718432,-0.167,0.737,-0.655,2641.71,0.224,0.895,-25.067,-0.068,-0.710,0.700,-0.236,0.482,-0.844,2786.49,2.910,-16.338,-10.183,0.054,-0.450,0.891,-0.616,0.233,-0.753,2649.17,-2.574,2.350,-21.598,0.459,-0.225,0.859,-0.329,0.762,-0.558,2598.50,-9.400,23.276,-24.507,0.332,-0.734,0.592,0.966,-0.136,-0.218,11.087,50.076,-1.069,13.618,0.937,-0.076,-0.342,11.976,41.878,-8.031,3.618,none
2.740802,-0.147,0.730,-0.668,2869.49,-9.288,-5.036,-28.424,-0.087,-0.723,0.686,-0.234,0.500,-0.834,2844.15,1.455,-20.255,-24.843,0.053,-0.464,0.884,-0.593,0.242,-0.768,2750.56,-13.317,0.560,-32.453,0.471,-0.191,0.861,-0.308,0.769,-0.560,2676.07,-12.086,18.353,-35.586,0.314,-0.737,0.598,0.985,-0.080,-0.152,12.317,65.740,-2.183,21.176,0.953,-0.027,-0.303,13.427,44.641,-6.947,16.885,none
2.764129,-0.112,0.733,-0.671,3164.57,-5.931,-10.407,-44.650,-0.032,-0.707,0.707,-0.186,0.453,-0.872,3047.44,0.895,-27.865,-33.124,0.090,-0.471,0.877,-0.622,0.212,-0.754,2828.13,8.169,-5.371,-42.188,0.469,-0.146,0.871,-0.277,0.798,-0.535,2874.01,-58.415,17.345,-53.827,0.302,-0.729,0.615,0.996,-0.018,-0.087,12.839,77.771,11.756,30.870,0.961,0.003,-0.275,13.616,44.336,15.634,26.931,none
2.788242,-0.132,0.730,-0.671,3263.72,6.043,-19.695,-54.051,-0.002,-0.696,0.718,-0.252,0.526,-0.812,3148.99,19.024,-40.510,-36.817,0.068,-0.453,0.889,-0.688,0.250,-0.681,2785.55,15.107,-22.493,-48.120,0.494,-0.189,0.849,-0.295,0.820,-0.491,2931.64,-61.324,12.422,-53.043,0.311,-0.740,0.597,0.997,-0.044,-0.060,12.518,65.878,28.901,49.542,0.962,-0.048,-0.268,12.843,46.870,34.595,26.947,none
2.809244,-0.195,0.689,-0.698,2912.19,24.955,-18.688,-64.234,-0.016,-0.733,0.680,-0.314,0.389,-0.866,2898.30,30.550,-44.091,-42.860,0.096,-0.439,0.893,-0.702,0.119,-0.702,2965.48,32.676,-13.653,-56.401,0.470,-0.148,0.870,-0.353,0.825,-0.442,3033.29,-20.367,4.812,-53.267,0.311,-0.744,0.592,0.992,-0.119,-0.051,10.921,45.405,36.427,43.939,0.954,-0.120,-0.275,12.101,33.435,40.137,29.908,none
2.832127,-0.300,0.708,-0.640,2780.26,26.186,-24.507,-58.527,0.023,-0.673,0.739,-0.412,0.470,-0.781,2900.20,31.110,-47.224,-33.236,0.137,-0.443,0.886,-0.745,0.138,-0.652,2847.72,22.941,-25.962,-54.946,0.499,-0.131,0.857,-0.427,0.780,-0.457,2915.10,29.207,-9.288,-45.993,0.311,-0.746,0.590,0.967,-0.207,-0.147,11.447,41.740,32.672,39.160,0.943,-0.162,-0.291,11.840,28.366,35.511,27.557,none
2.854166,-0.319,0.685,-0.655,2701.26,27.417,-18.129,-54.834,0.071,-0.687,0.724,-0.399,0.374,-0.837,2775.98,33.460,-46.777,-38.384,0.149,-0.438,0.887,-0.768,0.085,-0.634,2773.89,22.941,-27.193,-46.441,0.512,-0.080,0.855,-0.437,0.768,-0.468,2784.64,27.976,-8.281,-43.643,0.309,-0.726,0.615,0.963,-0.245,-0.114,10.513,52.916,31.145,37.786,0.943,-0.201,-0.267,11.463,28.107,37.954,27.954,none
2.876359,-0.361,0.699,-0.618,2689.31,29.319,-19.360,-53.379,0.061,-0.658,0.751,-0.502,0.396,-0.769,2575.50,30.774,-51.365,-35.810,0.134,-0.420,0.898,-0.790,0.095,-0.605,2583.26,24.395,-26.410,-45.434,0.523,-0.036,0.851,-0.470,0.739,-0.483,2695.30,21.150,-11.862,-40.958,0.316,-0.724,0.613,0.975,-0.224,-0.006,10.220,54.458,27.695,29.130,0.949,-0.210,-0.235,10.745,26.870,36.870,25.542,none
2.898016,-0.389,0.668,-0.634,2493.55,37.936,-14.995,-56.512,0.075,-0.657,0.750,-0.532,0.400,-0.746,2470.09,29.879,-39.838,-39.838,0.160,-0.383,0.910,-0.797,0.016,-0.603,2526.74,26.857,-18.241,-51.253,0.519,-0.040,0.854,-0.487,0.738,-0.467,2578.21,18.017,-8.841,-39.391,0.316,-0.725,0.611,0.977,-0.186,0.108,9.700,33.359,34.916,26.122,0.965,-0.197,-0.175,9.952,21.679,38.550,21.863,none
2.919716,-0.426,0.621,-0.658,2254.55,37.824,-14.100,-53.939,0.096,-0.672,0.735,-0.585,0.352,-0.731,2279.75,34.803,-33.907,-42.412,0.176,-0.384,0.906,-0.820,0.008,-0.572,2442.95,21.822,-20.479,-44.427,0.527,-0.028,0.849,-0.503,0.712,-0.490,2397.48,25.738,-8.505,-33.236,0.327,-0.728,0.603,0.968,-0.251,0.021,8.894,20.229,31.588,25.038,0.972,-0.199,-0.122,9.178,12.641,32.244,19.008,none
2.943179,-0.488,0.497,-0.717,1947.07,36.817,-6.938,-51.365,0.103,-0.639,0.762,-0.671,0.133,-0.730,1987.23,32.565,-19.024,-40.174,0.178,-0.349,0.920,-0.824,-0.124,-0.553,2527.54,18.353,-13.093,-20.479,0.527,0.008,0.850,-0.536,0.685,-0.493,2304.65,19.584,-11.974,-24.955,0.341,-0.726,0.597,0.955,-0.296,0.030,7.939,14.977,16.137,19.771,0.950,-0.275,-0.150,8.119,3.328,16.824,16.122,none
2.965261,-0.520,0.375,-0.768,1793.79,19.807,0.448,-28.424,0.117,-0.636,0.763,-0.640,0.030,-0.767,1928.47,17.122,-5.148,-25.850,0.212,-0.345,0.914,-0.846,-0.141,-0.513,2356.91,8.169,-18.017,0.671,0.512,0.029,0.858,-0.544,0.684,-0.486,2237.55,2.574,-12.198,-13.429,0.348,-0.714,0.607,0.949,-0.313,0.042,7.667,11.435,1.756,9.817,0.948,-0.287,-0.139,7.760,-0.260,-2.504,5.771,none
2.988250,-0.597,0.424,-0.681,1659.27,2.238,6.155,-10.855,0.149,-0.617,0.773,-0.688,0.086,-0.721,1824.44,-5.260,12.645,-4.924,0.231,-0.323,0.918,-0.890,-0.094,-0.446,2075.40,2.462,-10.743,17.010,0.547,-0.004,0.837,-0.545,0.687,-0.482,2215.58,-12.422,-10.855,4.141,0.353,-0.721,0.596,0.960,-0.247,0.135,7.819,13.176,-3.725,-7.985,0.970,-0.234,-0.060,7.722,-9.191,-12.519,-10.000,none
3.014121,-0.516,0.456,-0.725,1843.25,-7.945,18.353,4.588,0.150,-0.622,0.768,-0.622,0.237,-0.746,1984.81,-10.631,28.536,12.086,0.188,-0.342,0.921,-0.827,0.047,-0.560,2090.52,-0.336,-1.902,25.515,0.540,0.009,0.842,-0.545,0.694,-0.470,2231.32,1.119,-3.133,17.905,0.351,-0.725,0.593,0.958,-0.243,0.154,8.122,-1.664,-1.267,-19.725,0.961,-0.239,-0.141,8.779,-20.427,-12.763,-21.985,none
3.032115,-0.456,0.528,-0.717,2001.53,-10.967,21.486,21.598,0.143,-0.632,0.761,-0.523,0.291,-0.801,2155.41,-8.729,31.334,17.905,0.180,-0.339,0.923,-0.856,0.015,-0.517,2054.61,-3.469,4.812,20.031,0.535,0.017,0.845,-0.529,0.681,-0.506,2188.49,10.967,7.386,25.403,0.336,-0.715,0.613,0.959,-0.283,0.023,8.587,-4.244,-9.206,-27.084,0.958,-0.227,-0.175,9.255,-18.305,-16.214,-23.756,none
3.054524,-0.406,0.548,-0.731,2123.48,-12.310,23.500,25.515,0.103,-0.652,0.751,-0.512,0.223,-0.829,2103.45,-6.267,32.229,16.562,0.185,-0.345,0.920,-0.788,0.036,-0.614,2193.81,-4.252,19.136,19.584,0.554,-0.010,0.832,-0.502,0.682,-0.532,2229.31,1.455,11.302,25.738,0.343,-0.717,0.607,0.966,-0.260,0.010,8.646,2.641,-17.954,-30.244,0.969,-0.190,-0.159,9.311,-17.267,-23.405,-23.771,none
3.078148,-0.386,0.568,-0.727,2135.92,-13.653,23.724,26.522,0.092,-0.621,0.778,-0.517,0.272,-0.812,2125.74,-16.003,36.593,19.695,0.158,-0.374,0.914,-0.816,-0.035,-0.577,2251.23,-4.141,26.186,17.122,0.538,-0.019,0.843,-0.473,0.703,-0.532,2302.61,-6.826,10.967,26.969,0.335,-0.714,0.615,0.981,-0.188,0.052,8.998,4.168,-24.275,-37.023,0.976,-0.153,-0.156,9.367,-21.542,-27.435,-29.008,none
3.101303,-0.381,0.572,-0.726,2085.40,-14.772,29.207,30.998,0.084,-0.626,0.775,-0.515,0.295,-0.805,2094.13,-18.353,48.791,22.381,0.154,-0.371,0.916,-0.753,0.047,-0.656,2321.58,-6.491,29.879,23.836,0.545,-0.026,0.838,-0.443,0.730,-0.520,2392.31,-8.617,11.302,31.781,0.333,-0.729,0.598,0.982,-0.188,-0.007,10.100,2.168,-27.649,-41.405,0.969,-0.142,-0.202,10.550,-24.198,-30.931,-32.397,none
3.122421,-0.295,0.609,-0.737,2427.16,-22.941,35.250,37.377,0.064,-0.621,0.782,-0.396,0.372,-0.840,2475.22,-24.395,57.743,27.081,0.128,-0.388,0.913,-0.754,0.107,-0.648,2384.40,-7.945,27.529,15.107,0.531,-0.019,0.847,-0.420,0.741,-0.524,2525.01,-3.469,13.317,31.893,0.313,-0.721,0.618,0.984,-0.172,-0.050,10.657,6.076,-22.458,-36.626,0.964,-0.122,-0.235,11.191,-22.931,-31.740,-28.611,none
3.145571,-0.244,0.673,-0.698,2689.70,-30.326,34.803,31.446,0.056,-0.668,0.742,-0.275,0.369,-0.888,2816.30,-19.136,53.715,22.941,0.088,-0.372,0.924,-0.751,0.138,-0.646,2498.65,-5.819,35.027,12.310,0.511,-0.055,0.858,-0.385,0.769,-0.511,2628.22,-0.448,11.638,28.088,0.314,-0.726,0.612,0.991,-0.128,-0.051,10.831,13.023,-17.115,-42.382,0.962,-0.092,-0.255,11.664,-21.863,-25.893,-33.985,none
3.167981,-0.208,0.699,-0.684,2828.16,-24.172,41.405,22.269,0.042,-0.667,0.744,-0.301,0.397,-0.867,2737.19,-2.350,42.077,26.857,0.101,-0.401,0.910,-0.695,0.150,-0.703,2615.63,11.414,42.972,9.960,0.525,-0.028,0.851,-0.372,0.780,-0.503,2689.15,3.357,5.595,26.186,0.299,-0.723,0.623,0.988,-0.140,-0.059,12.047,12.565,-5.664,-33.435,0.956,-0.107,-0.275,12.492,-21.069,-16.443,-28.061,none
3.191461,-0.205,0.705,-0.679,2968.28,-17.122,39.055,16.338,0.025,-0.678,0.734,-0.305,0.476,-0.825,2863.42,-4.141,41.069,24.284,0.067,-0.401,0.913,-0.655,0.107,-0.748,2760.46,16.562,35.362,3.805,0.495,-0.038,0.868,-0.384,0.771,-0.508,2735.92,4.812,5.931,19.807,0.292,-0.722,0.627,0.985,-0.159,-0.074,11.549,16.229,5.221,-26.550,0.934,-0.143,-0.327,12.699,-12.565,-4.214,-22.855,none
3.213451,-0.227,0.751,-0.619,3060.92,2.574,25.850,8.617,0.006,-0.672,0.740,-0.303,0.542,-0.784,3039.12,0.560,40.846,9.848,0.074,-0.386,0.920,-0.650,0.180,-0.738,2675.09,15.555,22.941,-7.274,0.484,-0.029,0.874,-0.379,0.769,-0.515,2718.02,7.274,8.169,10.967,0.269,-0.716,0.644,0.990,-0.136,-0.044,11.553,17.496,12.962,-20.275,0.946,-0.122,-0.300,12.355,0.000,3.802,-19.695,none
3.234652,-0.234,0.732,-0.640,2809.20,11.302,28.872,-7.945,-0.006,-0.647,0.763,-0.312,0.477,-0.822,2793.62,10.855,44.203,-18.241,0.066,-0.396,0.916,-0.706,0.119,-0.698,2561.60,22.157,24.619,-20.143,0.512,-0.030,0.859,-0.374,0.779,-0.503,2706.48,12.981,10.183,-0.560,0.257,-0.715,0.650,0.992,-0.124,-0.035,11.029,15.924,19.786,-14.870,0.962,-0.092,-0.256,11.718,4.061,12.901,-15.695,none
3.257532,-0.248,0.727,-0.641,2653.81,13.205,37.377,-21.038,-0.008,-0.677,0.736,-0.283,0.396,-0.874,2672.38,16.114,50.134,-30.998,0.048,-0.378,0.924,-0.700,0.088,-0.708,2567.61,26.074,20.703,-26.410,0.506,0.000,0.862,-0.383,0.766,-0.516,2637.72,17.345,10.519,-3.693,0.263,-0.707,0.657,0.990,-0.138,-0.037,10.632,14.137,20.885,-11.740,0.966,-0.094,-0.240,11.256,1.847,13.557,-13.206,none
3.279424,-0.213,0.658,-0.722,2572.18,12.086,45.993,-29.431,0.011,-0.677,0.736,-0.274,0.381,-0.883,2574.86,14.883,45.658,-34.355,0.023,-0.347,0.938,-0.689,0.016,-0.724,2565.76,24.284,16.786,-29.096,0.505,-0.007,0.863,-0.384,0.761,-0.523,2527.54,14.995,11.862,-6.155,0.250,-0.701,0.668,0.989,-0.143,-0.038,10.131,15.145,18.443,-7.359,0.960,-0.109,-0.259,10.696,4.076,11.588,-8.794,none
3.302383,-0.218,0.645,-0.733,2428.60,8.729,43.867,-33.348,-0.023,-0.655,0.755,-0.268,0.317,-0.910,2413.45,14.100,40.510,-33.460,0.017,-0.357,0.934,-0.650,-0.003,-0.760,2599.39,17.793,14.772,-23.612,0.509,0.022,0.860,-0.396,0.746,-0.536,2431.84,10.743,11.191,-6.714,0.227,-0.705,0.672,0.989,-0.145,-0.027,9.772,17.756,14.763,-2.595,0.954,-0.121,-0.276,10.470,9.008,8.931,-6.443,none
3.322419,-0.223,0.643,-0.732,2372.81,5.148,37.824,-30.438,-0.026,-0.640,0.768,-0.295,0.380,-0.877,2394.61,3.805,36.481,-33.348,-0.002,-0.334,0.943,-0.672,-0.047,-0.739,2473.43,7.386,3.357,-14.660,0.524,0.044,0.850,-0.403,0.723,-0.560,2359.63,-2.462,13.653,-10.407,0.210,-0.689,0.694,0.990,-0.140,-0.018,9.458,19.679,10.947,-3.053,0.962,-0.109,-0.252,9.755,15.359,5.679,-8.153,none
3.344848,-0.220,0.668,-0.711,2404.38,12.645,36.146,-37.488,0.020,-0.657,0.754,-0.273,0.347,-0.897,2403.79,6.602,32.341,-36.481,0.016,-0.344,0.939,-0.676,-0.024,-0.737,2428.33,-1.119,6.155,-7.162,0.528,0.045,0.848,-0.397,0.727,-0.561,2375.01,-13.205,15.555,-10.072,0.217,-0.684,0.697,0.991,-0.133,-0.004,9.426,21.985,9.893,-2.076,0.969,-0.098,-0.225,10.022,17.588,1.099,-10.702,none
3.367259,-0.228,0.563,-0.794,2153.04,12.869,31.557,-32.229,-0.012,-0.628,0.778,-0.279,0.412,-0.867,2496.96,8.281,20.255,-35.922,0.008,-0.354,0.935,-0.686,0.013,-0.728,2363.67,-7.498,3.357,-4.588,0.522,0.031,0.852,-0.398,0.726,-0.561,2392.58,-22.157,19.695,-9.400,0.198,-0.688,0.699,0.993,-0.114,0.018,9.598,24.290,6.611,-4.916,0.979,-0.073,-0.190,10.036,19.176,-2.427,-12.504,none
3.390102,-0.201,0.563,-0.801,2292.11,-1.902,29.767,-22.829,-0.021,-0.625,0.781,-0.252,0.209,-0.945,2252.09,13.541,21.262,-37.488,0.024,-0.360,0.933,-0.681,0.041,-0.731,2380.82,-10.519,3.021,-5.036,0.527,0.059,0.848,-0.380,0.756,-0.533,2426.76,-19.136,21.710,-7.498,0.187,-0.697,0.693,0.993,-0.111,0.033,9.813,22.076,2.275,-6.092,0.979,-0.067,-0.195,10.547,13.496,-4.214,-10.382,none
3.412628,-0.172,0.600,-0.782,2512.96,-2.798,19.248,-13.429,-0.021,-0.649,0.760,-0.253,0.289,-0.923,2367.58,-2.014,18.129,-22.941,0.024,-0.361,0.932,-0.672,0.012,-0.740,2456.72,-16.226,5.260,-14.548,0.541,0.073,0.838,-0.364,0.750,-0.552,2483.11,-14.436,22.493,-7.162,0.175,-0.707,0.685,0.995,-0.088,0.045,10.117,19.496,1.176,-5.374,0.976,-0.062,-0.206,10.729,14.611,-4.260,-9.603,none
3.433825,-0.205,0.641,-0.740,2443.61,1.790,16.114,-14.772,-0.050,-0.624,0.779,-0.217,0.291,-0.932,2524.29,-3.581,18.464,-20.479,0.030,-0.334,0.942,-0.690,-0.012,-0.723,2433.28,-11.302,4.141,-11.526,0.519,0.036,0.854,-0.363,0.748,-0.556,2518.34,-8.952,19.472,-7.833,0.171,-0.696,0.697,0.994,-0.067,0.081,10.302,15.847,2.672,-6.748,0.989,-0.027,-0.148,10.830,12.992,-2.031,-10.260,none
3.455033,-0.142,0.579,-0.803,2619.74,2.910,17.233,-13.429,-0.037,-0.636,0.771,-0.225,0.327,-0.918,2573.34,-0.448,14.100,-14.995,0.015,-0.332,0.943,-0.672,-0.023,-0.741,2546.46,-8.505,5.483,-12.757,0.540,0.068,0.839,-0.354,0.751,-0.558,2548.38,-5.819,14.995,-5.595,0.175,-0.689,0.703,0.994,-0.070,0.082,10.661,7.634,2.550,-5.664,0.991,-0.021,-0.136,11.329,3.527,1.145,-7.817,none
3.476881,-0.136,0.563,-0.815,2745.52,12.757,7.050,-9.176,0.004,-0.669,0.744,-0.186,0.268,-0.945,2634.81,6.826,9.960,-14.436,0.037,-0.339,0.940,-0.659,0.031,-0.752,2550.20,-6.043,1.231,-8.169,0.539,0.065,0.840,-0.344,0.751,-0.564,2624.44,-2.574,11.191,-6.155,0.165,-0.691,0.704,0.995,-0.074,0.071,11.779,-0.427,13.374,-0.046,0.991,-0.014,-0.136,12.421,-3.221,8.244,-1.374,none
3.500898,-0.114,0.567,-0.816,2937.02,18.912,-6.938,-2.910,0.012,-0.651,0.759,-0.129,0.294,-0.947,2962.15,10.967,-2.910,-8.281,0.020,-0.314,0.949,-0.658,0.030,-0.753,2613.48,2.014,5.036,-14.995,0.523,0.051,0.851,-0.331,0.758,-0.562,2755.68,-2.350,7.498,-11.974,0.161,-0.699,0.697,0.995,-0.057,0.076,12.439,-4.992,24.473,3.817,0.989,-0.008,-0.148,12.975,-10.412,22.351,5.099,none
3.521946,-0.143,0.623,-0.769,3015.03,26.969,-13.317,-5.371,0.014,-0.628,0.778,-0.172,0.358,-0.918,3011.83,25.403,-8.729,-3.805,0.008,-0.354,0.935,-0.644,0.070,-0.762,2670.42,26.298,-2.014,-26.634,0.526,0.078,0.847,-0.335,0.759,-0.558,2842.10,5.036,1.343,-17.793,0.156,-0.693,0.703,0.994,-0.101,0.029,13.102,-8.168,42.977,19.542,0.978,-0.049,-0.204,13.778,-9.954,35.420,15.038,none
3.798165,-0.146,0.656,-0.740,3223.05,34.131,-19.136,-19.695,-0.016,-0.613,0.790,-0.173,0.414,-0.894,3171.27,35.810,-13.429,-9.848,-0.003,-0.316,0.949,-0.602,0.092,-0.793,2761.24,34.691,3.693,-35.922,0.540,0.095,0.836,-0.329,0.762,-0.557,2919.66,11.750,-6.938,-35.362,0.155,-0.681,0.716,0.994,-0.112,-0.004,13.397,-2.076,55.603,32.305,0.974,-0.052,-0.222,14.525,-2.321,49.771,28.275,none
3.798338,-0.152,0.667,-0.730,3363.58,44.986,-23.388,-30.998,0.019,-0.607,0.794,-0.155,0.391,-0.907,3285.44,45.993,-17.345,-22.381,0.020,-0.316,0.948,-0.601,0.033,-0.799,2927.44,51.477,-17.793,-42.860,0.542,0.140,0.829,-0.337,0.767,-0.546,3031.57,15.443,-11.638,-50.917,0.149,-0.681,0.717,0.994,-0.111,0.013,14.384,3.374,67.313,43.893,0.977,-0.045,-0.210,15.133,3.618,65.573,41.725,none
3.798481,-0.120,0.690,-0.714,3675.04,49.686,-27.193,-44.986,0.018,-0.569,0.822,-0.142,0.432,-0.891,3379.66,57.184,-21.598,-38.608,0.015,-0.248,0.969,-0.632,0.046,-0.773,2782.37,71.844,-16.562,-48.903,0.537,0.150,0.830,-0.306,0.776,-0.552,3109.68,14.100,-19.360,-71.732,0.151,-0.679,0.718,0.996,-0.092,-0.001,14.948,7.573,94.321,67.847,0.978,-0.039,-0.203,15.486,12.000,90.550,60.916,none
3.798578,-0.132,0.690,-0.712,3875.17,74.641,-35.027,-65.689,0.013,-0.576,0.818,-0.147,0.372,-0.917,3530.58,85.832,-40.510,-47.336,0.040,-0.232,0.972,-0.615,-0.016,-0.788,3065.36,94.449,-22.941,-49.910,0.544,0.210,0.813,-0.375,0.768,-0.519,3114.57,25.067,-29.543,-85.384,0.145,-0.705,0.694,0.992,-0.125,0.021,12.616,13.649,113.023,79.099,0.983,-0.080,-0.166,12.906,14.748,104.977,65.038,none
3.798686,-0.250,0.562,-0.789,2751.54,108.437,-41.181,-75.648,0.060,-0.531,0.845,-0.243,0.310,-0.919,2943.40,96.127,-49.015,-48.567,0.029,-0.232,0.972,-0.642,-0.107,-0.759,3027.90,96.351,-37.265,-49.350,0.568,0.243,0.787,-0.446,0.740,-0.503,2861.71,37.936,-32.229,-84.825,0.131,-0.675,0.726,0.980,-0.196,0.040,10.805,20.794,103.481,79.939,0.983,-0.135,-0.127,11.276,13.145,101.328,66.290,none
3.798792,-0.298,0.465,-0.833,2499.30,96.687,-42.300,-70.277,0.057,-0.445,0.894,-0.286,0.148,-0.947,2702.45,94.449,-52.036,-51.589,0.035,-0.189,0.981,-0.658,-0.166,-0.734,3118.28,80.796,-45.658,-45.434,0.563,0.300,0.770,-0.476,0.729,-0.493,2824.28,46.665,-34.019,-81.691,0.131,-0.664,0.736,0.966,-0.254,0.052,10.298,21.450,81.756,69.435,0.971,-0.203,-0.127,10.673,8.687,83.832,61.298,none
3.798898,-0.363,0.499,-0.787,2568.67,81.020,-48.008,-56.960,0.108,-0.474,0.874,-0.386,0.147,-0.911,2593.11,82.586,-65.465,-32.788,0.058,-0.104,0.993,-0.671,-0.045,-0.740,2826.20,58.079,-68.486,-37.488,0.570,0.323,0.756,-0.536,0.691,-0.485,2725.26,45.769,-29.543,-76.655,0.142,-0.665,0.733,0.943,-0.322,0.080,9.679,26.855,70.779,60.137,0.943,-0.294,-0.158,10.191,12.611,73.450,54.061,none
3.798990,-0.488,0.516,-0.704,2291.55,79.117,-46.553,-50.693,0.084,-0.416,0.906,-0.508,0.209,-0.836,2334.98,76.320,-66.136,-32.788,0.077,-0.081,0.994,-0.794,-0.135,-0.593,2389.14,42.188,-80.460,-49.239,0.586,0.347,0.732,-0.580,0.638,-0.507,2552.57,43.867,-19.695,-73.522,0.141,-0.659,0.739,0.928,-0.330,0.174,9.176,35.115,64.382,44.794,0.948,-0.308,-0.085,9.477,22.305,70.046,40.626,none
3.799079,-0.495,0.429,-0.756,2120.45,75.536,-32.117,-52.484,0.121,-0.360,0.925,-0.534,0.140,-0.834,2165.29,74.082,-54.498,-39.838,0.103,-0.061,0.993,-0.819,-0.202,-0.536,2183.17,40.398,-66.248,-50.917,0.580,0.386,0.717,-0.599,0.611,-0.517,2405.78,42.077,-13.541,-70.724,0.146,-0.654,0.742,0.912,-0.306,0.275,9.171,37.740,67.618,34.168,0.963,-0.263,0.051,9.073,25.802,73.954,30.809,none
3.799163,-0.495,0.333,-0.802,2019.24,73.746,-20.814,-52.931,0.134,-0.320,0.938,-0.577,0.038,-0.816,2006.89,77.103,-41.965,-42.524,0.129,-0.002,0.992,-0.832,-0.319,-0.454,2148.99,47.224,-58.415,-53.603,0.595,0.416,0.688,-0.627,0.549,-0.553,2251.44,51.477,-8.952,-66.136,0.156,-0.656,0.738,0.870,-0.287,0.402,8.280,35.527,72.427,27.863,0.946,-0.266,0.185,8.074,21.481,74.809,21.328,none
3.799251,-0.489,0.142,-0.861,1905.69,76.208,-9.064,-44.427,0.138,-0.268,0.953,-0.585,-0.238,-0.776,1895.49,81.244,-25.403,-44.650,0.137,0.053,0.989,-0.821,-0.409,-0.399,2249.57,45.658,-48.120,-47.560,0.590,0.419,0.691,-0.652,0.484,-0.584,2166.07,56.065,-4.029,-50.693,0.166,-0.637,0.753,0.836,-0.320,0.446,7.884,28.122,57.756,18.229,0.917,-0.279,0.286,7.625,14.656,57.313,13.756,none
3.799345,-0.474,0.014,-0.881,1885.13,64.010,-8.617,-32.788,0.148,-0.208,0.967,-0.419,-0.420,-0.805,2082.45,70.053,-11.526,-38.048,0.110,0.084,0.990,-0.797,-0.480,-0.368,2330.84,37.600,-32.565,-29.991,0.591,0.445,0.673,-0.662,0.435,-0.610,2118.38,41.517,-6.043,-37.936,0.174,-0.634,0.753,0.816,-0.322,0.480,8.261,23.511,41.969,15.191,0.919,-0.274,0.283,8.171,8.885,39.008,11.206,none
3.799443,-0.496,-0.012,-0.869,1900.97,42.412,-7.274,-23.612,0.130,-0.197,0.972,-0.460,-0.304,-0.834,2068.60,41.629,-12.869,-19.919,0.122,0.079,0.989,-0.782,-0.431,-0.451,2161.82,27.529,-32.117,-22.045,0.597,0.452,0.663,-0.673,0.393,-0.626,2096.83,28.984,-9.960,-30.662,0.182,-0.628,0.757,0.809,-0.302,0.504,8.598,19.847,34.153,12.779,0.916,-0.264,0.303,8.398,6.397,31.771,10.076,none
3.815836,-0.479,0.057,-0.876,1984.45,31.781,-6.267,-18.576,0.128,-0.169,0.977,-0.533,-0.247,-0.809,1987.01,30.886,-13.205,-14.883,0.133,0.171,0.976,-0.818,-0.485,-0.310,2100.88,27.529,-27.081,-16.674,0.601,0.459,0.655,-0.672,0.391,-0.629,2132.01,23.948,-9.512,-25.850,0.186,-0.620,0.762,0.783,-0.278,0.557,8.463,16.809,33.511,5.573,0.901,-0.269,0.340,8.034,3.298,31.924,2.977,none
3.837413,-0.540,0.003,-0.841,1869.35,32.341,-2.014,-12.869,0.154,-0.187,0.970,-0.558,-0.312,-0.769,1951.31,33.572,-0.671,-9.064,0.107,0.151,0.983,-0.809,-0.470,-0.353,2065.44,29.991,-9.848,-13.764,0.593,0.475,0.650,-0.698,0.358,-0.621,2082.81,29.767,-5.595,-15.891,0.183,-0.625,0.759,0.742,-0.302,0.599,7.977,8.962,32.489,-3.298,0.870,-0.275,0.411,7.710,-3.618,27.817,-6.962,none
3.860531,-0.495,-0.130,-0.859,1920.65,33.572,5.036,-3.805,0.134,-0.150,0.980,-0.489,-0.385,-0.783,2043.18,31.893,5.260,-3.581,0.137,0.165,0.977,-0.782,-0.495,-0.379,2237.36,25.291,-6.938,-12.198,0.605,0.500,0.620,-0.709,0.342,-0.617,2063.82,32.453,-0.336,-4.924,0.200,-0.615,0.763,0.746,-0.333,0.576,8.059,-0.611,18.397,-12.840,0.865,-0.285,0.414,7.909,-14.107,11.863,-12.809,none
3.883403,-0.514,-0.123,-0.849,1944.12,21.374,3.917,9.288,0.148,-0.082,0.986,-0.518,-0.371,-0.771,2062.11,19.807,4.700,8.841,0.116,0.206,0.972,-0.773,-0.493,-0.399,2248.64,9.064,-8.169,-4.364,0.597,0.496,0.631,-0.701,0.330,-0.632,2139.94,18.129,5.371,8.505,0.197,-0.612,0.766,0.772,-0.327,0.545,8.272,-0.809,5.557,-22.656,0.890,-0.313,0.333,8.069,-16.351,-0.412,-19.405,none
3.908077,-0.496,0.018,-0.868,2014.15,3.917,13.429,18.353,0.132,-0.132,0.982,-0.560,-0.334,-0.758,2030.02,4.700,17.122,9.624,0.095,0.207,0.974,-0.781,-0.475,-0.405,2189.48,-0.671,-0.783,-4.812,0.591,0.486,0.644,-0.644,0.378,-0.665,2254.53,9.848,10.407,14.772,0.184,-0.611,0.770,0.798,-0.222,0.560,9.450,-8.198,-3.511,-34.305,0.925,-0.192,0.329,9.284,-18.733,-7.115,-28.382,none
3.931816,-0.375,0.063,-0.925,2273.97,-2.350,15.331,25.179,0.116,-0.147,0.982,-0.370,-0.241,-0.897,2328.21,-2.126,21.710,16.450,0.098,0.191,0.977,-0.799,-0.410,-0.439,2175.27,-3.357,7.050,-3.917,0.582,0.510,0.634,-0.617,0.424,-0.663,2335.76,9.064,13.541,19.024,0.191,-0.612,0.768,0.832,-0.251,0.494,9.645,-21.145,-14.565,-34.718,0.943,-0.161,0.292,10.414,-28.962,-8.794,-23.664,none
4.211433,-0.355,0.132,-0.925,2430.06,-9.736,9.960,31.222,0.079,-0.052,0.996,-0.380,-0.158,-0.911,2421.03,-3.245,17.233,18.912,0.108,0.213,0.971,-0.736,-0.423,-0.529,2456.78,-1.902,15.891,-5.036,0.591,0.503,0.630,-0.600,0.448,-0.663,2453.47,8.729,14.212,22.269,0.183,-0.601,0.778,0.896,-0.223,0.385,11.163,-25.130,-19.389,-34.870,0.961,-0.194,0.196,10.553,-31.435,-11.466,-19.817,none
4.211577,-0.359,0.211,-0.909,2539.79,-13.317,3.021,34.467,0.111,-0.103,0.988,-0.378,-0.147,-0.914,2542.51,-4.924,14.772,19.248,0.091,0.197,0.976,-0.773,-0.390,-0.501,2514.88,1.007,17.905,-1.119,0.587,0.479,0.653,-0.573,0.483,-0.662,2619.82,8.057,11.079,22.941,0.184,-0.604,0.776,0.912,-0.233,0.337,11.341,-18.870,-6.885,-32.168,0.968,-0.172,0.181,11.198,-30.260,-9.435,-23.298,none
4.211693,-0.376,0.314,-0.872,2612.29,-8.505,5.148,34.915,0.123,-0.143,0.982,-0.439,-0.016,-0.898,2501.24,-4.252,22.381,25.179,0.079,0.203,0.976,-0.738,-0.324,-0.592,2542.73,6.826,24.284,0.448,0.579,0.492,0.650,-0.564,0.517,-0.644,2677.31,15.219,8.057,22.829,0.181,-0.604,0.776,0.919,-0.254,0.300,12.017,-16.290,-0.794,-24.977,0.975,-0.194,0.104,12.171,-30.107,-6.718,-17.588,none
4.211805,-0.344,0.397,-0.851,2883.22,-6.602,6.491,29.096,0.086,-0.176,0.981,-0.337,0.097,-0.936,2818.47,-8.169,30.215,12.422,0.070,0.192,0.979,-0.712,-0.315,-0.628,2648.23,6.602,16.674,-9.960,0.558,0.515,0.651,-0.550,0.514,-0.659,2693.16,19.248,7.386,13.429,0.187,-0.607,0.772,0.902,-0.328,0.280,10.910,-23.130,3.634,-15.496,0.976,-0.215,0.028,12.966,-18.275,-1.023,-1.298,none
4.211914,-0.305,0.413,-0.858,3055.51,1.679,3.805,13.876,0.098,-0.208,0.973,-0.265,0.055,-0.963,2993.98,3.021,23.165,-1.119,0.055,0.179,0.982,-0.756,-0.315,-0.573,2521.51,16.338,12.310,-11.862,0.567,0.505,0.651,-0.563,0.511,-0.650,2685.75,15.555,0.560,-0.112,0.193,-0.601,0.776,0.917,-0.308,0.254,10.902,-17.069,-17.252,-29.710,0.970,-0.199,0.142,11.696,-8.626,8.901,7.817,none
4.212009,-0.362,0.336,-0.870,2791.11,20.703,-2.462,-0.671,0.094,-0.175,0.980,-0.352,0.007,-0.936,2786.11,20.031,3.917,-0.783,0.074,0.199,0.977,-0.758,-0.348,-0.552,2565.88,27.976,11.862,-15.107,0.565,0.516,0.644,-0.589,0.498,-0.636,2678.88,9.176,-5.483,-10.183,0.199,-0.617,0.762,0.907,-0.167,0.386,11.929,-5.542,-0.458,-22.321,0.960,-0.209,0.187,10.824,-10.214,13.496,4.901,none
4.212103,-0.405,0.257,-0.877,2541.07,25.738,-2.014,-1.679,0.090,-0.131,0.987,-0.433,-0.075,-0.898,2489.33,26.522,-0.560,-3.357,0.063,0.205,0.977,-0.743,-0.384,-0.549,2580.71,27.193,11.302,-18.688,0.540,0.536,0.649,-0.594,0.485,-0.642,2608.64,18.800,-1.790,-9.512,0.204,-0.599,0.774,0.878,-0.152,0.453,11.669,-16.366,14.687,-13.893,0.952,-0.172,0.253,10.995,-16.076,22.397,2.855,none
4.212196,-0.367,0.218,-0.905,2594.62,31.893,-5.707,2.238,0.077,-0.155,0.985,-0.366,-0.119,-0.923,2570.92,28.536,3.245,-2.462,0.065,0.194,0.979,-0.744,-0.443,-0.501,2613.67,24.284,2.350,-18.017,0.563,0.525,0.638,-0.596,0.473,-0.649,2568.74,27.865,-0.224,-5.819,0.211,-0.593,0.777,0.906,-0.230,0.355,10.764,-16.198,16.580,-4.641,0.952,-0.219,0.215,10.447,-20.504,21.878,4.824,none
4.212277,-0.382,0.180,-0.907,2490.72,28.648,-7.833,1.679,0.089,-0.129,0.988,-0.358,-0.203,-0.911,2518.28,29.096,-1.231,-0.336,0.055,0.200,0.978,-0.703,-0.478,-0.527,2727.16,21.038,2.574,-10.407,0.537,0.536,0.651,-0.600,0.427,-0.677,2503.08,26.410,-3.581,-3.469,0.207,-0.593,0.778,0.896,-0.230,0.380,10.452,-5.954,13.420,1.267,0.945,-0.241,0.219,9.957,-15.405,14.550,5.282,none
4.212365,-0.400,0.154,-0.904,2402.69,20.143,-8.057,1.455,0.090,-0.124,0.988,-0.372,-0.234,-0.898,2477.85,15.779,-4.700,4.812,0.051,0.202,0.978,-0.726,-0.470,-0.502,2586.35,17.793,-4.252,1.455,0.542,0.542,0.643,-0.604,0.430,-0.671,2484.88,17.010,-7.274,-1.343,0.195,-0.589,0.784,0.855,-0.232,0.464,9.629,-10.473,5.588,-6.275,0.922,-0.205,0.330,9.643,-20.305,8.473,-0.168,none
4.212452,-0.418,0.124,-0.900,2347.72,18.800,-7.722,7.945,0.102,-0.106,0.989,-0.431,-0.157,-0.888,2385.14,16.562,-3.469,11.079,0.066,0.258,0.964,-0.756,-0.444,-0.482,2429.86,19.695,-1.567,4.252,0.546,0.554,0.628,-0.619,0.427,-0.659,2455.31,12.757,-8.617,1.231,0.205,-0.587,0.783,0.878,-0.257,0.403,9.816,-18.229,-2.565,-10.412,0.937,-0.256,0.237,9.562,-30.031,-1.038,-0.901,none
4.212535,-0.434,0.167,-0.886,2329.68,14.772,-5.595,11.750,0.078,-0.099,0.992,-0.407,-0.195,-0.892,2363.23,14.324,-2.462,10.855,0.058,0.233,0.971,-0.712,-0.485,-0.507,2523.74,15.555,0.448,3.469,0.541,0.557,0.630,-0.624,0.398,-0.672,2388.87,12.981,-6.379,5.036,0.202,-0.589,0.783,0.901,-0.295,0.317,10.008,-12.901,-6.809,-7.176,0.946,-0.255,0.202,10.207,-25.985,-7.740,3.405,none
4.212616,-0.410,0.144,-0.900,2365.45,7.274,-8.952,10.295,0.086,-0.090,0.992,-0.366,-0.201,-0.909,2439.64,4.924,-8.841,12.086,0.060,0.244,0.968,-0.742,-0.455,-0.492,2459.33,7.050,-0.560,7.833,0.558,0.560,0.613,-0.620,0.417,-0.664,2419.82,8.169,-6.379,5.371,0.204,-0.592,0.780,0.900,-0.249,0.359,10.460,-3.802,-8.260,-1.099,0.947,-0.240,0.211,10.186,-25.786,-10.870,9.053,none
4.232911,-0.422,0.204,-0.883,2391.19,-3.693,-12.645,10.407,0.100,-0.088,0.991,-0.442,-0.124,-0.888,2372.99,-1.007,-10.855,12.086,0.087,0.216,0.972,-0.738,-0.445,-0.507,2465.13,3.021,-1.455,10.967,0.529,0.558,0.639,-0.615,0.424,-0.665,2474.50,-1.007,-8.617,4.029,0.202,-0.585,0.786,0.894,-0.231,0.384,10.524,-5.466,-3.313,2.626,0.950,-0.244,0.194,10.380,-18.458,-7.481,5.328,none
4.254259,-0.413,0.199,-0.888,2442.57,-2.686,-11.302,7.833,0.100,-0.140,0.985,-0.388,-0.138,-0.911,2496.97,-2.014,-6.602,8.729,0.066,0.294,0.954,-0.766,-0.399,-0.504,2383.50,2.910,-1.902,11.974,0.536,0.524,0.662,-0.612,0.457,-0.646,2487.06,-2.686,-8.281,3.693,0.198,-0.577,0.792,0.902,-0.238,0.359,10.689,-7.313,1.863,4.504,0.947,-0.234,0.218,10.484,-21.008,-3.542,5.053,none
4.276010,-0.415,0.224,-0.882,2482.95,-0.895,-14.548,10.183,0.091,-0.139,0.986,-0.421,-0.084,-0.903,2465.25,-0.336,-10.855,13.317,0.046,0.211,0.976,-0.762,-0.420,-0.493,2475.62,5.371,-1.902,7.498,0.537,0.563,0.628,-0.619,0.455,-0.641,2522.04,5.260,-6.714,5.371,0.198,-0.578,0.791,0.902,-0.261,0.345,10.599,-6.687,5.053,6.992,0.947,-0.269,0.173,10.545,-20.275,-0.962,6.244,none
4.685331,-0.423,0.206,-0.883,2505.25,2.574,-14.548,8.952,0.108,-0.149,0.983,-0.432,-0.135,-0.892,2474.48,2.574,-10.855,10.855,0.092,0.235,0.968,-0.778,-0.402,-0.482,2410.02,6.155,-0.112,7.945,0.536,0.553,0.637,-0.621,0.447,-0.644,2542.79,10.183,-5.036,6.491,0.199,-0.584,0.787,0.891,-0.280,0.358,10.297,-4.504,8.290,7.176,0.941,-0.273,0.201,10.415,-18.214,-1.053,4.366,none
4.685474,-0.473,0.217,-0.854,2426.85,3.693,-15.107,9.960,0.123,-0.131,0.984,-0.462,-0.104,-0.881,2459.65,3.917,-10.072,12.757,0.083,0.246,0.966,-0.778,-0.405,-0.480,2397.91,7.722,3.917,4.252,0.549,0.533,0.644,-0.633,0.423,-0.648,2525.09,12.869,-3.693,5.931,0.198,-0.582,0.788,0.880,-0.288,0.378,10.135,-2.534,5.038,3.435,0.934,-0.292,0.207,10.200,-17.679,1.969,2.992,none
4.685562,-0.494,0.210,-0.844,2364.09,6.267,-11.526,9.176,0.075,-0.145,0.987,-0.483,-0.148,-0.863,2396.82,5.371,-9.400,9.512,0.110,0.257,0.960,-0.758,-0.434,-0.487,2463.91,6.155,6.714,0.448,0.534,0.574,0.621,-0.643,0.410,-0.646,2485.24,9.512,-1.119,5.371,0.185,-0.582,0.792,0.889,-0.319,0.329,9.859,3.160,1.237,2.977,0.928,-0.310,0.204,10.026,-16.183,1.176,1.664,none
4.685647,-0.493,0.201,-0.846,2367.58,3.917,-6.938,6.491,0.120,-0.107,0.987,-0.489,-0.169,-0.856,2384.88,0.560,-7.050,6.379,0.082,0.229,0.970,-0.752,-0.449,-0.482,2508.23,2.126,7.945,0.448,0.540,0.554,0.633,-0.646,0.407,-0.646,2458.35,5.931,0.895,6.267,0.195,-0.583,0.788,0.875,-0.316,0.366,9.772,7.908,-6.153,-0.840,0.927,-0.313,0.207,9.995,-11.740,-4.015,1.176,none
4.685738,-0.488,0.150,-0.860,2331.86,0.112,-2.910,3.245,0.091,-0.058,0.994,-0.457,-0.192,-0.869,2403.91,-4.924,-2.574,4.700,0.074,0.204,0.976,-0.756,-0.448,-0.477,2495.08,-4.252,6.379,3.917,0.538,0.549,0.640,-0.646,0.403,-0.648,2431.91,0.560,2.238,8.169,0.186,-0.577,0.796,0.870,-0.266,0.416,10.298,-0.336,-6.550,0.397,0.917,-0.292,0.271,9.436,-11.817,-10.748,-0.504,none
4.685820,-0.444,0.135,-0.886,2362.93,-7.386,-2.350,6.379,0.101,-0.091,0.991,-0.426,-0.187,-0.885,2416.29,-9.624,-3.693,6.491,0.076,0.284,0.956,-0.754,-0.451,-0.477,2434.77,-5.819,4.029,7.833,0.529,0.531,0.662,-0.634,0.407,-0.657,2412.19,-3.245,-0.224,9.064,0.200,-0.576,0.793,0.877,-0.299,0.375,9.941,0.626,-6.351,0.885,0.932,-0.278,0.234,10.066,-12.580,-16.672,-4.779,none
4.685900,-0.466,0.162,-0.870,2336.36,-10.295,-2.462,8.281,0.081,-0.114,0.990,-0.482,-0.164,-0.861,2336.87,-10.407,-4.924,9.624,0.079,0.223,0.972,-0.751,-0.449,-0.484,2420.77,-6.714,4.364,9.624,0.532,0.520,0.668,-0.630,0.408,-0.661,2429.04,-6.714,-0.560,9.736,0.197,-0.575,0.794,0.879,-0.292,0.376,10.032,3.695,-6.565,0.565,0.933,-0.291,0.209,9.932,-11.008,-16.397,-4.000,none
4.685984,-0.460,0.185,-0.868,2364.86,-12.086,-2.014,8.505,0.099,-0.137,0.986,-0.468,-0.154,-0.870,2365.49,-12.422,0.224,8.617,0.086,0.221,0.972,-0.756,-0.440,-0.486,2431.48,-8.841,2.014,10.855,0.546,0.533,0.647,-0.628,0.414,-0.659,2437.92,-8.393,0.000,9.960,0.197,-0.576,0.793,0.888,-0.292,0.355,10.110,3.634,-4.366,0.198,0.939,-0.278,0.204,10.009,-9.618,-19.435,-5.313,none
4.686089,-0.461,0.200,-0.865,2339.84,-14.324,0.895,7.274,0.099,-0.137,0.986,-0.439,-0.148,-0.886,2389.90,-14.772,1.343,8.952,0.085,0.204,0.975,-0.759,-0.443,-0.477,2432.64,-9.624,2.798,14.772,0.530,0.543,0.651,-0.615,0.439,-0.654,2455.57,-9.176,-0.560,10.967,0.197,-0.581,0.790,0.891,-0.274,0.362,10.170,5.160,-4.779,-0.427,0.945,-0.260,0.197,10.148,-9.573,-20.473,-5.069,none
4.686179,-0.438,0.208,-0.874,2392.46,-15.331,1.567,7.610,0.088,-0.116,0.989,-0.453,-0.124,-0.883,2377.12,-17.122,3.133,9.736,0.095,0.174,0.980,-0.759,-0.405,-0.511,2446.90,-9.512,0.895,17.010,0.534,0.534,0.655,-0.597,0.468,-0.652,2495.77,-9.288,-0.112,11.862,0.189,-0.571,0.799,0.900,-0.258,0.352,10.528,4.794,-2.290,-1.893,0.954,-0.247,0.168,10.606,-10.122,-19.725,-7.847,none
4.686259,-0.414,0.297,-0.861,2534.30,-14.436,2.798,10.295,0.118,-0.164,0.979,-0.399,-0.055,-0.915,2528.58,-18.241,5.483,14.212,0.080,0.188,0.979,-0.757,-0.332,-0.562,2361.94,-7.833,4.924,15.331,0.547,0.519,0.657,-0.593,0.475,-0.650,2515.95,-9.176,0.783,9.512,0.193,-0.579,0.792,0.910,-0.277,0.310,10.641,6.748,-1.466,0.824,0.959,-0.258,0.116,10.977,-6.550,-14.641,-4.183,none
4.686350,-0.403,0.306,-0.863,2583.74,-13.093,1.119,5.595,0.113,-0.119,0.986,-0.419,0.026,-0.908,2571.82,-14.212,0.671,8.169,0.087,0.201,0.976,-0.723,-0.383,-0.575,2582.83,-6.602,5.148,8.952,0.558,0.508,0.656,-0.582,0.478,-0.658,2544.46,-7.833,0.671,6.155,0.191,-0.583,0.790,0.910,-0.269,0.316,10.615,13.893,-3.908,2.885,0.958,-0.239,0.158,10.809,-1.954,-14.504,-1.237,none
4.686436,-0.415,0.281,-0.865,2530.50,-12.869,0.224,1.007,0.102,-0.157,0.982,-0.419,-0.091,-0.904,2506.42,-9.288,0.112,0.560,0.080,0.160,0.984,-0.743,-0.361,-0.564,2527.52,-7.498,2.126,11.302,0.551,0.504,0.665,-0.584,0.484,-0.652,2554.67,-9.848,-0.560,4.252,0.185,-0.583,0.791,0.898,-0.248,0.364,10.609,17.206,-7.130,4.885,0.957,-0.226,0.183,10.712,-4.031,-13.496,0.443,none
4.686530,-0.395,0.231,-0.889,2528.98,-11.750,0.224,-0.224,0.078,-0.118,0.990,-0.398,-0.086,-0.913,2535.04,-12.757,0.895,1.567,0.074,0.144,0.987,-0.748,-0.392,-0.536,2550.56,-9.288,1.119,9.848,0.558,0.508,0.656,-0.577,0.492,-0.652,2568.89,-10.183,-1.119,3.805,0.190,-0.575,0.796,0.900,-0.244,0.361,10.878,11.344,-6.412,2.290,0.960,-0.223,0.170,11.067,-6.824,-11.939,0.290,none
4.686612,-0.384,0.278,-0.881,2632.31,-12.422,-2.238,3.581,0.081,-0.132,0.988,-0.407,-0.031,-0.913,2576.54,-10.743,-2.910,5.819,0.074,0.155,0.985,-0.772,-0.349,-0.532,2443.77,-2.910,2.126,7.386,0.559,0.525,0.642,-0.578,0.491,-0.652,2598.39,-4.588,-3.021,3.021,0.184,-0.577,0.796,0.905,-0.259,0.338,10.951,8.779,-0.397,5.359,0.957,-0.251,0.145,10.911,-6.397,-7.176,1.786,none
4.686693,-0.424,0.296,-0.856,2570.03,-3.917,-2.910,0.783,0.125,-0.224,0.967,-0.419,-0.035,-0.907,2572.46,-5.260,-2.462,4.141,0.110,0.135,0.985,-0.738,-0.366,-0.567,2569.09,-0.671,1.119,6.491,0.556,0.504,0.661,-0.593,0.479,-0.647,2578.27,-1.007,-2.910,1.790,0.186,-0.581,0.792,0.895,-0.302,0.328,10.445,11.603,-0.305,6.550,0.949,-0.285,0.135,10.524,-2.366,-7.099,1.908,none
4.686778,-0.452,0.268,-0.851,2472.27,-5.483,-2.910,-1.790,0.106,-0.203,0.973,-0.434,-0.074,-0.898,2532.12,-3.805,-4.924,1.902,0.100,0.107,0.989,-0.753,-0.370,-0.545,2545.64,-2.686,-0.560,6.602,0.579,0.492,0.650,-0.601,0.475,-0.643,2561.81,-3.245,-2.910,0.895,0.185,-0.579,0.794,0.892,-0.297,0.342,10.352,12.611,-2.443,4.382,0.950,-0.263,0.165,10.441,0.656,-10.534,0.992,none
4.687548,-0.444,0.268,-0.855,2471.83,-7.274,-2.238,-2.238,0.107,-0.146,0.984,-0.451,-0.053,-0.891,2454.16,-6.826,-5.371,1.119,0.079,0.176,0.981,-0.754,-0.352,-0.554,2502.49,-5.371,-2.686,5.483,0.564,0.480,0.672,-0.597,0.480,-0.643,2531.58,-6.267,-1.902,-0.224,0.188,-0.591,0.785,0.893,-0.271,0.359,10.524,12.321,-3.405,2.992,0.954,-0.250,0.168,10.580,-0.351,-9.969,0.092,none
4.687660,-0.420,0.277,-0.864,2499.25,-4.812,-2.126,-1.679,0.107,-0.195,0.975,-0.412,-0.051,-0.910,2521.63,-6.938,-4.141,0.671,0.092,0.164,0.982,-0.777,-0.353,-0.521,2415.74,-3.357,-3.693,3.469,0.538,0.494,0.682,-0.596,0.483,-0.642,2519.20,-5.707,-1.343,-1.567,0.185,-0.580,0.794,0.895,-0.268,0.358,10.525,11.435,-1.084,2.916,0.955,-0.246,0.167,10.507,0.000,-7.115,-0.305,none
4.697130,-0.419,0.259,-0.870,2483.19,-3.469,-2.462,-1.567,0.119,-0.172,0.978,-0.457,-0.057,-0.887,2441.85,-3.021,-6.938,1.902,0.091,0.132,0.987,-0.764,-0.369,-0.530,2471.03,-0.448,-1.343,3.357,0.557,0.484,0.675,-0.599,0.481,-0.641,2507.32,-1.007,-1.902,-1.007,0.177,-0.587,0.790,0.888,-0.279,0.365,10.259,9.450,0.489,3.344,0.950,-0.264,0.170,10.343,-0.366,-6.092,-1.252,none
4.718753,-0.462,0.276,-0.843,2399.95,-2.462,-3.021,-0.671,0.103,-0.180,0.978,-0.447,-0.052,-0.893,2458.59,-0.783,-3.805,1.343,0.083,0.134,0.987,-0.754,-0.351,-0.555,2462.09,-1.567,-1.455,3.245,0.553,0.500,0.666,-0.605,0.475,-0.639,2498.50,-0.895,-1.790,-0.560,0.180,-0.584,0.792,0.893,-0.291,0.344,10.236,9.511,-0.779,0.458,0.951,-0.271,0.151,10.320,0.336,-6.031,-1.679,none
4.741362,-0.438,0.268,-0.858,2439.49,-3.245,0.000,-2.462,0.101,-0.144,0.984,-0.449,-0.065,-0.891,2443.34,-1.455,-2.798,-0.560,0.089,0.158,0.983,-0.769,-0.356,-0.531,2427.34,-3.133,-2.686,0.783,0.571,0.509,0.644,-0.606,0.484,-0.632,2494.26,-2.350,-0.112,-1.119,0.179,-0.591,0.787,0.891,-0.284,0.354,10.228,10.687,-0.489,-0.626,0.951,-0.263,0.160,10.232,1.893,-6.443,-2.687,none
5.038199,-0.447,0.267,-0.854,2414.71,-2.574,0.448,-2.462,0.100,-0.142,0.985,-0.459,-0.073,-0.886,2435.57,-2.014,-2.462,-1.119,0.092,0.148,0.985,-0.772,-0.371,-0.516,2457.79,-2.238,-0.112,-0.560,0.556,0.473,0.684,-0.603,0.474,-0.642,2504.90,-1.902,1.790,-1.007,0.187,-0.587,0.787,0.889,-0.281,0.362,10.247,10.427,-1.832,-2.076,0.951,-0.243,0.193,10.330,1.496,-9.038,-3.863,none
5.038350,-0.431,0.232,-0.872,2433.62,-3.245,1.231,-0.560,0.124,-0.215,0.969,-0.440,-0.104,-0.892,2451.65,-2.350,-1.119,-0.671,0.091,0.142,0.986,-0.765,-0.376,-0.523,2504.00,-3.693,1.902,0.560,0.578,0.480,0.660,-0.598,0.473,-0.648,2511.14,-2.798,2.014,0.560,0.172,-0.589,0.790,0.890,-0.275,0.364,10.423,10.809,-4.901,-2.076,0.953,-0.246,0.177,10.458,-0.672,-11.069,-3.267,none
5.038463,-0.425,0.245,-0.871,2468.45,-6.043,0.671,0.112,0.074,-0.217,0.973,-0.430,-0.068,-0.900,2483.66,-4.812,-2.126,1.902,0.090,0.126,0.988,-0.751,-0.386,-0.536,2513.72,-4.924,-1.007,1.679,0.570,0.490,0.660,-0.588,0.472,-0.657,2536.21,-4.476,0.671,0.895,0.174,-0.588,0.790,0.893,-0.252,0.373,10.640,10.198,-3.664,-1.374,0.958,-0.223,0.181,10.691,-0.534,-10.443,-2.534,none
5.038578,-0.415,0.264,-0.871,2480.77,-5.483,1.567,-1.343,0.109,-0.158,0.981,-0.443,-0.064,-0.894,2456.73,-4.588,-1.790,0.336,0.098,0.117,0.988,-0.764,-0.375,-0.525,2456.19,-2.238,0.000,3.469,0.554,0.492,0.672,-0.590,0.481,-0.648,2526.16,-3.469,-0.112,0.783,0.176,-0.587,0.790,0.889,-0.255,0.380,10.515,7.328,-1.130,-0.733,0.955,-0.229,0.188,10.515,-3.618,-6.092,-1.756,none
5.038663,-0.424,0.265,-0.866,2471.38,-3.805,0.671,0.000,0.119,-0.173,0.978,-0.448,-0.053,-0.892,2449.66,-2.686,1.231,0.783,0.077,0.150,0.986,-0.754,-0.364,-0.547,2448.19,-0.560,2.014,2.014,0.541,0.484,0.687,-0.597,0.474,-0.647,2482.16,-1.119,-1.007,1.455,0.177,-0.588,0.789,0.890,-0.278,0.362,10.295,6.168,-0.626,-1.252,0.954,-0.253,0.164,10.319,-4.290,-5.618,-2.290,none
5.038760,-0.433,0.280,-0.857,2443.08,-0.448,0.112,-0.224,0.105,-0.191,0.976,-0.435,-0.056,-0.899,2454.81,-1.119,0.895,0.560,0.098,0.117,0.988,-0.756,-0.375,-0.537,2455.63,-1.007,-0.336,0.895,0.559,0.483,0.674,-0.600,0.470,-0.647,2483.43,-0.895,-0.448,0.560,0.183,-0.590,0.786,0.892,-0.279,0.356,10.225,7.252,-1.695,-0.870,0.953,-0.254,0.163,10.235,-2.351,-6.595,-1.527,none
5.038860,-0.434,0.246,-0.866,2414.72,-1.231,1.343,-1.119,0.113,-0.194,0.975,-0.456,-0.090,-0.885,2405.27,-1.679,-0.671,-0.560,0.081,0.177,0.981,-0.767,-0.369,-0.525,2472.64,-1.343,0.112,3.357,0.556,0.481,0.678,-0.606,0.476,-0.637,2491.48,-2.350,-1.231,1.119,0.184,-0.587,0.788,0.889,-0.288,0.356,10.184,6.611,-3.496,-0.534,0.951,-0.258,0.170,10.217,-2.672,-9.252,-2.397,none
5.038942,-0.444,0.235,-0.865,2408.50,-5.260,1.007,0.560,0.104,-0.177,0.979,-0.455,-0.057,-0.889,2437.74,-4.812,1.679,1.119,0.088,0.116,0.989,-0.763,-0.353,-0.541,2471.36,-3.469,1.231,3.133,0.567,0.487,0.664,-0.608,0.473,-0.638,2486.73,-4.700,-1.119,2.014,0.187,-0.594,0.782,0.891,-0.281,0.356,10.297,7.069,-4.076,-1.863,0.955,-0.254,0.156,10.378,-1.878,-9.802,-2.656,none
5.039031,-0.434,0.276,-0.858,2440.30,-7.162,1.231,0.783,0.094,-0.170,0.981,-0.456,-0.057,-0.888,2427.97,-6.043,2.126,0.112,0.084,0.159,0.984,-0.774,-0.364,-0.518,2449.66,-3.581,1.007,4.364,0.557,0.468,0.686,-0.599,0.485,-0.637,2505.77,-5.595,-0.560,1.679,0.180,-0.587,0.790,0.893,-0.272,0.358,10.412,6.443,-4.076,-1.924,0.955,-0.230,0.187,10.468,-2.947,-10.290,-2.702,none
5.039120,-0.425,0.259,-0.867,2446.72,-6.491,1.119,0.112,0.087,-0.178,0.980,-0.441,-0.060,-0.895,2465.06,-6.491,3.917,0.783,0.081,0.144,0.986,-0.775,-0.354,-0.524,2461.41,-3.245,2.686,4.700,0.565,0.483,0.669,-0.597,0.491,-0.634,2515.53,-4.364,-0.895,3.021,0.180,-0.591,0.787,0.895,-0.274,0.353,10.454,5.725,-4.076,-1.542,0.957,-0.245,0.152,10.522,-5.069,-9.679,-2.092,none
5.039199,-0.437,0.301,-0.848,2468.05,-7.050,0.671,1.679,0.096,-0.188,0.977,-0.439,-0.024,-0.898,2478.39,-5.595,4.029,2.126,0.084,0.148,0.985,-0.753,-0.348,-0.559,2480.77,-3.021,2.126,3.805,0.573,0.459,0.679,-0.597,0.484,-0.639,2512.15,-3.133,-1.119,2.574,0.187,-0.587,0.788,0.899,-0.280,0.337,10.481,6.076,-2.809,-1.481,0.959,-0.242,0.150,10.541,-2.885,-9.695,-2.000,none
5.039279,-0.414,0.274,-0.868,2489.44,-4.364,2.350,-0.895,0.091,-0.211,0.973,-0.423,-0.048,-0.905,2503.17,-4.588,2.238,-0.112,0.094,0.117,0.989,-0.767,-0.345,-0.541,2473.15,-2.574,0.671,3.581,0.579,0.467,0.668,-0.594,0.493,-0.636,2526.31,-3.357,-1.119,1.007,0.177,-0.594,0.785,0.896,-0.267,0.356,10.528,5.466,-3.221,-0.443,0.958,-0.236,0.164,10.583,-4.244,-9.191,-0.916,none
5.039367,-0.437,0.277,-0.856,2468.05,-4.141,0.895,0.224,0.126,-0.236,0.964,-0.445,-0.055,-0.894,2490.34,-4.364,2.686,0.671,0.082,0.137,0.987,-0.769,-0.355,-0.532,2515.98,-2.014,1.343,3.693,0.580,0.462,0.671,-0.595,0.495,-0.633,2555.06,-3.917,-1.679,1.343,0.177,-0.592,0.786,0.902,-0.285,0.325,10.607,5.191,-3.649,-0.565,0.959,-0.245,0.140,10.681,-3.908,-11.023,-1.023,none
5.040884,-0.412,0.299,-0.861,2545.58,-7.274,4.364,-1.231,0.089,-0.206,0.974,-0.417,-0.039,-0.908,2515.32,-5.483,4.364,0.560,0.075,0.139,0.987,-0.748,-0.346,-0.567,2550.59,-2.238,1.343,4.252,0.550,0.484,0.680,-0.593,0.500,-0.631,2530.54,-3.469,-2.574,1.679,0.177,-0.588,0.789,0.901,-0.274,0.336,10.594,6.153,-3.924,1.298,0.964,-0.242,0.113,10.526,-1.847,-9.756,-0.122,none
6.594089,-0.400,0.287,-0.871,2551.29,-7.162,1.007,-1.343,0.108,-0.222,0.969,-0.405,-0.016,-0.914,2542.85,-6.714,-0.112,1.343,0.057,0.116,0.992,-0.761,-0.343,-0.551,2518.62,-2.686,-2.910,5.819,0.576,0.484,0.659,-0.591,0.502,-0.632,2541.86,-3.357,-4.029,0.671,0.173,-0.588,0.790,0.905,-0.277,0.324,10.635,6.214,-3.237,4.092,0.963,-0.227,0.146,10.866,-3.389,-9.481,3.328,none
6.596507,-0.410,0.293,-0.864,2535.40,-7.945,3.917,-7.050,0.099,-0.208,0.973,-0.434,-0.036,-0.900,2483.89,-4.588,-0.783,0.000,0.088,0.103,0.991,-0.765,-0.336,-0.549,2506.33,-1.567,-3.245,6.379,0.564,0.468,0.680,-0.600,0.499,-0.626,2536.19,-4.700,-5.483,-0.895,0.176,-0.600,0.780,0.902,-0.286,0.323,10.496,6.702,-2.672,5.618,0.959,-0.255,0.124,10.449,-1.695,-9.542,3.985,none
6.596607,-0.427,0.300,-0.853,2477.26,-7.386,0.224,-6.155,0.121,-0.193,0.974,-0.416,-0.054,-0.908,2548.55,-4.029,1.790,-2.686,0.082,0.094,0.992,-0.768,-0.346,-0.539,2518.91,-1.790,-2.910,6.826,0.580,0.480,0.658,-0.597,0.496,-0.631,2530.88,-5.595,-5.931,-1.343,0.182,-0.608,0.773,0.905,-0.292,0.308,10.659,9.969,-0.214,8.519,0.957,-0.252,0.141,10.449,1.420,-12.473,3.557,none
6.596696,-0.432,0.279,-0.858,2450.79,-8.169,2.350,-7.722,0.094,-0.241,0.966,-0.458,-0.045,-0.888,2418.50,-8.281,-0.783,-3.245,0.080,0.070,0.994,-0.765,-0.349,-0.541,2527.25,-4.141,-4.588,8.729,0.542,0.487,0.684,-0.602,0.497,-0.625,2524.95,-6.267,-6.379,-1.007,0.178,-0.599,0.781,0.893,-0.291,0.344,10.342,12.015,-1.435,9.267,0.958,-0.254,0.130,10.489,3.252,-15.115,3.771,none
6.596799,-0.430,0.306,-0.850,2487.30,-12.086,2.686,-8.281,0.095,-0.253,0.963,-0.425,-0.044,-0.904,2493.67,-9.848,3.469,-5.260,0.075,0.114,0.991,-0.774,-0.331,-0.539,2462.28,-5.371,-6.043,10.407,0.578,0.479,0.660,-0.607,0.498,-0.619,2519.21,-7.945,-7.722,-0.895,0.185,-0.600,0.779,0.896,-0.290,0.336,10.634,12.366,1.008,8.641,0.957,-0.252,0.143,10.596,2.748,-11.878,3.450,none
6.596891,-0.437,0.300,-0.848,2443.72,-10.183,3.805,-9.624,0.125,-0.211,0.970,-0.442,-0.000,-0.897,2459.71,-9.288,2.126,-3.917,0.082,0.093,0.992,-0.788,-0.317,-0.529,2382.12,-4.812,-7.050,9.512,0.586,0.464,0.665,-0.612,0.491,-0.620,2498.06,-7.498,-7.274,-1.679,0.193,-0.601,0.775,0.886,-0.305,0.349,10.139,15.267,9.389,8.046,0.953,-0.263,0.151,10.186,2.031,-6.733,2.519,none
6.596983,-0.447,0.291,-0.846,2415.02,-4.924,1.679,-7.162,0.121,-0.191,0.974,-0.476,-0.046,-0.878,2367.33,-3.133,1.007,-4.364,0.095,0.122,0.988,-0.811,-0.325,-0.487,2326.42,0.671,-2.350,4.924,0.573,0.477,0.667,-0.626,0.486,-0.609,2459.47,-2.798,-4.700,-2.238,0.184,-0.603,0.777,0.868,-0.314,0.386,9.675,16.763,7.740,2.962,0.948,-0.272,0.168,9.889,0.534,-5.725,-0.992,none
6.597082,-0.469,0.239,-0.850,2322.62,-0.783,2.462,-3.133,0.102,-0.233,0.967,-0.464,-0.071,-0.883,2365.96,-1.007,2.462,-2.686,0.068,0.103,0.992,-0.802,-0.329,-0.498,2351.83,0.671,0.671,3.581,0.565,0.481,0.670,-0.633,0.484,-0.604,2433.29,-0.560,-1.343,-0.336,0.185,-0.595,0.782,0.866,-0.304,0.396,9.627,14.473,1.893,-2.473,0.947,-0.269,0.173,9.784,-1.710,-6.901,-3.939,none
6.597177,-0.467,0.253,-0.847,2308.35,-2.238,3.357,0.448,0.138,-0.269,0.953,-0.476,-0.064,-0.877,2327.07,-1.119,4.700,0.112,0.056,0.111,0.992,-0.791,-0.320,-0.521,2359.79,-1.231,4.252,2.350,0.581,0.459,0.673,-0.631,0.485,-0.606,2426.34,-0.560,1.343,2.350,0.196,-0.602,0.774,0.873,-0.304,0.381,9.813,11.985,-2.061,-6.840,0.952,-0.265,0.155,9.961,-3.267,-7.145,-6.733,none
6.597377,-0.461,0.288,-0.839,2339.76,-2.686,4.812,3.021,0.093,-0.230,0.969,-0.460,-0.029,-0.887,2387.61,-2.462,7.050,0.783,0.099,0.102,0.990,-0.793,-0.334,-0.509,2378.09,-1.679,5.371,0.000,0.576,0.449,0.683,-0.619,0.491,-0.614,2458.65,-0.783,4.252,3.357,0.173,-0.592,0.787,0.881,-0.289,0.373,10.090,10.916,-3.206,-10.198,0.956,-0.257,0.144,10.087,-3.344,-7.084,-9.527,none
6.597466,-0.442,0.289,-0.849,2394.75,-2.462,7.386,3.245,0.106,-0.203,0.973,-0.444,-0.033,-0.896,2430.57,-2.126,9.064,0.560,0.068,0.093,0.993,-0.774,-0.330,-0.541,2526.78,-1.455,6.714,-0.112,0.573,0.454,0.682,-0.609,0.495,-0.620,2498.11,-1.343,5.483,4.252,0.175,-0.600,0.781,0.890,-0.284,0.357,10.387,10.885,-3.466,-11.435,0.959,-0.241,0.148,10.469,-2.015,-7.832,-10.595,none
6.597550,-0.410,0.290,-0.865,2486.80,-2.462,8.169,3.469,0.079,-0.198,0.977,-0.418,-0.040,-0.908,2463.40,-2.350,10.743,0.783,0.054,0.084,0.995,-0.780,-0.326,-0.534,2466.84,-3.805,2.574,-0.783,0.581,0.459,0.673,-0.597,0.500,-0.627,2529.57,-0.448,6.043,4.700,0.177,-0.593,0.786,0.890,-0.256,0.378,10.665,9.099,-4.519,-11.191,0.963,-0.217,0.163,10.670,-3.924,-7.115,-9.420,none
6.597631,-0.396,0.277,-0.876,2502.56,-3.021,6.379,4.029,0.110,-0.232,0.966,-0.404,-0.039,-0.914,2522.14,-1.902,8.617,1.567,0.074,0.079,0.994,-0.775,-0.332,-0.537,2508.01,-1.007,6.714,-0.112,0.592,0.453,0.667,-0.591,0.506,-0.628,2557.34,0.336,4.924,5.483,0.176,-0.593,0.786,0.899,-0.269,0.346,10.734,4.412,-3.328,-8.656,0.964,-0.217,0.151,10.806,-6.031,-7.053,-7.985,none
6.598081,-0.396,0.302,-0.867,2549.24,-3.693,5.260,5.148,0.104,-0.254,0.962,-0.400,-0.039,-0.916,2527.67,-1.902,7.498,2.238,0.056,0.111,0.992,-0.751,-0.342,-0.565,2576.47,-1.567,5.036,1.455,0.578,0.462,0.673,-0.586,0.502,-0.636,2559.56,-0.671,2.910,5.595,0.169,-0.591,0.789,0.899,-0.263,0.350,10.724,5.389,-4.443,-7.374,0.965,-0.224,0.136,10.714,-5.863,-8.763,-6.198,none
6.598165,-0.398,0.303,-0.866,2540.58,-2.350,3.693,4.588,0.104,-0.264,0.959,-0.400,-0.028,-0.916,2525.79,-3.357,6.938,2.462,0.052,0.132,0.990,-0.765,-0.334,-0.551,2555.25,-1.231,2.350,3.469,0.571,0.452,0.686,-0.590,0.509,-0.627,2561.79,-1.567,1.007,5.371,0.180,-0.591,0.786,0.897,-0.254,0.362,10.579,2.031,-3.069,-5.740,0.964,-0.219,0.148,10.586,-5.802,-9.206,-5.878,none
6.598248,-0.409,0.296,-0.863,2469.23,-1.902,4.924,3.917,0.078,-0.238,0.968,-0.426,-0.032,-0.904,2462.96,-3.805,7.498,2.014,0.075,0.073,0.995,-0.774,-0.318,-0.547,2497.90,-0.783,2.686,4.252,0.576,0.470,0.668,-0.597,0.511,-0.619,2533.02,0.224,0.560,6.826,0.176,-0.599,0.781,0.892,-0.266,0.366,10.299,-1.664,-2.977,-7.160,0.962,-0.228,0.152,10.348,-9.221,-8.351,-6.962,none
6.598344,-0.409,0.279,-0.869,2444.10,0.336,3.805,7.833,0.079,-0.206,0.975,-0.414,-0.040,-0.909,2460.15,-3.805,8.505,4.029,0.059,0.090,0.994,-0.791,-0.333,-0.513,2471.78,-0.560,2.350,5.260,0.577,0.448,0.683,-0.597,0.514,-0.616,2497.95,1.231,1.567,8.952,0.174,-0.601,0.781,0.889,-0.254,0.381,10.302,-5.710,-2.458,-9.573,0.962,-0.229,0.149,10.234,-11.466,-8.122,-9.038,none
8.096464,-0.423,0.298,-0.856,2386.80,-0.895,4.364,10.295,0.074,-0.289,0.955,-0.440,-0.033,-0.897,2383.69,-3.245,5.260,9.736,0.067,0.070,0.995,-0.772,-0.351,-0.531,2484.43,0.000,-0.671,6.043,0.567,0.445,0.693,-0.596,0.501,-0.627,2484.73,3.021,2.462,10.967,0.169,-0.597,0.785,0.895,-0.265,0.358,10.115,-9.863,-1.985,-11.344,0.964,-0.221,0.148,10.153,-12.641,-8.947,-11.771,none
8.097244,-0.406,0.281,-0.870,2393.84,-1.679,6.826,10.967,0.072,-0.269,0.960,-0.419,-0.041,-0.907,2387.75,-4.252,10.295,9.288,0.064,0.079,0.995,-0.774,-0.330,-0.541,2438.10,0.671,1.007,9.736,0.585,0.452,0.673,-0.591,0.503,-0.630,2473.45,3.357,2.574,12.981,0.178,-0.601,0.779,0.903,-0.280,0.327,10.218,-7.023,-3.664,-12.489,0.967,-0.219,0.133,10.373,-12.305,-10.031,-11.618,none
8.097352,-0.401,0.306,-0.863,2422.78,-4.252,6.826,11.079,0.089,-0.199,0.976,-0.403,-0.012,-0.915,2432.36,-4.924,10.631,9.512,0.054,0.073,0.996,-0.792,-0.325,-0.518,2357.03,1.231,3.805,10.631,0.589,0.450,0.671,-0.587,0.503,-0.634,2473.25,3.133,1.567,12.981,0.167,-0.590,0.790,0.900,-0.269,0.342,10.166,-3.145,-4.229,-11.802,0.967,-0.218,0.136,10.253,-11.695,-10.931,-10.702,none
8.097441,-0.397,0.285,-0.873,2398.24,-3.021,6.379,10.743,0.085,-0.240,0.967,-0.392,-0.061,-0.918,2426.07,-4.700,10.183,8.505,0.055,0.082,0.995,-0.810,-0.341,-0.478,2389.77,3.581,18.464,10.631,0.579,0.451,0.679,-0.586,0.511,-0.629,2477.70,1.119,1.231,13.541,0.172,-0.591,0.788,0.892,-0.250,0.375,10.175,-7.847,-4.779,-12.473,0.965,-0.215,0.150,10.122,-12.641,-12.076,-12.290,none
8.097525,-0.410,0.284,-0.867,2368.67,-5.260,5.819,13.653,0.062,-0.258,0.964,-0.412,-0.045,-0.910,2403.11,-7.386,10.855,12.757,0.052,0.050,0.997,-0.775,-0.316,-0.548,2423.21,3.245,25.515,12.533,0.599,0.432,0.674,-0.589,0.514,-0.624,2482.43,0.783,1.007,15.779,0.160,-0.588,0.793,0.902,-0.274,0.333,10.071,-8.122,-6.122,-15.893,0.968,-0.216,0.131,10.277,-15.038,-12.382,-15.328,none
8.097607,-0.394,0.332,-0.857,2440.51,-5.595,8.393,15.219,0.069,-0.248,0.966,-0.369,0.015,-0.929,2468.56,-8.617,17.457,10.855,0.052,0.054,0.997,-0.709,-0.262,-0.655,2507.81,0.112,22.605,9.848,0.564,0.446,0.695,-0.581,0.522,-0.625,2463.81,1.902,2.462,16.786,0.165,-0.599,0.783,0.915,-0.293,0.276,10.402,-3.008,-7.756,-14.702,0.971,-0.229,0.065,10.687,-12.137,-13.023,-13.313,none
8.097689,-0.381,0.356,-0.853,2496.32,-7.386,7.498,12.981,0.057,-0.277,0.959,-0.344,0.038,-0.938,2538.45,-8.057,11.862,8.505,0.071,0.050,0.996,-0.743,-0.310,-0.594,2500.55,-2.350,13.429,5.036,0.569,0.440,0.695,-0.574,0.526,-0.628,2481.09,1.455,4.029,13.541,0.161,-0.589,0.792,0.921,-0.277,0.276,10.552,5.023,-8.107,-11.053,0.975,-0.206,0.083,10.782,-7.298,-13.511,-8.595,none
8.097771,-0.370,0.357,-0.858,2519.27,-7.610,4.924,7.722,0.052,-0.247,0.968,-0.377,0.024,-0.926,2468.07,-8.057,6.938,5.148,0.045,0.084,0.995,-0.742,-0.288,-0.606,2515.98,-4.812,10.407,6.267,0.576,0.431,0.694,-0.564,0.544,-0.622,2524.25,-5.036,2.798,7.498,0.166,-0.580,0.798,0.914,-0.241,0.326,10.647,5.878,-6.947,-9.237,0.975,-0.200,0.101,10.694,-6.840,-12.031,-7.908,none
8.097852,-0.378,0.354,-0.856,2514.26,-6.602,4.588,6.267,0.049,-0.287,0.957,-0.396,0.050,-0.917,2501.68,-8.505,8.169,4.141,0.058,0.049,0.997,-0.767,-0.260,-0.587,2446.88,-5.036,7.722,5.931,0.557,0.450,0.698,-0.565,0.542,-0.622,2568.34,-4.476,3.021,7.050,0.169,-0.583,0.795,0.918,-0.251,0.309,10.489,4.519,-4.443,-9.756,0.975,-0.205,0.090,10.626,-6.763,-9.878,-8.748,none
8.097933,-0.385,0.357,-0.851,2493.34,-4.588,4.476,6.491,0.059,-0.309,0.949,-0.394,0.043,-0.918,2487.67,-5.371,9.512,2.574,0.038,0.076,0.996,-0.756,-0.275,-0.595,2497.32,-2.686,9.736,1.679,0.573,0.402,0.714,-0.557,0.552,-0.620,2556.18,-1.455,3.917,7.162,0.163,-0.598,0.785,0.920,-0.248,0.305,10.623,5.435,-2.733,-10.702,0.977,-0.195,0.090,10.805,-6.229,-8.427,-9.939,none
8.098017,-0.369,0.356,-0.859,2527.86,-3.245,5.931,6.602,0.077,-0.260,0.962,-0.357,0.049,-0.933,2554.31,-3.469,10.519,2.798,0.030,0.053,0.998,-0.740,-0.262,-0.620,2508.25,-2.574,5.707,-1.343,0.578,0.412,0.704,-0.559,0.543,-0.627,2546.53,3.245,4.812,6.267,0.164,-0.590,0.791,0.923,-0.249,0.294,10.664,6.565,-2.092,-9.389,0.977,-0.198,0.079,10.833,-4.809,-7.405,-8.611,none
8.098106,-0.364,0.366,-0.857,2534.66,-2.238,5.931,5.260,0.061,-0.296,0.953,-0.342,0.027,-0.939,2546.89,-1.790,8.617,1.007,0.027,0.082,0.996,-0.748,-0.299,-0.593,2522.31,-2.350,5.148,-2.238,0.561,0.434,0.704,-0.552,0.540,-0.635,2560.54,3.357,4.364,3.805,0.157,-0.591,0.791,0.921,-0.246,0.300,10.718,8.305,-1.939,-7.130,0.978,-0.188,0.088,10.942,-3.252,-6.656,-6.183,none
8.105465,-0.348,0.346,-0.871,2569.22,-1.343,4.588,2.350,0.074,-0.288,0.955,-0.332,0.019,-0.943,2568.27,-1.902,6.491,-0.336,0.012,0.051,0.999,-0.738,-0.281,-0.614,2545.06,-2.014,4.812,-1.231,0.555,0.434,0.710,-0.549,0.541,-0.637,2554.40,0.224,3.357,1.679,0.166,-0.590,0.790,0.920,-0.225,0.320,10.733,8.168,-0.763,-4.840,0.979,-0.175,0.110,10.815,-3.282,-6.076,-4.366,none
8.105592,-0.357,0.348,-0.867,2527.20,-0.895,1.902,1.679,0.045,-0.287,0.957,-0.360,0.027,-0.932,2503.15,-1.679,3.021,-0.112,0.031,0.035,0.999,-0.751,-0.312,-0.583,2514.29,-1.231,0.224,-1.231,0.561,0.417,0.716,-0.551,0.543,-0.634,2548.05,-1.119,2.462,0.560,0.164,-0.595,0.787,0.921,-0.233,0.313,10.538,6.824,-0.443,-3.985,0.978,-0.183,0.102,10.630,-3.725,-5.344,-3.863,none
8.105684,-0.363,0.343,-0.866,2481.65,-0.112,1.902,0.560,0.068,-0.297,0.952,-0.369,0.015,-0.929,2468.56,-0.112,3.917,-0.671,0.057,0.026,0.998,-0.754,-0.299,-0.585,2489.60,-0.783,1.231,-0.336,0.572,0.412,0.710,-0.561,0.537,-0.630,2519.08,0.336,0.895,1.343,0.162,-0.593,0.789,0.916,-0.247,0.315,10.246,7.435,-0.626,-3.374,0.975,-0.201,0.097,10.369,-2.641,-6.122,-3.664,none
8.105769,-0.386,0.348,-0.854,2414.58,-0.783,3.021,0.000,0.047,-0.267,0.963,-0.369,0.008,-0.930,2446.43,-0.671,4.476,-1.007,0.022,0.035,0.999,-0.749,-0.300,-0.591,2479.86,-1.679,1.679,0.560,0.572,0.424,0.702,-0.566,0.534,-0.629,2480.30,2.014,0.895,1.679,0.166,-0.593,0.788,0.915,-0.245,0.320,10.086,6.947,-1.252,-4.565,0.973,-0.205,0.104,10.112,-2.443,-7.328,-4.947,none
8.106152,-0.396,0.324,-0.859,2377.30,-0.560,3.133,0.336,0.050,-0.224,0.973,-0.386,-0.000,-0.923,2412.85,-1.902,4.364,-1.119,0.014,0.049,0.999,-0.753,-0.292,-0.590,2451.50,-4.141,-0.560,-0.112,0.561,0.417,0.716,-0.567,0.523,-0.637,2475.20,1.679,2.350,2.686,0.165,-0.587,0.793,0.912,-0.245,0.328,9.978,7.405,-2.183,-6.168,0.974,-0.201,0.106,10.093,-1.908,-7.664,-6.916,none
8.106264,-0.385,0.330,-0.862,2394.10,-1.567,5.371,1.567,0.048,-0.286,0.957,-0.398,0.004,-0.917,2362.51,-3.021,6.379,-1.455,0.012,0.075,0.997,-0.773,-0.307,-0.555,2390.65,-5.371,1.119,-1.790,0.557,0.437,0.706,-0.567,0.527,-0.633,2475.37,-0.336,4.141,3.469,0.164,-0.583,0.796,0.913,-0.237,0.332,10.025,7.160,-3.328,-9.115,0.976,-0.187,0.113,10.102,-1.878,-8.992,-9.206,none
8.106364,-0.365,0.315,-0.876,2389.20,-2.350,6.938,3.581,0.056,-0.277,0.959,-0.363,-0.005,-0.932,2400.04,-4.029,10.967,-0.783,0.014,0.032,0.999,-0.755,-0.309,-0.579,2446.73,-4.812,5.148,-1.231,0.572,0.420,0.704,-0.561,0.529,-0.637,2464.72,0.000,5.595,5.931,0.169,-0.591,0.789,0.914,-0.229,0.336,10.106,5.939,-4.076,-10.275,0.976,-0.175,0.128,10.221,-3.664,-10.351,-10.061,none
8.106451,-0.364,0.305,-0.880,2400.57,-3.469,6.826,4.924,0.047,-0.275,0.960,-0.368,-0.013,-0.930,2395.49,-4.364,11.414,0.336,0.040,0.026,0.999,-0.736,-0.313,-0.600,2508.20,-5.931,4.812,-0.671,0.571,0.429,0.700,-0.557,0.525,-0.643,2482.00,1.343,5.931,7.498,0.172,-0.592,0.787,0.916,-0.226,0.333,10.041,5.191,-6.580,-11.847,0.977,-0.181,0.115,10.101,-4.824,-12.489,-11.328,none
8.107731,-0.374,0.314,-0.873,2363.52,-6.155,6.491,7.162,0.048,-0.298,0.953,-0.352,-0.025,-0.935,2420.10,-6.938,11.638,1.679,0.048,0.022,0.999,-0.769,-0.321,-0.553,2439.50,-8.169,3.021,1.790,0.572,0.412,0.710,-0.556,0.528,-0.642,2487.27,0.448,6.043,8.952,0.169,-0.587,0.792,0.917,-0.215,0.336,10.056,3.450,-8.901,-14.137,0.978,-0.169,0.120,10.134,-4.977,-15.069,-13.359,none
8.107849,-0.368,0.317,-0.874,2370.83,-9.288,8.952,8.617,0.043,-0.245,0.968,-0.370,-0.013,-0.929,2385.26,-9.064,12.310,4.141,0.023,0.038,0.999,-0.751,-0.311,-0.582,2485.09,-9.176,7.833,4.252,0.563,0.420,0.712,-0.547,0.535,-0.644,2493.85,-0.895,5.931,10.855,0.171,-0.593,0.787,0.917,-0.210,0.338,10.020,1.420,-9.664,-16.534,0.978,-0.173,0.113,10.034,-7.359,-16.168,-16.061,none
8.107963,-0.382,0.322,-0.866,2334.83,-9.960,10.072,12.086,0.052,-0.340,0.939,-0.378,-0.005,-0.926,2383.31,-11.414,15.667,5.931,0.025,0.011,1.000,-0.769,-0.312,-0.557,2452.49,-10.183,7.386,6.714,0.571,0.403,0.715,-0.551,0.539,-0.637,2492.01,-0.560,6.267,14.212,0.171,-0.581,0.796,0.913,-0.198,0.358,9.818,-2.107,-9.618,-23.206,0.978,-0.163,0.133,9.795,-9.191,-17.511,-21.710,none
8.108049,-0.375,0.301,-0.876,2298.97,-9.624,13.988,15.891,0.044,-0.294,0.955,-0.384,-0.022,-0.923,2324.54,-12.198,19.248,8.952,0.015,0.005,1.000,-0.772,-0.296,-0.562,2416.06,-11.526,11.414,9.400,0.576,0.426,0.697,-0.547,0.543,-0.637,2474.01,1.679,7.610,19.024,0.172,-0.593,0.787,0.918,-0.195,0.346,9.821,-7.450,-11.771,-28.290,0.980,-0.150,0.131,9.890,-13.954,-20.031,-25.954,none
8.108518,-0.353,0.305,-0.884,2331.90,-8.505,14.660,22.829,0.021,-0.275,0.961,-0.337,-0.021,-0.941,2386.09,-13.317,22.157,13.317,-0.011,0.046,0.999,-0.757,-0.293,-0.584,2440.51,-14.100,13.764,8.729,0.580,0.387,0.717,-0.543,0.543,-0.641,2458.23,5.595,10.743,23.948,0.178,-0.593,0.785,0.931,-0.215,0.294,9.838,-10.763,-16.000,-30.305,0.984,-0.158,0.077,10.023,-15.542,-25.389,-28.473,none
8.108632,-0.343,0.337,-0.877,2317.20,-13.876,14.883,26.298,0.032,-0.306,0.952,-0.328,-0.000,-0.945,2357.67,-17.905,22.605,15.555,-0.008,0.020,1.000,-0.763,-0.309,-0.568,2407.20,-16.338,17.681,10.072,0.573,0.381,0.726,-0.525,0.544,-0.654,2485.46,7.274,11.526,27.193,0.173,-0.595,0.784,0.944,-0.208,0.255,10.225,-6.015,-19.466,-30.840,0.989,-0.134,0.060,10.485,-14.901,-29.069,-27.603,none
8.108726,-0.313,0.387,-0.867,2447.66,-19.584,15.555,26.745,0.004,-0.285,0.959,-0.302,0.048,-0.952,2430.74,-22.157,24.284,16.450,-0.009,0.024,1.000,-0.746,-0.260,-0.612,2408.64,-14.212,23.500,12.757,0.570,0.345,0.745,-0.508,0.554,-0.659,2511.10,3.357,11.526,27.417,0.172,-0.589,0.790,0.943,-0.176,0.281,10.428,-1.466,-18.397,-31.725,0.991,-0.122,0.054,10.579,-13.878,-27.221,-27.740,none
8.108813,-0.307,0.397,-0.865,2462.87,-17.681,17.345,26.298,0.018,-0.356,0.934,-0.300,0.084,-0.950,2447.01,-21.038,25.403,18.241,-0.016,0.000,1.000,-0.745,-0.249,-0.619,2399.95,-11.414,25.515,11.638,0.559,0.369,0.742,-0.502,0.563,-0.657,2523.98,2.238,11.862,26.522,0.171,-0.596,0.784,0.951,-0.183,0.251,10.507,0.901,-16.641,-30.305,0.992,-0.118,0.035,10.799,-13.160,-26.122,-27.649,none
8.109150,-0.290,0.422,-0.859,2502.94,-17.569,17.233,24.507,0.006,-0.326,0.945,-0.274,0.109,-0.956,2504.42,-19.807,27.417,14.883,-0.015,0.000,1.000,-0.728,-0.246,-0.640,2429.38,-8.952,28.872,9.848,0.563,0.370,0.739,-0.490,0.568,-0.661,2521.35,5.371,11.191,24.955,0.168,-0.580,0.797,0.952,-0.164,0.260,10.723,3.695,-16.718,-27.725,0.993,-0.115,0.014,10.953,-10.351,-24.534,-24.183,none
8.109264,-0.275,0.445,-0.852,2569.68,-17.569,16.226,21.486,0.010,-0.333,0.943,-0.241,0.103,-0.965,2559.55,-20.031,25.067,11.526,-0.005,-0.022,1.000,-0.703,-0.241,-0.669,2485.03,-6.602,31.893,9.400,0.566,0.342,0.751,-0.487,0.565,-0.666,2516.11,6.043,9.512,22.269,0.176,-0.584,0.793,0.954,-0.158,0.254,10.710,1.344,-14.168,-23.084,0.995,-0.095,0.031,11.035,-9.282,-21.542,-20.763,none
8.109364,-0.250,0.419,-0.873,2588.23,-12.086,14.212,15.107,-0.025,-0.361,0.932,-0.240,0.133,-0.962,2568.76,-18.353,20.591,10.072,-0.012,-0.049,0.999,-0.671,-0.217,-0.709,2577.50,-7.610,16.674,6.043,0.554,0.353,0.754,-0.466,0.582,-0.666,2544.67,1.343,8.729,17.233,0.192,-0.591,0.783,0.962,-0.153,0.227,10.959,4.947,-13.802,-18.061,0.996,-0.086,0.011,11.333,-9.359,-19.908,-15.084,none
8.109458,-0.240,0.464,-0.852,2695.72,-11.638,9.400,13.764,-0.010,-0.309,0.951,-0.220,0.138,-0.966,2629.97,-12.981,17.233,4.476,-0.039,-0.019,0.999,-0.684,-0.205,-0.700,2526.78,-5.707,16.003,6.043,0.557,0.341,0.757,-0.458,0.587,-0.667,2570.34,-3.357,5.483,10.855,0.172,-0.594,0.786,0.961,-0.143,0.236,10.988,7.618,-8.122,-11.389,0.996,-0.093,-0.009,11.276,-5.954,-13.053,-10.015,none
8.109752,-0.254,0.469,-0.846,2625.94,-6.826,6.714,8.505,-0.002,-0.322,0.947,-0.213,0.154,-0.965,2662.95,-9.624,12.310,3.133,-0.034,-0.095,0.995,-0.681,-0.215,-0.700,2553.91,-4.812,10.855,3.469,0.545,0.349,0.762,-0.459,0.589,-0.665,2563.01,-2.350,4.029,6.379,0.188,-0.581,0.792,0.963,-0.145,0.226,10.810,7.939,-5.939,-8.397,0.996,-0.088,-0.008,11.153,-3.115,-10.534,-7.679,none
8.109841,-0.249,0.460,-0.852,2594.30,-4.812,5.483,4.029,0.000,-0.368,0.930,-0.226,0.139,-0.964,2604.21,-5.707,7.050,0.560,-0.033,-0.011,0.999,-0.694,-0.214,-0.687,2518.42,-2.126,6.379,2.350,0.549,0.347,0.760,-0.458,0.596,-0.660,2568.90,-1.679,3.021,3.021,0.183,-0.586,0.789,0.963,-0.140,0.230,10.933,8.962,-3.496,-5.206,0.997,-0.076,0.010,11.221,-2.855,-8.366,-4.366,none
8.109925,-0.248,0.461,-0.852,2607.42,-4.252,3.693,1.567,-0.013,-0.349,0.937,-0.240,0.152,-0.959,2575.75,-3.581,4.924,0.000,-0.030,-0.044,0.999,-0.699,-0.208,-0.684,2500.48,-1.455,3.917,0.895,0.539,0.318,0.780,-0.457,0.594,-0.662,2575.51,-1.007,1.455,0.783,0.179,-0.586,0.790,0.961,-0.134,0.243,10.770,8.687,-0.153,-2.626,0.996,-0.087,0.000,11.029,-2.733,-4.748,-2.626,none
8.110007,-0.262,0.450,-0.854,2542.15,-1.231,3.469,-1.567,-0.008,-0.399,0.917,-0.238,0.134,-0.962,2548.10,-0.448,4.141,-2.238,-0.063,-0.047,0.997,-0.696,-0.215,-0.685,2511.56,1.567,2.462,-1.007,0.541,0.346,0.766,-0.463,0.594,-0.658,2560.98,1.231,1.119,-1.119,0.177,-0.577,0.797,0.961,-0.142,0.236,10.544,8.763,1.221,-1.863,0.996,-0.087,0.008,10.827,-1.954,-2.962,-1.588,none
8.113080,-0.255,0.435,-0.863,2537.74,1.007,4.252,-3.133,-0.020,-0.330,0.944,-0.246,0.125,-0.961,2510.22,0.448,1.790,-2.574,-0.028,-0.062,0.998,-0.695,-0.222,-0.684,2515.23,1.567,0.112,-2.238,0.542,0.331,0.772,-0.466,0.585,-0.664,2549.84,2.350,0.783,-2.350,0.178,-0.581,0.794,0.958,-0.135,0.252,10.553,8.855,2.473,-1.206,0.997,-0.078,0.025,10.842,-2.748,-2.336,-0.840,none
8.113193,-0.256,0.434,-0.864,2523.89,3.245,2.238,-2.686,-0.032,-0.326,0.945,-0.256,0.126,-0.958,2486.45,1.231,1.790,-3.469,-0.039,-0.032,0.999,-0.696,-0.227,-0.681,2497.33,1.007,-2.350,-3.245,0.552,0.328,0.767,-0.466,0.582,-0.667,2527.53,1.567,0.560,-3.245,0.187,-0.587,0.788,0.959,-0.132,0.250,10.490,8.458,3.145,-0.168,0.996,-0.082,0.019,10.718,-2.748,-1.053,0.336,none
8.113285,-0.255,0.423,-0.869,2497.08,4.476,1.902,-3.917,-0.026,-0.323,0.946,-0.229,0.097,-0.969,2522.27,2.350,2.350,-4.141,-0.040,-0.025,0.999,-0.699,-0.242,-0.673,2471.00,1.902,-2.014,-3.693,0.540,0.341,0.770,-0.468,0.577,-0.670,2515.94,2.238,0.000,-3.805,0.186,-0.584,0.790,0.957,-0.136,0.256,10.281,8.275,3.802,0.550,0.996,-0.086,0.028,10.561,-2.763,-0.382,0.626,none
8.113380,-0.266,0.410,-0.873,2433.05,4.029,0.671,-4.252,-0.033,-0.359,0.933,-0.241,0.098,-0.965,2478.63,4.252,-0.895,-2.462,-0.047,-0.042,0.998,-0.705,-0.243,-0.666,2464.63,3.693,-2.350,-2.126,0.557,0.341,0.757,-0.471,0.573,-0.670,2498.31,1.902,-0.448,-3.805,0.195,-0.587,0.786,0.956,-0.146,0.254,10.147,8.260,3.450,0.305,0.995,-0.095,0.030,10.291,-3.298,-0.565,0.336,none
8.114035,-0.284,0.414,-0.865,2385.05,3.805,0.000,-2.910,-0.030,-0.341,0.940,-0.275,0.086,-0.958,2386.40,3.245,-1.455,-2.350,-0.029,-0.055,0.998,-0.711,-0.242,-0.660,2429.27,3.245,-0.895,-2.126,0.551,0.337,0.764,-0.481,0.571,-0.665,2489.42,1.119,0.224,-2.910,0.189,-0.581,0.792,0.954,-0.148,0.262,10.068,8.824,2.779,-1.618,0.995,-0.099,0.029,10.276,-2.702,-1.466,-1.832,none
8.114125,-0.285,0.417,-0.863,2413.48,2.574,2.014,-2.462,-0.010,-0.343,0.939,-0.263,0.117,-0.958,2426.28,2.126,1.231,-1.455,-0.027,-0.067,0.997,-0.704,-0.230,-0.672,2428.99,1.679,-0.336,-3.133,0.558,0.354,0.751,-0.480,0.571,-0.666,2472.25,1.455,1.679,-2.686,0.198,-0.582,0.789,0.957,-0.152,0.248,10.187,9.939,2.351,-2.809,0.995,-0.097,0.025,10.499,-2.718,-1.374,-2.153,none
8.114216,-0.265,0.426,-0.865,2476.02,3.245,2.238,-2.350,-0.015,-0.339,0.941,-0.262,0.116,-0.958,2435.86,3.917,0.224,-2.686,-0.047,-0.026,0.999,-0.724,-0.238,-0.647,2385.91,0.224,-1.790,-6.043,0.545,0.340,0.766,-0.478,0.572,-0.667,2485.30,1.790,2.238,-3.245,0.196,-0.580,0.790,0.957,-0.157,0.244,10.155,12.580,1.557,-2.427,0.994,-0.107,0.016,10.373,-0.626,-1.847,-1.618,none
8.114314,-0.283,0.404,-0.870,2394.22,2.910,2.462,-3.805,-0.030,-0.340,0.940,-0.275,0.089,-0.957,2417.51,3.133,0.895,-3.581,-0.052,-0.056,0.997,-0.699,-0.264,-0.664,2486.94,0.000,0.000,-6.826,0.554,0.353,0.754,-0.484,0.562,-0.671,2495.61,1.231,3.469,-3.693,0.184,-0.581,0.793,0.955,-0.144,0.259,10.091,15.130,0.855,-4.260,0.995,-0.091,0.042,10.316,0.321,-3.771,-3.588,none
8.114399,-0.284,0.394,-0.874,2382.66,1.790,4.252,-2.910,-0.023,-0.359,0.933,-0.275,0.065,-0.959,2391.32,1.902,3.133,-4.029,-0.051,-0.051,0.997,-0.722,-0.250,-0.646,2436.09,-0.448,2.350,-4.588,0.545,0.352,0.761,-0.478,0.568,-0.669,2502.10,-0.336,4.252,-1.455,0.177,-0.584,0.792,0.952,-0.130,0.277,10.163,15.160,-0.366,-6.901,0.995,-0.089,0.043,10.360,-0.840,-4.382,-6.260,none
8.114480,-0.269,0.400,-0.876,2442.49,0.112,6.267,0.112,-0.010,-0.310,0.951,-0.254,0.095,-0.962,2465.57,1.007,5.931,-1.231,-0.038,-0.045,0.998,-0.710,-0.239,-0.663,2463.37,-0.783,5.260,-5.371,0.558,0.354,0.751,-0.476,0.574,-0.666,2512.86,0.671,5.036,0.336,0.189,-0.583,0.790,0.958,-0.133,0.254,10.379,14.626,-0.244,-8.718,0.996,-0.090,0.020,10.590,-1.328,-4.000,-7.710,none
8.114562,-0.263,0.434,-0.861,2497.13,1.343,6.379,1.119,-0.024,-0.333,0.943,-0.264,0.124,-0.957,2451.42,1.567,6.491,-1.119,-0.045,-0.073,0.996,-0.702,-0.236,-0.671,2445.77,-0.224,6.155,-6.155,0.555,0.338,0.760,-0.472,0.576,-0.668,2537.12,4.364,4.812,-0.224,0.197,-0.588,0.785,0.958,-0.135,0.253,10.268,15.695,1.573,-9.252,0.996,-0.094,0.010,10.562,1.221,-3.237,-9.893,none
8.114642,-0.284,0.437,-0.853,2416.39,3.917,7.498,-0.448,-0.014,-0.371,0.928,-0.264,0.116,-0.957,2448.07,3.693,9.064,-3.021,-0.030,-0.033,0.999,-0.706,-0.241,-0.666,2435.49,1.231,6.714,-6.938,0.558,0.351,0.752,-0.475,0.572,-0.668,2519.53,4.588,5.148,-0.671,0.176,-0.582,0.793,0.957,-0.135,0.255,10.216,16.107,1.359,-10.412,0.995,-0.102,0.011,10.301,3.847,-3.191,-11.053,none
8.115285,-0.287,0.428,-0.857,2394.86,4.252,11.191,-1.790,-0.036,-0.310,0.950,-0.256,0.108,-0.961,2448.41,2.686,10.295,-3.805,-0.039,-0.032,0.999,-0.695,-0.247,-0.675,2460.90,-0.224,7.833,-8.393,0.551,0.366,0.750,-0.480,0.570,-0.667,2496.09,4.141,6.155,-0.783,0.193,-0.589,0.785,0.959,-0.140,0.247,10.057,16.748,0.962,-11.588,0.995,-0.101,0.002,10.312,6.718,-4.153,-13.573,none
8.115380,-0.311,0.457,-0.833,2332.47,0.895,14.995,-3.357,-0.025,-0.337,0.941,-0.280,0.107,-0.954,2374.51,2.574,11.750,-5.931,-0.047,-0.045,0.998,-0.714,-0.249,-0.654,2404.88,-1.231,8.841,-9.736,0.545,0.352,0.761,-0.482,0.571,-0.665,2506.60,3.021,7.722,-0.895,0.182,-0.578,0.796,0.960,-0.132,0.246,10.148,19.664,3.206,-13.435,0.996,-0.093,0.012,10.269,9.435,-2.947,-16.626,none
8.115464,-0.294,0.450,-0.843,2365.31,1.119,23.612,-6.491,-0.039,-0.327,0.944,-0.283,0.139,-0.949,2386.93,0.671,17.122,-7.162,-0.054,-0.029,0.998,-0.680,-0.232,-0.696,2443.67,-1.902,10.631,-11.750,0.544,0.376,0.751,-0.478,0.568,-0.669,2502.10,4.029,8.729,-1.007,0.182,-0.575,0.798,0.962,-0.136,0.237,10.107,21.832,2.565,-15.817,0.995,-0.100,-0.015,10.326,13.282,-3.053,-19.695,none
8.115545,-0.244,0.432,-0.868,2488.15,0.783,27.417,-8.505,-0.042,-0.308,0.951,-0.269,0.107,-0.957,2366.54,-0.224,21.598,-12.086,-0.067,-0.022,0.997,-0.688,-0.255,-0.680,2457.94,-4.029,9.512,-14.772,0.533,0.378,0.757,-0.472,0.566,-0.675,2492.98,6.938,11.079,-2.126,0.194,-0.577,0.793,0.965,-0.133,0.227,10.095,26.473,1.695,-16.260,0.996,-0.088,-0.016,10.307,20.229,-4.687,-21.557,none
8.117796,-0.264,0.436,-0.860,2375.19,0.112,28.312,-11.302,-0.034,-0.321,0.946,-0.245,0.110,-0.963,2402.09,-1.790,26.298,-14.883,-0.069,-0.061,0.996,-0.685,-0.257,-0.681,2438.77,-5.148,10.631,-15.219,0.542,0.369,0.755,-0.471,0.560,-0.682,2501.59,6.602,10.743,-3.581,0.204,-0.588,0.783,0.960,-0.112,0.255,10.171,31.145,0.427,-17.466,0.996,-0.071,-0.059,9.954,29.679,-2.153,-27.496,none
8.117887,-0.273,0.458,-0.846,2368.93,-1.119,34.131,-14.212,-0.043,-0.329,0.943,-0.274,0.130,-0.953,2326.51,-3.245,30.662,-18.353,-0.058,-0.002,0.998,-0.672,-0.251,-0.697,2456.42,-6.714,11.750,-16.898,0.533,0.365,0.763,-0.471,0.560,-0.682,2501.59,4.029,11.862,-4.700,0.199,-0.581,0.789,0.964,-0.116,0.239,10.007,33.511,0.626,-18.687,0.998,-0.060,0.011,10.338,31.802,-2.748,-28.748,none
8.117974,-0.276,0.497,-0.823,2340.26,-3.469,42.748,-19.136,-0.060,-0.334,0.941,-0.268,0.127,-0.955,2300.73,-5.148,40.622,-24.619,-0.080,-0.022,0.997,-0.676,-0.263,-0.688,2457.03,-8.841,11.414,-19.919,0.542,0.360,0.759,-0.470,0.563,-0.680,2506.53,2.462,12.869,-5.707,0.197,-0.574,0.795,0.969,-0.115,0.220,10.021,40.962,-0.351,-20.458,0.998,-0.066,-0.019,10.240,35.939,-1.298,-30.931,none
8.118058,-0.254,0.478,-0.840,2349.81,-2.238,53.491,-24.172,-0.030,-0.356,0.934,-0.238,0.162,-0.958,2345.43,-9.064,48.455,-30.774,-0.080,-0.022,0.997,-0.667,-0.243,-0.704,2415.43,-10.295,12.757,-20.926,0.539,0.378,0.753,-0.464,0.561,-0.685,2515.98,2.014,12.869,-6.379,0.217,-0.576,0.788,0.964,-0.110,0.240,10.543,56.809,-3.786,-21.191,0.999,-0.040,-0.026,10.182,46.198,0.718,-38.656,none
8.120582,-0.179,0.425,-0.887,2458.73,-0.336,60.541,-27.976,-0.102,-0.291,0.951,-0.215,0.174,-0.961,2366.24,-7.833,57.184,-37.824,-0.065,-0.054,0.996,-0.664,-0.225,-0.713,2398.44,-9.624,13.988,-23.948,0.532,0.356,0.768,-0.457,0.562,-0.690,2514.33,5.371,14.436,-9.512,0.229,-0.579,0.783,0.979,-0.085,0.184,10.223,60.626,-0.840,-22.901,1.000,-0.012,-0.014,10.761,52.779,1.176,-38.916,none
8.120705,-0.163,0.434,-0.886,2525.35,-0.895,57.855,-27.641,-0.054,-0.371,0.927,-0.086,0.109,-0.990,2604.22,-6.491,61.324,-42.636,-0.087,-0.053,0.995,-0.647,-0.224,-0.729,2401.74,-11.302,15.555,-30.215,0.542,0.341,0.768,-0.451,0.561,-0.694,2498.95,3.917,18.464,-13.429,0.232,-0.571,0.787,0.959,-0.056,0.276,10.611,66.275,6.611,-17.099,0.999,0.023,0.035,11.258,61.756,5.847,-39.023,none
8.120799,-0.122,0.444,-0.888,2665.04,9.064,52.484,-31.781,-0.092,-0.303,0.949,-0.071,0.131,-0.989,2618.11,0.671,43.196,-39.838,-0.137,0.004,0.991,-0.639,-0.264,-0.723,2447.64,-8.841,12.310,-37.488,0.520,0.352,0.778,-0.442,0.562,-0.699,2510.71,3.133,22.493,-20.031,0.235,-0.589,0.773,0.953,-0.019,0.303,10.824,54.840,7.924,-17.344,0.991,0.081,0.108,11.217,50.580,11.359,-28.092,none
8.121254,-0.089,0.352,-0.932,2635.04,11.750,38.272,-31.110,-0.096,-0.354,0.930,-0.041,0.078,-0.996,2639.15,6.826,34.915,-39.055,-0.112,-0.044,0.993,-0.606,-0.250,-0.755,2511.47,-8.393,9.960,-37.041,0.523,0.377,0.764,-0.433,0.550,-0.714,2512.66,1.902,24.060,-21.374,0.256,-0.588,0.767,0.955,-0.012,0.298,10.890,45.695,9.817,-12.015,0.987,0.094,0.127,11.445,34.137,10.672,-19.130,none
8.121353,-0.090,0.359,-0.929,2611.62,11.526,27.081,-27.305,-0.083,-0.292,0.953,-0.011,0.061,-0.998,2722.22,8.729,22.941,-35.362,-0.125,-0.020,0.992,-0.638,-0.375,-0.673,2511.57,-10.743,6.938,-41.069,0.529,0.347,0.775,-0.431,0.546,-0.719,2550.56,1.231,24.619,-22.493,0.256,-0.587,0.769,0.952,0.003,0.306,10.873,39.573,12.229,-9.878,0.990,0.098,0.102,11.261,21.405,12.412,-10.382,none
8.121439,-0.047,0.327,-0.944,2746.46,16.450,17.681,-23.612,-0.084,-0.299,0.950,-0.007,0.036,-0.999,2658.84,12.645,11.638,-29.096,-0.137,-0.020,0.990,-0.600,-0.317,-0.734,2569.87,-3.917,8.057,-33.124,0.523,0.393,0.757,-0.410,0.536,-0.738,2561.93,0.224,23.724,-22.605,0.270,-0.576,0.772,0.947,0.022,0.322,11.296,35.542,12.992,-6.015,0.987,0.114,0.117,11.539,17.649,12.748,-5.695,none
8.121522,-0.061,0.359,-0.931,2750.62,16.114,5.931,-21.934,-0.058,-0.283,0.957,0.000,0.025,-1.000,2686.86,14.883,4.252,-23.165,-0.127,-0.016,0.992,-0.590,-0.368,-0.719,2665.08,2.126,1.679,-31.446,0.531,0.387,0.754,-0.414,0.521,-0.746,2559.54,2.686,16.898,-22.605,0.267,-0.582,0.768,0.939,0.035,0.341,11.091,27.099,13.969,1.634,0.984,0.122,0.132,11.450,9.145,14.427,2.947,none
8.123456,-0.048,0.304,-0.951,2694.02,23.500,-0.895,-23.053,-0.058,-0.251,0.966,0.007,-0.033,-0.999,2668.56,14.436,-2.910,-20.926,-0.097,-0.035,0.995,-0.592,-0.390,-0.705,2688.81,2.910,-4.364,-20.703,0.530,0.353,0.771,-0.411,0.503,-0.760,2553.67,0.671,6.714,-19.472,0.270,-0.578,0.770,0.942,0.030,0.334,11.011,18.305,10.214,8.656,0.984,0.116,0.134,10.901,3.115,10.183,10.153,none
8.123548,-0.083,0.248,-0.965,2473.30,22.717,-7.722,-21.038,-0.085,-0.284,0.955,-0.011,-0.041,-0.999,2630.42,11.638,-9.736,-14.100,-0.116,0.004,0.993,-0.604,-0.399,-0.689,2651.31,4.924,-8.057,-11.079,0.536,0.378,0.755,-0.421,0.502,-0.756,2541.80,-2.126,-1.455,-15.779,0.271,-0.579,0.769,0.937,0.028,0.347,10.581,13.206,9.008,12.840,0.983,0.108,0.149,10.538,-0.519,5.679,12.656,none
8.123636,-0.107,0.229,-0.968,2385.37,14.100,-9.176,-15.891,-0.067,-0.240,0.968,-0.067,-0.052,-0.996,2460.00,8.505,-13.093,-8.952,-0.122,0.007,0.992,-0.615,-0.401,-0.679,2590.67,5.595,-8.952,-1.455,0.536,0.360,0.763,-0.435,0.501,-0.748,2525.89,-4.252,-7.050,-10.631,0.285,-0.585,0.759,0.932,0.021,0.361,10.265,8.214,5.053,12.168,0.984,0.092,0.154,10.346,-5.954,1.511,11.802,none
