0.003625,BNO0_UnitAccX,BNO0_UnitAccY,BNO0_UnitAccZ,BNO0_RawAccMag,BNO0_GyrX,BNO0_GyrY,BNO0_GyrZ,BNO0_MagX,BNO0_MagY,BNO0_MagZ,BNO1_UnitAccX,BNO1_UnitAccY,BNO1_UnitAccZ,BNO1_RawAccMag,BNO1_GyrX,BNO1_GyrY,BNO1_GyrZ,BNO1_MagX,BNO1_MagY,BNO1_MagZ,BNO2_UnitAccX,BNO2_UnitAccY,BNO2_UnitAccZ,BNO2_RawAccMag,BNO2_GyrX,BNO2_GyrY,BNO2_GyrZ,BNO2_MagX,BNO2_MagY,BNO2_MagZ,BNO3_UnitAccX,BNO3_UnitAccY,BNO3_UnitAccZ,BNO3_RawAccMag,BNO3_GyrX,BNO3_GyrY,BNO3_GyrZ,BNO3_MagX,BNO3_MagY,BNO3_MagZ,MPU0_UnitAccX,MPU0_UnitAccY,MPU0_UnitAccZ,MPU0_RawAccMag,MPU0_GyrX,MPU0_GyrY,MPU0_GyrZ,MPU1_UnitAccX,MPU1_UnitAccY,MPU1_UnitAccZ,MPU1_RawAccMag,MPU1_GyrX,MPU1_GyrY,MPU1_GyrZ,none
0.049574,0.480,-0.219,-0.850,2470.15,-0.671,0.000,-0.112,-0.526,0.073,0.847,0.687,-0.089,-0.721,2488.37,-0.112,0.224,-0.112,-0.599,0.244,0.762,-0.063,-0.433,-0.899,2496.28,-0.671,0.112,-0.112,-0.106,-0.011,-0.994,0.319,0.084,-0.944,2497.49,-0.224,-0.224,0.000,-0.956,0.146,0.256,0.398,0.196,0.896,10.970,5.649,0.473,-1.878,0.706,0.242,0.666,10.108,-5.542,-4.687,-1.206,none
0.052297,0.481,-0.211,-0.851,2465.85,0.336,0.224,0.224,-0.540,0.093,0.837,0.689,-0.093,-0.719,2482.08,-0.560,0.224,0.336,-0.566,0.296,0.769,-0.063,-0.446,-0.893,2513.84,1.343,0.336,-0.336,-0.118,-0.011,-0.993,0.320,0.080,-0.944,2487.31,-0.112,-0.112,-0.224,-0.973,0.094,0.210,0.400,0.197,0.895,10.936,5.802,0.504,-1.863,0.705,0.245,0.666,10.151,-5.405,-4.748,-1.435,none
0.059342,0.482,-0.215,-0.849,2459.48,0.000,0.336,0.224,-0.518,0.106,0.849,0.686,-0.097,-0.721,2489.51,-0.112,0.448,0.560,-0.618,0.227,0.752,-0.063,-0.439,-0.896,2504.10,1.007,0.448,-0.448,-0.118,-0.011,-0.993,0.320,0.076,-0.944,2486.53,0.000,-0.224,-0.336,-0.968,0.201,0.149,0.399,0.198,0.895,10.937,5.786,0.168,-1.679,0.704,0.245,0.666,10.127,-5.237,-4.855,-1.420,none
0.093416,0.482,-0.215,-0.849,2459.48,-0.112,0.448,-0.224,-0.541,0.106,0.834,0.690,-0.097,-0.717,2489.93,-0.448,0.336,-0.112,-0.637,0.289,0.714,-0.056,-0.439,-0.897,2503.87,0.112,0.560,-0.448,-0.098,-0.039,-0.994,0.322,0.080,-0.943,2500.58,-0.895,-0.224,-0.560,-0.947,0.159,0.278,0.398,0.201,0.895,10.947,5.710,0.382,-1.679,0.705,0.248,0.665,10.160,-5.450,-4.656,-0.977,none
0.106224,0.486,-0.211,-0.848,2461.33,0.224,0.000,-0.224,-0.507,0.059,0.860,0.689,-0.093,-0.719,2495.44,0.112,-0.112,0.336,-0.602,0.227,0.766,-0.059,-0.443,-0.895,2507.95,0.112,0.112,0.112,-0.128,-0.053,-0.990,0.320,0.080,-0.944,2487.31,-0.448,0.112,-0.336,-0.974,0.181,0.135,0.400,0.199,0.894,10.925,5.695,0.473,-1.710,0.703,0.245,0.668,10.160,-5.634,-4.519,-0.992,none
0.129227,0.482,-0.212,-0.850,2456.50,0.112,0.000,0.112,-0.525,0.093,0.846,0.688,-0.097,-0.719,2482.32,0.000,0.224,0.112,-0.624,0.276,0.731,-0.059,-0.443,-0.895,2507.95,0.671,0.224,0.112,-0.109,-0.034,-0.993,0.319,0.084,-0.944,2497.49,0.112,0.000,-0.112,-0.975,0.169,0.143,0.401,0.199,0.894,10.922,5.695,0.702,-1.924,0.705,0.246,0.665,10.144,-5.710,-4.275,-1.023,none
0.152551,0.483,-0.208,-0.851,2454.40,0.336,0.336,0.336,-0.496,0.092,0.863,0.690,-0.097,-0.717,2489.93,0.224,0.224,0.448,-0.591,0.325,0.738,-0.059,-0.443,-0.895,2507.95,0.895,0.000,0.000,-0.096,-0.022,-0.995,0.322,0.084,-0.943,2500.37,0.671,0.000,0.000,-0.966,0.131,0.223,0.398,0.198,0.896,10.953,5.618,0.489,-1.802,0.706,0.245,0.665,10.148,-5.710,-4.504,-0.840,none
0.175892,0.482,-0.212,-0.850,2456.50,0.224,0.112,0.336,-0.544,0.065,0.837,0.688,-0.097,-0.719,2482.32,0.336,-0.112,0.224,-0.581,0.292,0.760,-0.059,-0.443,-0.895,2507.95,0.783,0.112,-0.112,-0.107,-0.054,-0.993,0.321,0.081,-0.944,2478.82,0.112,0.000,-0.112,-0.976,0.156,0.152,0.399,0.197,0.895,10.969,5.588,0.290,-1.527,0.706,0.246,0.664,10.140,-5.618,-4.672,-0.580,none
0.196899,0.481,-0.211,-0.851,2465.85,0.000,-0.224,0.112,-0.502,0.093,0.860,0.690,-0.097,-0.717,2489.93,0.448,-0.224,0.000,-0.601,0.282,0.748,-0.063,-0.439,-0.896,2504.10,-0.560,-0.448,0.336,-0.107,-0.011,-0.994,0.320,0.080,-0.944,2487.31,-0.336,-0.224,-0.224,-0.975,0.141,0.172,0.400,0.197,0.895,10.958,5.618,0.107,-1.435,0.705,0.244,0.666,10.139,-5.496,-4.794,-0.580,none
0.219376,0.482,-0.212,-0.850,2456.50,-0.112,-0.224,-0.112,-0.508,0.085,0.857,0.690,-0.097,-0.717,2489.93,-0.224,0.112,-0.448,-0.603,0.303,0.738,-0.059,-0.443,-0.895,2507.95,-0.336,-0.224,0.112,-0.066,-0.066,-0.996,0.320,0.084,-0.944,2489.00,-0.336,0.000,0.000,-0.970,0.142,0.195,0.400,0.200,0.894,10.960,5.557,0.473,-1.649,0.704,0.246,0.666,10.131,-5.847,-4.443,-0.275,none
0.240862,0.482,-0.212,-0.850,2456.50,0.224,0.000,0.336,-0.551,0.083,0.830,0.688,-0.097,-0.719,2482.32,0.224,0.000,-0.224,-0.604,0.247,0.757,-0.059,-0.439,-0.896,2504.44,0.224,-0.336,0.336,-0.126,-0.021,-0.992,0.322,0.080,-0.943,2500.58,0.448,0.112,0.112,-0.971,0.127,0.200,0.398,0.199,0.895,10.955,5.420,0.198,-1.374,0.702,0.247,0.668,10.125,-5.756,-4.916,0.015,none
0.262689,0.482,-0.219,-0.849,2460.81,0.112,-0.224,0.224,-0.570,0.094,0.816,0.690,-0.101,-0.716,2490.21,-0.224,-0.224,-0.671,-0.613,0.298,0.731,-0.059,-0.449,-0.892,2516.87,-0.336,-0.336,0.336,-0.097,-0.009,-0.995,0.323,0.084,-0.943,2491.89,0.224,-0.112,0.112,-0.967,0.145,0.208,0.399,0.198,0.895,10.966,5.420,0.290,-1.328,0.704,0.242,0.668,10.140,-5.817,-4.595,0.244,none
0.284904,0.481,-0.211,-0.851,2465.85,0.224,-0.783,0.000,-0.552,0.083,0.829,0.688,-0.097,-0.719,2497.11,0.560,-0.336,-0.224,-0.562,0.273,0.781,-0.063,-0.442,-0.895,2509.40,-1.007,-0.560,0.783,-0.107,-0.021,-0.994,0.316,0.076,-0.946,2484.29,0.000,0.224,-0.112,-0.974,0.143,0.176,0.401,0.197,0.894,10.956,5.420,-0.061,-1.130,0.704,0.245,0.666,10.138,-5.740,-5.206,0.229,none
0.307171,0.481,-0.207,-0.852,2463.76,0.000,-0.671,-0.224,-0.541,0.081,0.837,0.689,-0.093,-0.719,2482.08,-0.560,-0.112,-1.007,-0.633,0.269,0.726,-0.060,-0.434,-0.899,2486.73,-1.567,-0.112,0.560,-0.120,-0.060,-0.991,0.321,0.077,-0.944,2478.03,0.000,0.000,0.000,-0.980,0.167,0.110,0.398,0.198,0.896,10.932,5.450,0.031,-1.206,0.703,0.244,0.668,10.144,-5.771,-4.840,0.107,none
0.329319,0.482,-0.215,-0.849,2459.48,0.000,-0.560,-0.224,-0.477,0.070,0.876,0.686,-0.101,-0.721,2491.23,-0.112,-0.224,-0.671,-0.630,0.355,0.691,-0.063,-0.438,-0.897,2512.17,-1.119,-0.224,0.448,-0.129,-0.025,-0.991,0.317,0.080,-0.945,2507.15,0.112,0.112,0.000,-0.984,0.138,0.110,0.398,0.198,0.896,10.956,5.496,-0.061,-1.206,0.704,0.241,0.668,10.131,-5.466,-5.115,-0.244,none
0.351104,0.479,-0.216,-0.851,2454.68,0.112,-0.336,-0.224,-0.527,0.091,0.845,0.688,-0.097,-0.719,2482.32,0.000,0.112,-0.448,-0.656,0.233,0.718,-0.067,-0.439,-0.896,2504.75,-0.336,0.000,0.000,-0.097,0.000,-0.995,0.319,0.080,-0.944,2497.70,-0.448,0.000,0.112,-0.969,0.157,0.189,0.400,0.196,0.895,10.978,5.603,-0.260,-1.221,0.705,0.242,0.667,10.146,-5.267,-5.511,-0.779,none
0.373240,0.481,-0.211,-0.851,2465.85,-0.448,0.224,-0.560,-0.541,0.079,0.837,0.691,-0.093,-0.717,2488.26,-0.671,0.112,-0.783,-0.596,0.260,0.760,-0.063,-0.439,-0.896,2504.10,-0.448,0.448,-0.448,-0.088,-0.020,-0.996,0.320,0.080,-0.944,2487.31,-0.671,0.112,-0.112,-0.952,0.175,0.252,0.398,0.197,0.896,10.985,5.618,-0.107,-1.344,0.706,0.244,0.665,10.136,-5.435,-5.176,-0.733,none
0.396206,0.484,-0.210,-0.850,2470.67,-0.560,0.224,-0.448,-0.517,0.115,0.848,0.690,-0.097,-0.717,2489.93,-0.336,0.000,-0.224,-0.624,0.276,0.731,-0.059,-0.436,-0.898,2520.59,-1.007,0.112,0.000,-0.126,-0.011,-0.992,0.323,0.080,-0.943,2490.21,-0.336,0.000,-0.112,-0.969,0.127,0.210,0.400,0.198,0.895,10.975,5.557,0.015,-1.405,0.705,0.242,0.666,10.151,-5.527,-4.977,-0.534,none
0.418939,0.481,-0.211,-0.851,2465.85,-0.224,-0.224,0.000,-0.519,0.067,0.852,0.688,-0.097,-0.719,2482.32,-0.224,-0.112,-0.224,-0.582,0.239,0.777,-0.063,-0.436,-0.898,2500.62,-0.783,0.000,0.448,-0.107,-0.042,-0.993,0.323,0.084,-0.943,2491.89,-0.112,-0.112,0.112,-0.978,0.112,0.174,0.399,0.196,0.896,10.968,5.618,0.122,-1.466,0.705,0.243,0.666,10.133,-5.588,-4.794,-0.473,none
0.440830,0.482,-0.212,-0.850,2456.50,0.000,-0.112,0.224,-0.506,0.092,0.857,0.688,-0.097,-0.719,2497.11,0.000,-0.224,-0.112,-0.598,0.239,0.765,-0.063,-0.438,-0.897,2512.17,-0.560,-0.224,0.112,-0.109,-0.059,-0.992,0.319,0.080,-0.944,2497.70,-0.224,0.000,-0.112,-0.954,0.160,0.254,0.399,0.198,0.895,10.969,5.557,-0.137,-1.191,0.707,0.242,0.665,10.124,-5.435,-5.130,-0.641,none
0.462871,0.481,-0.211,-0.851,2465.85,-0.560,-0.336,-0.224,-0.504,0.128,0.854,0.686,-0.097,-0.721,2489.51,0.336,-0.224,-0.336,-0.603,0.233,0.763,-0.063,-0.436,-0.898,2500.62,-0.783,-0.224,0.000,-0.116,-0.031,-0.993,0.320,0.080,-0.944,2487.31,-0.336,0.112,-0.224,-0.962,0.146,0.233,0.400,0.197,0.895,10.957,5.695,0.046,-1.282,0.706,0.241,0.666,10.140,-5.389,-4.885,-0.718,none
0.484007,0.477,-0.211,-0.853,2461.06,-0.224,-0.336,-0.112,-0.526,0.094,0.845,0.689,-0.093,-0.719,2495.44,-0.112,-0.112,-0.112,-0.605,0.253,0.755,-0.063,-0.439,-0.896,2504.10,-0.560,0.000,0.000,-0.128,-0.011,-0.992,0.320,0.080,-0.944,2487.31,-0.224,0.000,-0.112,-0.980,0.141,0.141,0.399,0.198,0.896,10.931,5.695,0.198,-1.511,0.707,0.242,0.665,10.139,-5.420,-4.718,-0.962,none
0.518779,0.481,-0.211,-0.851,2465.85,0.000,0.000,-0.224,-0.543,0.085,0.835,0.689,-0.093,-0.719,2495.44,-0.112,0.000,0.112,-0.599,0.315,0.736,-0.060,-0.438,-0.897,2491.09,0.112,-0.336,-0.112,-0.107,-0.044,-0.993,0.320,0.084,-0.944,2489.00,0.336,0.000,-0.112,-0.971,0.172,0.168,0.400,0.197,0.895,10.979,5.710,0.183,-1.527,0.704,0.244,0.667,10.156,-5.481,-4.641,-0.809,none
0.527569,0.481,-0.211,-0.851,2465.85,0.560,0.000,-0.112,-0.515,0.085,0.853,0.689,-0.093,-0.719,2495.44,0.224,-0.112,0.224,-0.599,0.316,0.736,-0.059,-0.439,-0.896,2504.44,-0.112,-0.224,0.112,-0.098,-0.033,-0.995,0.323,0.080,-0.943,2490.21,0.224,0.224,0.112,-0.958,0.184,0.220,0.400,0.197,0.895,10.947,5.649,-0.061,-1.176,0.706,0.243,0.665,10.109,-5.435,-4.947,-0.366,none
0.550513,0.480,-0.215,-0.850,2467.13,0.000,-0.448,-0.224,-0.511,0.066,0.857,0.688,-0.101,-0.718,2497.38,-0.112,-0.112,-0.336,-0.627,0.222,0.747,-0.063,-0.441,-0.895,2496.03,-0.783,-0.336,0.112,-0.109,-0.068,-0.992,0.321,0.081,-0.944,2478.82,0.000,0.224,0.000,-0.969,0.159,0.189,0.401,0.197,0.895,10.936,5.527,-0.336,-0.992,0.704,0.244,0.667,10.142,-5.466,-5.023,-0.015,none
0.572712,0.481,-0.211,-0.851,2465.85,-0.448,-0.671,-0.448,-0.522,0.070,0.850,0.686,-0.098,-0.721,2476.16,-0.112,-0.336,-0.224,-0.599,0.244,0.762,-0.060,-0.433,-0.899,2494.82,-1.343,-0.560,0.224,-0.088,-0.039,-0.995,0.323,0.084,-0.943,2491.89,0.224,0.000,0.224,-0.969,0.145,0.199,0.399,0.198,0.895,10.933,5.389,-0.305,-0.901,0.704,0.244,0.667,10.117,-5.573,-5.206,0.076,none
0.593467,0.482,-0.215,-0.849,2459.48,-0.112,-0.671,-0.336,-0.536,0.098,0.839,0.688,-0.097,-0.719,2482.32,-0.112,-0.224,-0.783,-0.625,0.241,0.743,-0.063,-0.438,-0.897,2512.17,-0.671,-0.448,0.448,-0.118,-0.023,-0.993,0.323,0.088,-0.942,2492.75,0.448,0.224,0.224,-0.962,0.170,0.212,0.403,0.196,0.894,10.943,5.435,0.122,-1.267,0.708,0.244,0.663,10.125,-5.802,-4.779,-0.122,none
0.616536,0.481,-0.207,-0.852,2463.76,-0.336,-0.560,-0.112,-0.519,0.127,0.845,0.689,-0.089,-0.719,2481.17,0.112,-0.224,-0.112,-0.628,0.226,0.745,-0.063,-0.439,-0.896,2504.10,-0.336,-0.224,0.224,-0.117,0.011,-0.993,0.320,0.080,-0.944,2487.31,0.560,0.000,0.224,-0.977,0.127,0.169,0.399,0.196,0.895,10.927,5.603,0.076,-1.344,0.706,0.241,0.666,10.131,-5.557,-4.611,-0.458,none
0.639437,0.479,-0.216,-0.851,2454.68,0.112,-0.112,0.000,-0.502,0.108,0.858,0.691,-0.093,-0.717,2488.26,0.112,0.000,-0.112,-0.591,0.217,0.777,-0.067,-0.439,-0.896,2504.75,-0.560,-0.224,0.112,-0.107,0.013,-0.994,0.323,0.076,-0.943,2489.42,0.224,0.224,0.112,-0.986,0.108,0.128,0.401,0.198,0.895,10.978,5.603,-0.015,-1.267,0.705,0.243,0.666,10.138,-5.405,-4.840,-0.718,none
0.660858,0.477,-0.211,-0.853,2461.06,-0.112,-0.112,-0.112,-0.517,0.115,0.848,0.687,-0.093,-0.721,2489.28,-0.112,-0.112,-0.112,-0.639,0.290,0.713,-0.060,-0.433,-0.899,2494.82,0.000,-0.112,-0.112,-0.118,-0.011,-0.993,0.319,0.084,-0.944,2497.49,0.112,0.112,-0.112,-0.965,0.097,0.245,0.400,0.197,0.895,10.969,5.649,0.382,-1.679,0.706,0.242,0.665,10.153,-5.542,-4.534,-1.023,none
0.683865,0.481,-0.211,-0.851,2465.85,0.000,0.112,0.112,-0.498,0.087,0.863,0.686,-0.097,-0.721,2489.51,0.224,0.112,0.560,-0.625,0.274,0.731,-0.063,-0.436,-0.898,2500.62,0.448,-0.224,-0.112,-0.128,-0.011,-0.992,0.323,0.084,-0.943,2491.89,-0.112,0.448,-0.112,-0.973,0.127,0.192,0.401,0.196,0.895,10.968,5.649,0.718,-1.908,0.706,0.242,0.665,10.117,-5.679,-4.244,-0.977,none
0.705871,0.482,-0.215,-0.849,2459.48,0.671,0.224,0.560,-0.493,0.088,0.866,0.688,-0.097,-0.719,2497.11,0.448,0.336,0.895,-0.609,0.232,0.759,-0.059,-0.438,-0.897,2510.72,1.007,0.000,0.000,-0.120,-0.037,-0.992,0.320,0.080,-0.944,2487.31,0.895,0.112,0.000,-0.962,0.175,0.210,0.400,0.196,0.895,10.961,5.695,0.519,-1.756,0.705,0.241,0.667,10.134,-5.588,-4.504,-0.901,none
0.727783,0.482,-0.212,-0.850,2456.50,0.000,0.000,0.224,-0.499,0.091,0.862,0.686,-0.097,-0.721,2489.51,0.224,0.112,0.336,-0.631,0.283,0.722,-0.063,-0.438,-0.897,2512.17,0.112,-0.224,0.000,-0.108,-0.050,-0.993,0.320,0.080,-0.944,2487.31,0.224,0.000,-0.112,-0.971,0.180,0.154,0.399,0.198,0.896,10.974,5.649,0.198,-1.496,0.708,0.243,0.663,10.108,-5.573,-4.733,-0.595,none
0.749831,0.482,-0.212,-0.850,2456.50,0.112,0.112,0.112,-0.492,0.097,0.865,0.689,-0.093,-0.719,2495.44,-0.336,0.000,-0.224,-0.622,0.289,0.728,-0.063,-0.436,-0.898,2500.62,-0.224,-0.336,0.224,-0.107,-0.044,-0.993,0.320,0.080,-0.944,2487.31,-0.783,0.000,-0.224,-0.944,0.175,0.280,0.400,0.197,0.895,10.970,5.634,0.305,-1.542,0.705,0.245,0.665,10.145,-5.603,-4.550,-0.611,none
0.771275,0.480,-0.215,-0.850,2467.13,-0.112,-0.448,0.112,-0.520,0.085,0.850,0.688,-0.097,-0.719,2497.11,0.000,0.000,0.000,-0.603,0.233,0.763,-0.067,-0.436,-0.898,2501.27,-0.112,0.000,0.112,-0.107,-0.011,-0.994,0.316,0.084,-0.945,2484.87,0.448,0.000,0.000,-0.965,0.186,0.186,0.402,0.196,0.894,10.943,5.664,0.412,-1.679,0.705,0.243,0.666,10.152,-5.603,-4.519,-0.855,none
0.795026,0.479,-0.212,-0.852,2451.69,0.000,-0.112,0.112,-0.544,0.105,0.833,0.687,-0.093,-0.721,2489.28,0.112,0.112,0.560,-0.619,0.339,0.709,-0.063,-0.436,-0.898,2500.62,0.560,0.112,-0.112,-0.105,0.002,-0.994,0.319,0.084,-0.944,2497.49,0.671,-0.112,0.112,-0.969,0.172,0.179,0.400,0.195,0.895,10.947,5.740,0.580,-1.847,0.703,0.241,0.669,10.163,-5.557,-4.519,-1.359,none
0.816721,0.479,-0.212,-0.852,2451.69,0.560,0.224,0.224,-0.550,0.079,0.831,0.688,-0.097,-0.719,2497.11,-0.224,0.112,0.560,-0.624,0.243,0.742,-0.063,-0.439,-0.896,2504.10,0.783,0.224,-0.448,-0.106,0.011,-0.994,0.323,0.080,-0.943,2490.21,-0.224,0.000,0.000,-0.972,0.142,0.186,0.401,0.197,0.894,10.939,5.817,0.198,-1.527,0.705,0.242,0.666,10.145,-5.252,-4.977,-1.435,none
0.838540,0.482,-0.212,-0.850,2456.50,-0.112,0.336,-0.224,-0.521,0.083,0.849,0.686,-0.097,-0.721,2489.51,-0.560,0.112,0.224,-0.599,0.316,0.736,-0.059,-0.438,-0.897,2510.72,0.112,0.336,-0.224,-0.096,-0.022,-0.995,0.321,0.084,-0.943,2478.62,-0.224,0.112,-0.224,-0.971,0.127,0.200,0.401,0.197,0.895,10.975,5.847,0.473,-1.802,0.704,0.243,0.667,10.148,-5.389,-4.550,-1.481,none
0.860462,0.483,-0.214,-0.849,2471.95,0.336,0.224,0.224,-0.553,0.097,0.828,0.690,-0.097,-0.717,2489.93,0.112,0.112,0.448,-0.650,0.262,0.713,-0.059,-0.438,-0.897,2510.72,1.231,0.336,-0.224,-0.140,-0.011,-0.990,0.323,0.080,-0.943,2490.21,0.000,0.112,-0.112,-0.958,0.172,0.231,0.399,0.199,0.895,10.943,5.786,0.519,-1.817,0.705,0.243,0.666,10.135,-5.481,-4.519,-1.267,none
0.881914,0.482,-0.215,-0.849,2459.48,0.224,0.336,0.224,-0.537,0.104,0.837,0.688,-0.097,-0.719,2482.32,0.000,0.224,0.448,-0.604,0.326,0.727,-0.059,-0.439,-0.896,2504.44,0.560,0.224,-0.112,-0.115,-0.021,-0.993,0.323,0.080,-0.943,2490.21,0.336,-0.112,-0.112,-0.964,0.061,0.259,0.400,0.196,0.895,10.972,5.649,0.336,-1.664,0.705,0.244,0.665,10.124,-5.573,-4.565,-0.947,none
0.904969,0.481,-0.211,-0.851,2465.85,0.224,0.000,0.112,-0.510,0.089,0.856,0.690,-0.097,-0.717,2489.93,0.112,-0.112,0.224,-0.587,0.229,0.776,-0.063,-0.436,-0.898,2500.62,0.000,-0.224,0.000,-0.096,-0.022,-0.995,0.321,0.081,-0.944,2478.82,-0.336,0.112,-0.112,-0.973,0.141,0.181,0.401,0.196,0.895,10.938,5.618,0.473,-1.710,0.706,0.242,0.666,10.146,-5.634,-4.458,-0.733,none
0.926056,0.482,-0.212,-0.850,2456.50,0.000,0.112,0.112,-0.502,0.088,0.860,0.688,-0.097,-0.719,2497.11,0.112,-0.224,0.336,-0.587,0.269,0.763,-0.059,-0.439,-0.896,2504.44,0.336,0.000,0.112,-0.088,-0.033,-0.996,0.323,0.084,-0.943,2491.89,0.112,0.224,0.112,-0.978,0.155,0.140,0.400,0.197,0.895,10.949,5.618,0.550,-1.740,0.705,0.242,0.667,10.139,-5.725,-4.260,-0.580,none
0.947659,0.480,-0.215,-0.850,2467.13,0.224,0.000,0.336,-0.508,0.110,0.854,0.690,-0.097,-0.717,2489.93,0.560,-0.112,0.336,-0.622,0.289,0.728,-0.063,-0.439,-0.896,2504.10,-0.336,-0.448,0.112,-0.099,-0.036,-0.994,0.320,0.080,-0.944,2487.31,0.895,-0.112,0.000,-0.973,0.195,0.119,0.398,0.197,0.896,10.958,5.527,0.137,-1.450,0.705,0.239,0.668,10.142,-5.573,-4.779,-0.550,none
0.970158,0.482,-0.212,-0.850,2456.50,0.000,-0.336,-0.112,-0.507,0.070,0.859,0.688,-0.097,-0.719,2497.11,0.112,-0.112,-0.448,-0.614,0.231,0.755,-0.063,-0.436,-0.898,2500.62,-0.671,0.000,0.112,-0.106,-0.011,-0.994,0.319,0.084,-0.944,2497.49,-0.224,0.000,0.112,-0.950,0.160,0.270,0.401,0.195,0.895,10.961,5.618,0.305,-1.618,0.706,0.242,0.665,10.124,-5.573,-4.718,-0.779,none
0.991271,0.482,-0.212,-0.850,2456.50,0.112,0.112,0.112,-0.531,0.088,0.843,0.690,-0.097,-0.717,2489.93,-0.112,0.112,-0.112,-0.652,0.213,0.728,-0.060,-0.436,-0.898,2499.17,0.112,0.000,-0.112,-0.106,-0.011,-0.994,0.321,0.081,-0.944,2478.82,-0.336,0.336,0.000,-0.971,0.127,0.200,0.399,0.197,0.895,10.928,5.725,0.473,-1.756,0.704,0.242,0.667,10.113,-5.557,-4.458,-0.962,none
1.013251,0.482,-0.215,-0.849,2459.48,0.560,0.112,0.224,-0.540,0.093,0.837,0.690,-0.097,-0.717,2489.93,-0.112,0.000,0.000,-0.605,0.253,0.755,-0.059,-0.439,-0.896,2504.44,0.560,0.000,0.000,-0.136,-0.011,-0.991,0.324,0.077,-0.943,2480.94,0.448,-0.336,0.224,-0.988,0.123,0.091,0.401,0.196,0.895,10.951,5.649,0.244,-1.542,0.705,0.244,0.666,10.134,-5.481,-4.794,-0.763,none
1.044850,0.482,-0.212,-0.850,2456.50,-0.112,-0.224,-0.224,-0.552,0.072,0.831,0.688,-0.101,-0.719,2484.03,0.112,-0.224,-0.112,-0.575,0.254,0.778,-0.063,-0.436,-0.898,2500.62,-0.336,-0.224,0.000,-0.116,-0.018,-0.993,0.324,0.084,-0.942,2481.52,0.224,0.224,0.112,-0.977,0.142,0.161,0.401,0.199,0.894,10.941,5.679,0.718,-1.695,0.705,0.241,0.668,10.141,-5.649,-4.382,-0.626,none
1.060913,0.482,-0.215,-0.849,2459.48,0.336,0.000,0.224,-0.500,0.097,0.861,0.688,-0.097,-0.719,2497.11,0.336,-0.112,0.336,-0.642,0.226,0.733,-0.060,-0.436,-0.898,2499.17,0.112,0.000,0.224,-0.126,0.000,-0.992,0.323,0.080,-0.943,2490.21,-0.112,0.224,0.112,-0.979,0.156,0.129,0.400,0.197,0.895,10.950,5.649,0.382,-1.588,0.705,0.245,0.666,10.119,-5.481,-4.733,-0.718,none
1.080168,0.485,-0.215,-0.848,2464.31,0.000,-0.112,-0.112,-0.508,0.082,0.858,0.690,-0.097,-0.717,2489.93,0.112,0.112,0.000,-0.608,0.347,0.714,-0.060,-0.433,-0.899,2494.82,-0.224,0.000,0.000,-0.086,0.002,-0.996,0.323,0.084,-0.943,2491.89,0.224,0.224,0.224,-0.973,0.156,0.171,0.400,0.199,0.895,10.942,5.649,0.672,-1.664,0.704,0.246,0.667,10.131,-5.679,-4.427,-0.626,none
1.108858,0.482,-0.212,-0.850,2456.50,0.112,-0.224,0.336,-0.533,0.074,0.843,0.690,-0.097,-0.717,2489.93,0.112,-0.112,0.000,-0.624,0.243,0.742,-0.060,-0.436,-0.898,2499.17,-0.112,0.000,0.224,-0.089,-0.046,-0.995,0.322,0.076,-0.944,2499.80,0.224,0.112,0.112,-0.964,0.145,0.222,0.399,0.194,0.896,10.938,5.725,1.008,-1.939,0.704,0.240,0.668,10.098,-5.832,-4.000,-0.427,none
1.125115,0.479,-0.216,-0.851,2454.68,0.448,-0.224,0.448,-0.535,0.085,0.841,0.688,-0.105,-0.718,2485.07,0.560,0.000,0.224,-0.620,0.218,0.753,-0.060,-0.436,-0.898,2499.17,0.112,-0.224,0.448,-0.089,-0.053,-0.995,0.321,0.065,-0.945,2475.91,0.671,0.224,-0.112,-0.974,0.199,0.111,0.400,0.197,0.895,10.921,5.679,0.122,-1.435,0.704,0.240,0.669,10.113,-5.420,-5.130,-0.626,none
1.147905,0.477,-0.211,-0.853,2461.06,-0.336,0.000,-0.336,-0.531,0.133,0.837,0.688,-0.101,-0.719,2484.03,0.000,0.336,-0.560,-0.602,0.284,0.746,-0.060,-0.434,-0.899,2486.73,-0.224,0.112,-0.112,-0.122,-0.072,-0.990,0.323,0.084,-0.943,2491.89,0.224,0.000,0.000,-0.969,0.127,0.211,0.399,0.196,0.896,10.918,5.664,0.168,-1.466,0.704,0.241,0.668,10.123,-5.405,-4.748,-0.794,none
1.170020,0.480,-0.208,-0.852,2449.59,-0.112,-0.112,-0.112,-0.517,0.050,0.855,0.688,-0.097,-0.719,2482.32,-0.112,-0.448,0.112,-0.615,0.248,0.749,-0.067,-0.442,-0.894,2510.05,0.560,0.112,-0.224,-0.099,-0.044,-0.994,0.321,0.083,-0.943,2509.81,-0.448,0.224,-0.112,-0.965,0.159,0.211,0.401,0.196,0.895,10.944,5.679,0.336,-1.511,0.704,0.242,0.668,10.135,-5.496,-4.672,-0.779,none
1.191063,0.481,-0.211,-0.851,2465.85,-0.112,-0.336,-0.224,-0.493,0.090,0.865,0.690,-0.101,-0.716,2490.21,-0.112,-0.112,0.000,-0.605,0.255,0.754,-0.067,-0.438,-0.897,2512.81,0.112,0.000,0.000,-0.105,0.013,-0.994,0.323,0.088,-0.942,2492.75,-0.224,0.224,-0.112,-0.973,0.112,0.202,0.400,0.199,0.895,10.963,5.832,0.718,-1.863,0.705,0.243,0.666,10.153,-5.481,-4.458,-1.221,none
1.213626,0.482,-0.212,-0.850,2456.50,-0.112,0.112,0.000,-0.529,0.117,0.840,0.691,-0.089,-0.717,2487.35,0.112,0.336,0.783,-0.586,0.264,0.766,-0.055,-0.435,-0.899,2506.68,1.343,0.224,-0.112,-0.128,-0.033,-0.991,0.324,0.081,-0.942,2481.72,0.560,0.224,0.000,-0.962,0.146,0.233,0.400,0.199,0.895,10.934,5.847,0.840,-1.802,0.702,0.242,0.669,10.129,-5.466,-4.397,-0.901,none
1.238720,0.480,-0.215,-0.850,2467.13,-0.112,0.224,0.224,-0.531,0.088,0.843,0.688,-0.097,-0.719,2482.32,0.112,-0.112,-0.112,-0.593,0.273,0.757,-0.059,-0.438,-0.897,2510.72,-0.895,0.000,0.224,-0.109,-0.012,-0.994,0.323,0.076,-0.943,2489.42,0.000,0.000,-0.112,-0.982,0.127,0.142,0.399,0.198,0.895,10.944,5.725,0.397,-1.389,0.705,0.244,0.666,10.138,-5.435,-4.931,-0.550,none
1.260125,0.482,-0.212,-0.850,2456.50,-0.224,-0.448,-0.224,-0.508,0.149,0.849,0.688,-0.097,-0.719,2482.32,-0.112,0.000,-0.560,-0.634,0.304,0.712,-0.063,-0.436,-0.898,2500.62,-0.336,-0.112,0.112,-0.126,-0.021,-0.992,0.323,0.084,-0.943,2491.89,-0.783,0.224,0.000,-0.965,0.161,0.208,0.398,0.198,0.896,10.964,5.710,0.687,-1.695,0.705,0.242,0.666,10.144,-5.573,-4.611,-0.931,none
1.282632,0.482,-0.212,-0.850,2456.50,0.112,0.112,0.112,-0.524,0.102,0.845,0.689,-0.093,-0.719,2495.44,-0.224,0.112,-0.112,-0.621,0.323,0.714,-0.059,-0.439,-0.896,2504.44,0.560,0.224,0.000,-0.126,-0.010,-0.992,0.322,0.080,-0.943,2500.58,-0.336,0.224,0.112,-0.941,0.145,0.306,0.398,0.196,0.896,10.962,5.740,0.840,-1.893,0.705,0.242,0.667,10.144,-5.740,-4.443,-0.885,none
1.305591,0.482,-0.215,-0.849,2459.48,0.000,-0.112,0.336,-0.531,0.108,0.840,0.690,-0.097,-0.717,2489.93,0.448,0.000,0.336,-0.578,0.306,0.756,-0.063,-0.436,-0.898,2500.62,0.560,0.112,0.112,-0.109,-0.055,-0.993,0.319,0.080,-0.944,2497.70,0.783,-0.112,0.112,-0.976,0.112,0.188,0.398,0.194,0.897,10.956,5.771,0.702,-1.817,0.705,0.244,0.666,10.118,-5.603,-4.656,-1.053,none
1.327447,0.482,-0.219,-0.849,2460.81,0.000,0.000,0.000,-0.526,0.113,0.843,0.688,-0.097,-0.719,2482.32,-0.112,0.336,0.336,-0.615,0.284,0.736,-0.059,-0.439,-0.896,2504.44,0.336,0.000,-0.112,-0.107,0.000,-0.994,0.323,0.080,-0.943,2490.21,0.112,-0.112,0.000,-0.980,0.167,0.110,0.398,0.198,0.896,10.933,5.786,0.595,-1.618,0.704,0.243,0.668,10.123,-5.405,-4.779,-1.084,none
1.348815,0.480,-0.215,-0.850,2467.13,-0.112,0.448,-0.112,-0.481,0.108,0.870,0.690,-0.097,-0.717,2489.93,-0.224,0.000,0.000,-0.625,0.278,0.730,-0.063,-0.439,-0.896,2504.10,0.112,0.224,-0.224,-0.087,-0.056,-0.995,0.323,0.080,-0.943,2490.21,-1.007,0.224,-0.448,-0.962,0.182,0.202,0.400,0.197,0.895,10.959,5.802,0.809,-1.786,0.705,0.240,0.667,10.140,-5.511,-4.550,-1.099,none
1.370898,0.480,-0.215,-0.850,2467.13,0.112,0.336,0.112,-0.539,0.081,0.838,0.686,-0.097,-0.721,2489.51,-0.224,0.224,0.112,-0.595,0.274,0.755,-0.063,-0.441,-0.895,2496.03,0.671,0.000,-0.224,-0.098,-0.055,-0.994,0.320,0.080,-0.944,2487.31,-0.783,0.224,-0.336,-0.957,0.159,0.243,0.399,0.197,0.896,10.948,5.756,0.534,-1.740,0.705,0.241,0.667,10.132,-5.405,-4.840,-1.084,none
1.392925,0.482,-0.215,-0.849,2459.48,-0.112,0.336,0.000,-0.519,0.099,0.849,0.688,-0.101,-0.719,2484.03,-0.671,0.224,-0.336,-0.574,0.251,0.780,-0.060,-0.436,-0.898,2499.17,0.336,0.336,-0.224,-0.126,0.000,-0.992,0.324,0.081,-0.942,2481.72,-0.448,-0.112,0.000,-0.958,0.159,0.237,0.398,0.197,0.896,10.983,5.771,0.595,-1.725,0.705,0.245,0.666,10.150,-5.542,-4.748,-0.962,none
1.416419,0.485,-0.215,-0.848,2464.31,0.224,0.224,0.112,-0.531,0.088,0.843,0.690,-0.097,-0.717,2489.93,-0.224,0.112,-0.224,-0.610,0.243,0.754,-0.059,-0.439,-0.896,2504.44,0.560,0.000,-0.112,-0.116,-0.021,-0.993,0.323,0.084,-0.943,2491.89,-0.448,0.112,0.000,-0.979,0.154,0.133,0.396,0.198,0.897,10.977,5.725,0.595,-1.695,0.705,0.243,0.666,10.134,-5.588,-4.779,-0.763,none
1.439112,0.480,-0.215,-0.850,2467.13,0.224,-0.112,-0.112,-0.510,0.114,0.853,0.688,-0.097,-0.719,2497.11,-0.112,0.000,-0.112,-0.587,0.269,0.763,-0.059,-0.439,-0.896,2504.44,0.224,0.112,0.000,-0.118,-0.044,-0.992,0.322,0.084,-0.943,2500.37,-0.224,0.000,0.112,-0.977,0.127,0.173,0.396,0.197,0.897,10.966,5.832,0.855,-1.664,0.703,0.243,0.668,10.138,-5.557,-4.763,-0.794,none
1.457890,0.480,-0.215,-0.850,2467.13,-0.224,-0.224,-0.112,-0.527,0.104,0.843,0.690,-0.097,-0.717,2489.93,-0.224,0.000,-0.336,-0.588,0.262,0.766,-0.063,-0.439,-0.896,2504.10,0.112,-0.112,0.000,-0.136,0.000,-0.991,0.323,0.080,-0.943,2490.21,0.112,-0.336,0.224,-0.965,0.143,0.220,0.397,0.200,0.896,10.968,5.817,0.702,-1.649,0.704,0.242,0.668,10.154,-5.573,-4.977,-0.794,none
1.479053,0.484,-0.210,-0.850,2470.67,-0.112,0.224,-0.112,-0.518,0.087,0.851,0.692,-0.097,-0.715,2496.84,-0.336,0.000,-0.336,-0.601,0.338,0.724,-0.063,-0.442,-0.895,2509.40,-0.112,0.000,-0.112,-0.151,-0.037,-0.988,0.324,0.081,-0.942,2481.72,-0.112,-0.224,0.000,-0.973,0.182,0.142,0.397,0.197,0.897,10.954,5.817,0.763,-1.588,0.705,0.239,0.668,10.126,-5.527,-5.023,-0.702,none
1.499613,0.482,-0.212,-0.850,2456.50,-0.224,0.224,-0.336,-0.512,0.092,0.854,0.686,-0.097,-0.721,2489.51,-0.224,0.112,-0.336,-0.624,0.234,0.745,-0.063,-0.439,-0.896,2504.10,-0.671,-0.224,0.000,-0.097,0.013,-0.995,0.322,0.084,-0.943,2500.37,-0.224,-0.112,-0.112,-0.960,0.161,0.231,0.397,0.197,0.897,10.952,5.878,0.840,-1.496,0.706,0.241,0.666,10.122,-5.420,-5.145,-0.626,none
1.520878,0.482,-0.212,-0.850,2456.50,-0.224,0.224,-0.224,-0.485,0.085,0.870,0.686,-0.097,-0.721,2489.51,-0.448,-0.224,0.000,-0.637,0.221,0.739,-0.067,-0.436,-0.898,2501.27,-0.560,-0.336,0.224,-0.107,-0.011,-0.994,0.320,0.084,-0.944,2489.00,0.112,-0.224,0.000,-0.960,0.174,0.219,0.399,0.198,0.895,10.967,5.985,1.008,-1.664,0.705,0.241,0.667,10.172,-5.496,-4.840,-0.794,none
1.545573,0.482,-0.212,-0.850,2456.50,0.224,0.448,-0.224,-0.514,0.117,0.850,0.687,-0.093,-0.721,2489.28,-0.224,0.224,-0.112,-0.586,0.264,0.766,-0.063,-0.436,-0.898,2500.62,0.224,0.000,0.112,-0.106,-0.019,-0.994,0.320,0.084,-0.944,2489.00,0.000,-0.112,0.000,-0.970,0.170,0.174,0.397,0.197,0.896,10.948,6.137,1.496,-1.954,0.704,0.242,0.668,10.145,-5.588,-4.519,-1.053,none
1.565960,0.480,-0.215,-0.850,2467.13,0.448,0.448,0.224,-0.523,0.102,0.846,0.688,-0.097,-0.719,2497.11,-0.224,0.448,0.112,-0.639,0.241,0.730,-0.063,-0.439,-0.896,2504.10,0.671,0.000,0.112,-0.137,0.000,-0.991,0.322,0.080,-0.943,2500.58,-0.224,0.112,0.000,-0.966,0.131,0.223,0.395,0.198,0.897,10.944,6.260,1.405,-1.908,0.704,0.244,0.667,10.131,-5.527,-4.916,-1.252,none
1.587451,0.485,-0.215,-0.848,2464.31,-0.224,0.560,-0.112,-0.534,0.080,0.842,0.690,-0.097,-0.717,2489.93,-0.895,0.336,-0.783,-0.640,0.238,0.730,-0.059,-0.439,-0.896,2504.44,0.336,0.224,0.112,-0.087,-0.045,-0.995,0.323,0.080,-0.943,2490.21,-0.895,-0.224,-0.224,-0.980,0.127,0.152,0.397,0.201,0.896,10.943,6.305,1.527,-2.000,0.703,0.245,0.668,10.143,-5.573,-5.328,-1.374,none
1.609767,0.483,-0.216,-0.848,2450.99,-1.119,0.336,-0.448,-0.518,0.081,0.852,0.693,-0.089,-0.715,2494.27,-1.790,0.112,-0.671,-0.632,0.280,0.722,-0.060,-0.436,-0.898,2499.17,0.448,0.000,0.000,-0.107,0.011,-0.994,0.326,0.083,-0.942,2503.61,-1.343,0.000,-0.448,-0.983,0.127,0.134,0.393,0.199,0.898,10.939,6.305,1.679,-1.908,0.701,0.243,0.670,10.130,-5.573,-5.237,-1.313,none
1.633842,0.482,-0.215,-0.849,2459.48,-0.895,0.560,-0.448,-0.575,0.077,0.815,0.693,-0.093,-0.715,2481.82,-0.783,0.448,-0.671,-0.624,0.312,0.717,-0.059,-0.441,-0.895,2516.01,0.783,0.112,-0.224,-0.120,-0.058,-0.991,0.322,0.080,-0.943,2500.58,-0.671,-0.336,-0.112,-0.971,0.127,0.200,0.406,0.196,0.893,10.958,9.542,6.931,-1.374,0.703,0.244,0.668,10.163,-5.496,-4.412,-1.221,none
1.654777,0.480,-0.215,-0.850,2467.13,-0.783,0.671,-0.336,-0.520,0.071,0.851,0.691,-0.089,-0.717,2487.35,-0.560,0.448,-0.224,-0.565,0.258,0.784,-0.063,-0.436,-0.898,2500.62,-0.112,0.112,0.112,-0.098,-0.055,-0.994,0.323,0.080,-0.943,2490.21,0.336,-0.448,0.112,-0.982,0.167,0.089,0.390,0.202,0.898,10.933,6.931,2.626,-1.847,0.704,0.243,0.668,10.136,-5.557,-4.824,-1.237,none
1.676671,0.482,-0.212,-0.850,2456.50,-0.448,0.448,-0.224,-0.499,0.089,0.862,0.691,-0.089,-0.717,2487.35,-0.671,0.448,-0.336,-0.600,0.317,0.734,-0.063,-0.438,-0.897,2512.17,1.007,0.224,0.000,-0.077,-0.009,-0.997,0.319,0.084,-0.944,2497.49,-0.224,-0.671,0.000,-0.972,0.169,0.162,0.392,0.198,0.898,10.927,6.626,1.954,-1.985,0.703,0.241,0.669,10.138,-5.481,-4.641,-1.313,none
1.697808,0.481,-0.211,-0.851,2465.85,-0.783,0.671,-0.336,-0.511,0.086,0.855,0.689,-0.093,-0.719,2495.44,-0.448,0.560,-0.112,-0.610,0.273,0.744,-0.063,-0.441,-0.895,2496.03,0.895,0.336,-0.112,-0.105,0.034,-0.994,0.320,0.080,-0.944,2487.31,-0.671,-0.336,-0.336,-0.981,0.141,0.133,0.384,0.202,0.901,10.925,7.771,3.359,-1.695,0.703,0.242,0.668,10.123,-5.359,-4.718,-1.405,none
1.718648,0.483,-0.214,-0.849,2471.95,-2.574,0.224,-1.343,-0.540,0.088,0.837,0.689,-0.093,-0.719,2495.44,-0.783,0.671,-0.671,-0.582,0.314,0.750,-0.063,-0.439,-0.896,2504.10,0.783,0.336,-0.448,-0.096,0.000,-0.995,0.321,0.083,-0.943,2509.81,-1.679,-1.567,-0.560,-0.949,0.175,0.264,0.391,0.201,0.898,10.954,7.053,1.618,-1.908,0.706,0.244,0.664,10.127,-5.313,-5.420,-1.695,none
1.741136,0.486,-0.240,-0.840,2496.60,-0.560,1.343,-0.560,-0.512,0.053,0.858,0.695,-0.092,-0.714,2418.83,-1.455,1.455,-1.455,-0.605,0.255,0.754,-0.060,-0.446,-0.893,2468.65,0.560,0.224,-0.448,-0.096,-0.009,-0.995,0.323,0.091,-0.942,2525.14,-2.238,-0.783,-0.671,-0.945,0.175,0.276,0.384,0.207,0.900,10.959,7.511,0.931,-1.954,0.704,0.247,0.666,10.169,-4.718,-5.908,-2.168,none
1.763090,0.490,-0.267,-0.830,2420.52,-1.455,1.567,-2.574,-0.530,0.103,0.842,0.698,-0.071,-0.713,2435.21,-3.357,4.029,-2.686,-0.606,0.322,0.727,-0.058,-0.443,-0.895,2396.20,1.343,0.336,-0.671,-0.105,0.013,-0.994,0.313,0.094,-0.945,2445.39,-2.014,-3.357,0.000,-0.973,0.127,0.191,0.392,0.200,0.898,10.976,7.313,1.344,-1.649,0.655,0.242,0.716,9.595,-5.450,-8.595,0.397,none
1.785120,0.486,-0.249,-0.838,2480.33,2.350,2.350,-0.448,-0.530,0.103,0.842,0.696,-0.071,-0.714,2594.68,-0.671,3.805,-0.336,-0.612,0.262,0.746,-0.063,-0.421,-0.905,2499.24,0.783,0.000,0.112,-0.107,-0.033,-0.994,0.344,0.077,-0.936,2602.56,-0.336,-2.686,-0.224,-0.982,0.098,0.162,0.407,0.196,0.892,11.016,7.695,10.336,-4.397,0.693,0.254,0.675,10.074,-5.908,-13.786,-2.656,none
1.806801,0.486,-0.169,-0.857,2435.92,-13.988,3.917,-5.707,-0.541,0.093,0.836,0.697,-0.024,-0.717,2367.58,-19.807,6.826,-8.169,-0.624,0.276,0.731,-0.062,-0.462,-0.884,2568.71,9.176,1.007,-3.245,-0.107,-0.043,-0.993,0.318,0.083,-0.944,2405.04,-3.469,-7.722,0.560,-0.978,0.155,0.140,0.379,0.207,0.902,10.915,6.656,1.221,-1.802,0.711,0.241,0.660,10.144,-5.160,-7.893,-1.511,none
1.829404,0.485,-0.195,-0.852,2461.91,-1.902,2.014,-2.014,-0.536,0.093,0.839,0.694,-0.078,-0.716,2477.76,-3.133,2.462,-1.343,-0.621,0.324,0.714,-0.059,-0.440,-0.896,2524.07,-1.119,0.671,-0.224,-0.131,-0.038,-0.991,0.315,0.079,-0.946,2526.05,-3.133,-3.133,-0.895,-0.970,0.099,0.224,0.386,0.204,0.900,10.963,6.519,-1.527,-1.756,0.706,0.243,0.665,10.077,-4.580,-10.153,-2.244,none
1.859650,0.492,-0.213,-0.844,2486.94,-9.400,3.021,-4.924,-0.522,0.078,0.849,0.705,-0.092,-0.704,2523.04,-7.050,4.924,-3.133,-0.657,0.272,0.703,-0.064,-0.436,-0.898,2456.43,4.252,0.560,-2.574,-0.096,-0.022,-0.995,0.301,0.098,-0.949,2546.73,-5.707,-8.505,-0.112,-0.957,0.158,0.245,0.403,0.206,0.892,10.921,9.435,-1.771,-1.344,0.710,0.249,0.658,10.142,-3.878,-16.046,-3.130,none
1.875869,0.492,-0.156,-0.856,2449.55,-16.786,5.371,-8.505,-0.559,0.048,0.827,0.692,-0.099,-0.715,2441.27,-17.457,3.693,-7.386,-0.633,0.231,0.739,-0.064,-0.449,-0.891,2473.68,6.379,2.350,-4.141,-0.097,0.002,-0.995,0.307,0.085,-0.948,2466.06,-6.379,-9.288,0.671,-0.967,0.173,0.188,0.366,0.211,0.906,10.762,6.412,-1.771,1.145,0.685,0.251,0.684,9.718,-3.481,-12.153,-1.481,none
1.897060,0.493,-0.172,-0.853,2460.38,-8.952,4.476,-6.491,-0.581,0.056,0.812,0.701,-0.046,-0.711,2479.68,-10.072,8.169,-4.252,-0.623,0.209,0.754,-0.056,-0.428,-0.902,2477.96,4.476,0.671,-3.021,-0.106,0.025,-0.994,0.312,0.106,-0.944,2519.77,-6.043,-7.945,-0.112,-0.970,0.142,0.199,0.395,0.209,0.894,10.940,6.901,-3.832,-1.603,0.723,0.251,0.643,10.172,-3.710,-14.931,-3.206,none
1.919115,0.496,-0.179,-0.850,2469.51,-10.519,4.476,-6.938,-0.536,0.071,0.842,0.708,-0.060,-0.704,2412.01,-10.743,6.267,-6.826,-0.676,0.202,0.709,-0.056,-0.457,-0.888,2494.57,6.267,2.126,-3.693,-0.126,0.024,-0.992,0.304,0.089,-0.948,2455.65,-4.924,-8.393,-0.112,-0.937,0.175,0.303,0.367,0.213,0.906,10.880,11.649,-2.672,1.924,0.729,0.263,0.632,10.188,-0.550,-7.496,-7.634,none
1.943276,0.500,-0.152,-0.853,2448.89,-5.483,5.148,-6.155,-0.544,0.065,0.837,0.707,-0.038,-0.706,2486.59,-6.267,8.057,-5.148,-0.631,0.246,0.736,-0.052,-0.441,-0.896,2493.47,4.700,1.455,-3.133,-0.113,0.023,-0.993,0.297,0.110,-0.949,2517.51,-4.252,-8.617,0.000,-0.973,0.157,0.171,0.391,0.209,0.897,10.949,7.557,-3.786,-0.183,0.718,0.250,0.649,10.113,-2.550,-10.076,-5.405,none
1.965427,0.498,-0.186,-0.847,2478.12,-7.162,4.924,-6.379,-0.548,0.059,0.834,0.711,-0.047,-0.702,2418.22,-2.686,6.602,-8.841,-0.643,0.215,0.735,-0.051,-0.464,-0.884,2539.04,7.498,1.343,-3.917,-0.133,-0.010,-0.991,0.300,0.100,-0.949,2486.94,-5.819,-7.274,-0.336,-0.982,0.141,0.126,0.395,0.211,0.894,10.909,7.603,-4.214,-0.687,0.755,0.240,0.611,10.505,-4.229,-22.183,-3.206,none
1.987204,0.503,-0.167,-0.848,2530.60,-6.714,4.252,-6.267,-0.577,0.055,0.815,0.701,-0.096,-0.707,2634.06,3.021,10.407,-4.924,-0.663,0.186,0.725,-0.056,-0.444,-0.894,2477.00,8.393,1.343,-4.588,-0.115,-0.021,-0.993,0.309,0.096,-0.946,2481.33,-4.364,-5.931,-0.783,-0.968,0.096,0.233,0.397,0.213,0.893,10.937,6.229,-4.260,-0.275,0.726,0.255,0.639,10.177,-3.252,-11.008,-2.824,none
2.008422,0.500,-0.172,-0.849,2449.18,-5.931,2.350,-5.036,-0.587,0.043,0.809,0.725,-0.048,-0.687,2369.58,-2.350,5.260,-7.945,-0.672,0.231,0.704,-0.052,-0.465,-0.884,2493.50,3.581,0.671,-2.574,-0.128,-0.011,-0.992,0.294,0.116,-0.949,2475.74,-3.469,-3.469,-0.112,-0.960,0.131,0.246,0.400,0.210,0.892,10.943,6.550,-0.580,-0.992,0.717,0.255,0.649,10.060,-4.260,-8.656,-2.214,none
2.029794,0.500,-0.179,-0.847,2466.00,-0.112,1.902,-2.462,-0.560,0.055,0.827,0.710,-0.073,-0.701,2519.06,6.491,5.819,-0.560,-0.644,0.259,0.720,-0.055,-0.468,-0.882,2521.02,2.910,0.336,-1.567,-0.099,-0.033,-0.995,0.285,0.100,-0.953,2484.76,-0.224,-2.462,0.000,-0.934,0.164,0.317,0.403,0.207,0.891,10.907,5.893,-2.687,-0.901,0.725,0.255,0.640,10.117,-4.412,-7.679,-1.466,none
2.051119,0.503,-0.144,-0.852,2451.79,-4.252,1.343,-3.357,-0.546,0.027,0.837,0.708,-0.077,-0.702,2513.43,2.350,3.693,-1.790,-0.666,0.291,0.687,-0.047,-0.466,-0.883,2528.83,1.902,0.448,-1.567,-0.107,-0.021,-0.994,0.290,0.108,-0.951,2470.57,-0.783,-2.686,0.336,-0.958,0.131,0.257,0.406,0.210,0.889,10.942,5.649,-1.176,-0.748,0.724,0.258,0.639,10.131,-4.901,-6.641,-0.702,none
2.072722,0.503,-0.152,-0.851,2454.75,-1.790,0.336,-1.567,-0.570,0.032,0.821,0.714,-0.077,-0.696,2493.15,2.798,2.014,-0.448,-0.657,0.171,0.734,-0.051,-0.461,-0.886,2512.08,-0.895,0.336,-0.560,-0.133,0.002,-0.991,0.292,0.108,-0.950,2492.49,-1.567,-0.336,-0.112,-0.960,0.161,0.231,0.405,0.208,0.890,10.937,5.725,-0.061,-0.992,0.727,0.255,0.637,10.166,-5.206,-5.374,-0.443,none
2.095013,0.501,-0.151,-0.852,2462.42,-0.671,0.000,-0.783,-0.556,0.033,0.830,0.715,-0.058,-0.697,2489.83,2.014,1.231,-0.112,-0.664,0.177,0.726,-0.052,-0.460,-0.886,2497.73,-0.448,0.224,-0.336,-0.115,0.023,-0.993,0.292,0.104,-0.951,2490.49,-1.231,0.336,-0.112,-0.957,0.191,0.219,0.402,0.209,0.891,10.955,5.802,0.092,-1.023,0.726,0.256,0.638,10.145,-5.176,-4.840,-0.473,none
2.117210,0.504,-0.155,-0.850,2469.82,0.224,0.000,-0.224,-0.587,0.043,0.809,0.716,-0.062,-0.695,2483.47,1.231,0.783,0.000,-0.659,0.162,0.734,-0.048,-0.460,-0.887,2497.23,-0.783,0.000,0.112,-0.138,0.011,-0.990,0.288,0.108,-0.952,2488.64,0.224,-0.112,0.224,-0.954,0.176,0.244,0.403,0.211,0.891,10.945,5.878,0.229,-1.145,0.726,0.258,0.637,10.149,-5.237,-4.397,-0.580,none
2.138909,0.506,-0.156,-0.849,2460.48,0.671,-0.112,0.112,-0.543,0.038,0.839,0.716,-0.062,-0.695,2483.47,1.455,0.671,0.448,-0.658,0.224,0.719,-0.047,-0.458,-0.888,2506.99,-0.448,0.112,0.000,-0.126,0.023,-0.992,0.292,0.104,-0.951,2490.49,0.224,0.336,0.112,-0.946,0.081,0.313,0.402,0.207,0.892,10.943,5.863,0.519,-1.252,0.725,0.257,0.639,10.166,-5.450,-3.756,-0.519,none
2.163760,0.504,-0.155,-0.850,2469.82,1.455,-0.112,0.448,-0.534,0.058,0.843,0.718,-0.062,-0.693,2489.93,0.783,0.336,0.671,-0.627,0.172,0.760,-0.047,-0.458,-0.888,2506.99,-0.560,-0.336,0.336,-0.138,0.023,-0.990,0.293,0.104,-0.950,2480.98,-0.112,1.007,-0.112,-0.965,0.097,0.245,0.402,0.209,0.892,10.921,6.718,0.992,-0.641,0.725,0.255,0.640,10.156,-5.710,-3.618,-0.290,none
2.185866,0.506,-0.156,-0.849,2460.48,2.126,-0.336,0.783,-0.576,0.039,0.816,0.714,-0.065,-0.697,2504.47,1.231,0.112,0.895,-0.659,0.167,0.733,-0.052,-0.455,-0.889,2502.03,-1.007,-0.112,0.448,-0.108,-0.051,-0.993,0.292,0.108,-0.950,2492.49,0.671,1.007,0.000,-0.975,0.127,0.182,0.401,0.211,0.892,10.941,5.908,0.840,-0.840,0.722,0.256,0.642,10.132,-5.496,-3.664,-0.229,none
2.208707,0.506,-0.168,-0.846,2457.54,1.343,-0.560,0.560,-0.567,0.034,0.823,0.717,-0.066,-0.694,2503.24,1.343,-0.224,0.783,-0.650,0.262,0.713,-0.052,-0.460,-0.886,2497.73,-1.007,-0.224,0.224,-0.126,0.011,-0.992,0.292,0.104,-0.951,2490.49,0.560,1.231,0.112,-0.949,0.146,0.280,0.402,0.210,0.891,10.930,5.634,0.779,-1.023,0.725,0.255,0.640,10.149,-5.588,-3.771,-0.168,none
2.229538,0.505,-0.159,-0.848,2462.75,1.119,-0.895,0.560,-0.520,0.051,0.852,0.716,-0.066,-0.695,2498.22,0.448,-0.783,0.671,-0.657,0.272,0.703,-0.052,-0.455,-0.889,2502.03,-1.007,-0.336,0.336,-0.131,-0.060,-0.990,0.292,0.104,-0.951,2490.49,0.224,1.790,-0.112,-0.951,0.130,0.282,0.402,0.208,0.892,10.939,5.573,1.023,-1.160,0.727,0.255,0.638,10.160,-5.710,-3.618,0.031,none
2.251377,0.504,-0.155,-0.850,2469.82,1.679,-0.671,1.007,-0.565,0.038,0.824,0.716,-0.061,-0.696,2509.55,0.112,-1.567,0.671,-0.693,0.171,0.700,-0.052,-0.455,-0.889,2502.03,-1.007,-0.224,0.560,-0.115,0.012,-0.993,0.295,0.107,-0.949,2495.43,0.895,1.790,0.000,-0.952,0.162,0.258,0.402,0.209,0.892,10.941,5.679,1.313,-1.450,0.725,0.255,0.639,10.162,-5.802,-3.542,-0.260,none
2.273960,0.505,-0.159,-0.848,2462.75,1.902,-0.671,1.119,-0.573,0.049,0.818,0.716,-0.062,-0.695,2496.87,1.007,-1.119,0.895,-0.656,0.227,0.720,-0.052,-0.460,-0.886,2497.73,0.112,-0.112,0.224,-0.123,0.032,-0.992,0.291,0.103,-0.951,2500.00,1.567,1.119,0.336,-0.977,0.127,0.173,0.401,0.209,0.892,10.953,5.695,0.916,-1.466,0.725,0.255,0.640,10.184,-5.634,-3.802,-0.473,none
2.296049,0.505,-0.159,-0.848,2462.75,0.783,-0.671,0.671,-0.558,0.057,0.828,0.717,-0.058,-0.695,2482.87,0.671,-0.671,0.671,-0.632,0.199,0.749,-0.052,-0.460,-0.886,2497.73,-0.112,0.000,0.112,-0.126,0.023,-0.992,0.296,0.103,-0.950,2493.42,1.007,0.895,0.336,-0.959,0.145,0.244,0.403,0.208,0.891,10.934,5.756,0.763,-1.603,0.725,0.256,0.640,10.173,-5.573,-3.893,-0.702,none
2.319040,0.505,-0.159,-0.848,2462.75,1.007,-0.224,0.560,-0.544,0.056,0.837,0.716,-0.061,-0.696,2509.55,0.448,-0.224,0.783,-0.651,0.216,0.728,-0.051,-0.458,-0.887,2507.48,0.336,0.112,0.000,-0.126,0.013,-0.992,0.296,0.100,-0.950,2493.46,0.336,0.671,0.112,-0.960,0.159,0.233,0.402,0.210,0.891,10.938,5.817,0.580,-1.573,0.726,0.254,0.640,10.160,-5.511,-4.382,-0.824,none
2.341704,0.502,-0.163,-0.849,2459.33,0.224,0.000,0.112,-0.546,0.049,0.836,0.718,-0.058,-0.693,2489.33,-0.336,-0.224,-0.112,-0.676,0.193,0.711,-0.051,-0.458,-0.887,2507.48,-0.224,0.112,0.000,-0.115,0.013,-0.993,0.292,0.100,-0.951,2490.52,0.112,0.224,0.000,-0.941,0.193,0.278,0.403,0.208,0.891,10.949,5.771,0.412,-1.435,0.726,0.254,0.639,10.161,-5.481,-4.580,-0.702,none
2.364424,0.505,-0.159,-0.848,2462.75,0.112,-0.224,0.000,-0.570,0.045,0.820,0.717,-0.058,-0.695,2482.87,0.448,0.224,-0.112,-0.661,0.196,0.725,-0.051,-0.458,-0.887,2507.48,-0.783,0.000,0.112,-0.115,0.000,-0.993,0.292,0.104,-0.951,2490.49,0.112,0.000,-0.112,-0.982,0.141,0.126,0.401,0.209,0.892,10.950,5.893,0.718,-1.679,0.723,0.254,0.642,10.156,-5.634,-4.611,-0.901,none
2.387369,0.502,-0.159,-0.850,2458.21,0.000,0.224,0.112,-0.563,0.054,0.825,0.716,-0.066,-0.695,2483.40,0.448,0.336,0.112,-0.612,0.258,0.748,-0.052,-0.460,-0.886,2497.73,0.448,-0.224,0.224,-0.137,-0.022,-0.990,0.296,0.096,-0.950,2491.53,0.224,-0.112,0.224,-0.966,0.079,0.246,0.400,0.209,0.892,10.915,5.740,-0.031,-1.221,0.722,0.255,0.643,10.159,-5.298,-5.359,-0.962,none
2.408030,0.502,-0.163,-0.849,2458.98,-0.560,0.336,-0.224,-0.542,0.055,0.839,0.714,-0.062,-0.697,2490.43,0.112,0.224,-0.336,-0.649,0.228,0.725,-0.052,-0.455,-0.889,2502.03,-0.671,0.112,-0.448,-0.116,0.002,-0.993,0.292,0.100,-0.951,2490.52,0.336,-0.448,0.224,-0.962,0.051,0.268,0.402,0.209,0.892,10.945,5.740,0.031,-1.450,0.724,0.255,0.641,10.198,-5.405,-5.145,-0.992,none
2.429774,0.502,-0.159,-0.850,2458.21,0.224,0.224,-0.224,-0.544,0.017,0.839,0.714,-0.058,-0.697,2475.00,0.112,0.448,-0.448,-0.634,0.269,0.725,-0.052,-0.460,-0.886,2497.73,0.783,0.224,-0.112,-0.126,-0.011,-0.992,0.292,0.100,-0.951,2490.52,0.112,-0.224,0.224,-0.970,0.095,0.224,0.402,0.209,0.891,10.933,5.786,0.443,-1.679,0.725,0.253,0.641,10.133,-5.481,-4.580,-1.084,none
2.452817,0.502,-0.159,-0.850,2458.21,0.336,0.671,0.224,-0.561,0.036,0.827,0.714,-0.062,-0.697,2475.60,0.560,0.560,0.448,-0.656,0.227,0.720,-0.051,-0.458,-0.887,2507.48,0.448,0.224,-0.112,-0.107,-0.033,-0.994,0.293,0.100,-0.951,2481.01,0.560,-0.224,0.000,-0.954,0.131,0.269,0.403,0.209,0.891,10.922,5.771,0.153,-1.481,0.724,0.256,0.641,10.148,-5.328,-4.672,-0.947,none
2.474932,0.505,-0.163,-0.848,2463.51,0.112,0.336,-0.112,-0.572,0.065,0.818,0.714,-0.065,-0.697,2504.47,1.119,0.671,0.336,-0.665,0.222,0.713,-0.048,-0.457,-0.888,2493.53,-0.112,-0.224,0.000,-0.144,0.011,-0.989,0.297,0.100,-0.950,2483.96,0.671,-0.336,-0.112,-0.959,0.145,0.244,0.401,0.208,0.892,10.928,5.771,0.168,-1.420,0.726,0.254,0.639,10.131,-5.267,-4.702,-0.916,none
2.499258,0.505,-0.159,-0.848,2462.75,0.336,0.224,-0.112,-0.572,0.043,0.819,0.716,-0.066,-0.695,2498.22,1.007,0.671,0.000,-0.683,0.202,0.702,-0.052,-0.460,-0.886,2497.73,-0.224,0.112,0.000,-0.157,-0.024,-0.987,0.292,0.100,-0.951,2490.52,-0.112,-0.224,-0.224,-0.961,0.145,0.234,0.402,0.209,0.891,10.939,5.878,0.198,-1.420,0.723,0.257,0.641,10.167,-5.328,-4.870,-0.931,none
2.518275,0.502,-0.159,-0.850,2458.21,0.112,0.224,-0.336,-0.552,0.050,0.832,0.716,-0.066,-0.695,2498.22,-0.112,0.224,-0.224,-0.654,0.192,0.732,-0.052,-0.457,-0.888,2494.03,-0.112,0.224,0.112,-0.126,0.034,-0.991,0.296,0.103,-0.950,2493.42,0.000,-0.224,0.000,-0.957,0.131,0.258,0.402,0.209,0.891,10.942,5.725,0.305,-1.557,0.723,0.257,0.641,10.156,-5.435,-4.656,-0.901,none
2.539098,0.505,-0.159,-0.848,2462.75,0.224,0.224,0.000,-0.552,0.072,0.831,0.716,-0.062,-0.695,2496.87,0.112,0.000,-0.224,-0.655,0.186,0.732,-0.048,-0.452,-0.891,2498.34,-0.448,0.224,0.000,-0.126,0.002,-0.992,0.296,0.103,-0.950,2493.42,0.224,0.000,0.112,-0.939,0.180,0.292,0.402,0.209,0.891,10.955,5.771,0.702,-1.740,0.725,0.254,0.640,10.171,-5.649,-4.275,-0.885,none
2.561885,0.502,-0.163,-0.849,2458.98,0.448,0.000,0.224,-0.569,0.048,0.821,0.716,-0.066,-0.695,2498.22,-0.112,0.224,0.000,-0.631,0.243,0.737,-0.052,-0.455,-0.889,2502.03,0.224,-0.112,0.000,-0.134,0.035,-0.990,0.294,0.099,-0.950,2502.96,0.000,-0.224,0.000,-0.925,0.161,0.344,0.402,0.210,0.891,10.928,5.740,0.321,-1.664,0.725,0.255,0.640,10.147,-5.374,-4.656,-1.053,none
2.582649,0.502,-0.159,-0.850,2458.21,0.000,0.671,0.112,-0.565,0.025,0.824,0.714,-0.062,-0.697,2490.43,-1.119,0.112,-0.783,-0.646,0.211,0.734,-0.052,-0.455,-0.889,2502.03,0.560,0.000,-0.224,-0.123,0.002,-0.992,0.292,0.100,-0.951,2490.52,-0.336,-0.224,-0.224,-0.949,0.146,0.280,0.399,0.209,0.893,10.941,5.725,0.290,-1.527,0.722,0.255,0.643,10.158,-5.420,-4.672,-0.977,none
2.605883,0.507,-0.164,-0.846,2455.04,0.224,0.560,0.112,-0.519,0.086,0.850,0.718,-0.062,-0.693,2489.93,-0.224,0.224,-0.224,-0.653,0.249,0.715,-0.051,-0.458,-0.887,2507.48,0.112,0.000,-0.112,-0.096,-0.008,-0.995,0.294,0.099,-0.950,2502.96,-0.783,-0.224,-0.112,-0.981,0.113,0.157,0.402,0.209,0.892,10.930,5.756,0.260,-1.496,0.724,0.258,0.640,10.143,-5.450,-4.641,-0.947,none
2.637264,0.507,-0.160,-0.847,2454.27,0.336,0.112,-0.112,-0.547,0.040,0.836,0.717,-0.069,-0.693,2518.67,-0.336,0.000,-0.336,-0.646,0.211,0.734,-0.052,-0.455,-0.889,2502.03,0.336,-0.112,-0.112,-0.115,0.023,-0.993,0.292,0.104,-0.951,2490.49,-1.343,0.000,-0.448,-0.945,0.130,0.301,0.402,0.209,0.892,10.933,5.786,0.641,-1.664,0.724,0.256,0.641,10.163,-5.542,-4.534,-0.916,none
2.653714,0.502,-0.159,-0.850,2458.21,0.000,0.000,0.000,-0.539,0.026,0.842,0.716,-0.062,-0.695,2496.87,-3.469,-1.119,-1.455,-0.647,0.246,0.722,-0.051,-0.457,-0.888,2516.36,0.448,0.112,0.000,-0.097,-0.019,-0.995,0.296,0.100,-0.950,2493.46,-1.455,0.000,-0.448,-0.969,0.112,0.221,0.403,0.210,0.891,10.930,5.786,0.427,-1.496,0.724,0.257,0.640,10.154,-5.420,-4.809,-0.626,none
2.672867,0.505,-0.159,-0.848,2462.75,-0.224,-0.112,-0.336,-0.542,0.046,0.839,0.716,-0.054,-0.696,2481.60,-1.567,-0.895,-0.895,-0.638,0.153,0.755,-0.052,-0.457,-0.888,2494.03,-0.448,-0.112,0.112,-0.095,0.013,-0.995,0.296,0.103,-0.950,2493.42,-1.007,0.000,-0.224,-0.950,0.145,0.278,0.402,0.208,0.892,10.946,5.817,0.595,-1.466,0.725,0.257,0.639,10.141,-5.466,-4.672,-0.534,none
2.695962,0.504,-0.164,-0.848,2450.49,0.000,-0.224,-0.224,-0.571,0.066,0.819,0.716,-0.058,-0.695,2496.27,-0.336,-0.224,-0.448,-0.633,0.231,0.739,-0.051,-0.458,-0.887,2507.48,-0.336,-0.112,0.000,-0.117,-0.021,-0.993,0.292,0.108,-0.950,2492.49,0.112,-0.224,0.112,-0.966,0.082,0.246,0.402,0.210,0.891,10.966,6.000,0.656,-1.496,0.724,0.255,0.641,10.141,-5.435,-4.626,-0.855,none
2.718370,0.505,-0.159,-0.848,2462.75,0.000,0.000,-0.112,-0.571,0.052,0.819,0.716,-0.054,-0.696,2481.60,-0.336,0.000,-0.336,-0.637,0.215,0.741,-0.047,-0.458,-0.888,2506.99,0.224,0.112,-0.112,-0.118,-0.012,-0.993,0.293,0.104,-0.950,2480.98,0.448,-0.336,0.112,-0.951,0.131,0.280,0.398,0.209,0.893,10.932,6.137,0.672,-1.420,0.724,0.254,0.642,10.142,-5.267,-4.626,-0.977,none
2.740115,0.505,-0.163,-0.848,2463.51,0.000,0.112,-0.224,-0.555,0.047,0.831,0.716,-0.058,-0.695,2496.27,0.560,0.224,0.224,-0.665,0.222,0.713,-0.051,-0.460,-0.887,2520.94,0.112,0.336,-0.112,-0.105,0.024,-0.994,0.292,0.100,-0.951,2490.52,0.000,-0.224,0.112,-0.956,0.145,0.257,0.399,0.209,0.893,10.937,6.107,0.397,-1.252,0.725,0.256,0.640,10.146,-5.252,-4.794,-0.962,none
2.762591,0.505,-0.159,-0.848,2462.75,-0.224,0.336,-0.112,-0.551,0.057,0.833,0.715,-0.058,-0.697,2489.83,1.119,0.336,0.448,-0.676,0.193,0.711,-0.052,-0.455,-0.889,2502.03,-0.112,0.112,-0.336,-0.136,0.000,-0.991,0.293,0.104,-0.950,2480.98,0.336,-0.112,0.000,-0.960,0.110,0.259,0.407,0.209,0.889,10.933,7.603,2.534,-1.511,0.724,0.256,0.641,10.179,-5.298,-3.939,-1.237,none
2.784474,0.505,-0.159,-0.848,2462.75,0.560,0.448,0.000,-0.560,0.055,0.826,0.718,-0.062,-0.693,2489.93,0.448,0.224,0.224,-0.603,0.268,0.751,-0.047,-0.458,-0.888,2506.99,0.112,-0.112,-0.112,-0.117,-0.021,-0.993,0.293,0.096,-0.951,2479.08,0.336,-0.224,-0.112,-0.979,0.127,0.159,0.397,0.212,0.893,10.901,6.473,0.916,-1.023,0.721,0.257,0.643,10.141,-5.328,-4.443,-0.962,none
2.804896,0.505,-0.159,-0.848,2462.75,0.224,0.000,0.112,-0.505,0.079,0.860,0.718,-0.062,-0.693,2503.32,0.336,0.224,0.336,-0.641,0.233,0.731,-0.048,-0.460,-0.887,2497.23,0.000,0.000,0.000,-0.115,-0.018,-0.993,0.292,0.100,-0.951,2490.52,0.448,0.000,0.224,-0.956,0.110,0.272,0.401,0.211,0.892,10.943,6.137,0.351,-0.931,0.723,0.257,0.642,10.151,-5.298,-4.672,-0.718,none
2.827901,0.505,-0.163,-0.848,2463.51,0.112,0.000,-0.112,-0.558,0.072,0.827,0.718,-0.062,-0.693,2489.93,0.783,0.224,0.112,-0.624,0.276,0.731,-0.048,-0.455,-0.889,2501.53,-0.671,-0.112,0.000,-0.115,-0.041,-0.992,0.292,0.104,-0.951,2490.49,0.000,0.112,0.000,-0.954,0.131,0.269,0.400,0.211,0.892,10.961,6.153,0.641,-1.145,0.724,0.259,0.640,10.162,-5.481,-4.473,-0.748,none
2.849475,0.505,-0.159,-0.848,2462.75,0.224,-0.224,0.112,-0.544,0.050,0.838,0.716,-0.058,-0.695,2496.27,0.336,0.112,0.000,-0.669,0.276,0.690,-0.052,-0.455,-0.889,2502.03,-0.224,-0.336,0.112,-0.120,-0.037,-0.992,0.294,0.107,-0.950,2504.92,0.560,0.224,0.224,-0.953,0.116,0.279,0.401,0.209,0.892,10.930,5.954,0.595,-1.313,0.722,0.257,0.642,10.147,-5.496,-4.412,-0.885,none
2.869529,0.505,-0.159,-0.848,2462.75,0.336,0.000,0.112,-0.512,0.030,0.859,0.715,-0.058,-0.697,2489.83,0.224,0.112,0.336,-0.658,0.212,0.722,-0.051,-0.458,-0.887,2507.48,0.336,0.112,0.000,-0.128,-0.043,-0.991,0.292,0.104,-0.951,2490.49,0.783,0.000,0.224,-0.960,0.161,0.231,0.401,0.208,0.892,10.968,5.756,0.412,-1.282,0.724,0.257,0.641,10.152,-5.481,-4.458,-0.626,none
2.890453,0.505,-0.159,-0.848,2462.75,0.112,-0.224,0.224,-0.552,0.072,0.831,0.716,-0.062,-0.695,2496.87,1.119,0.336,0.448,-0.647,0.200,0.736,-0.051,-0.457,-0.888,2516.36,-0.336,0.000,0.112,-0.115,0.013,-0.993,0.292,0.100,-0.951,2490.52,0.560,0.224,0.224,-0.977,0.127,0.173,0.399,0.210,0.893,10.952,5.710,0.351,-1.221,0.724,0.254,0.642,10.153,-5.511,-4.305,-0.534,none
2.912735,0.507,-0.160,-0.847,2454.27,0.560,-0.336,0.224,-0.544,0.056,0.837,0.714,-0.062,-0.697,2490.43,1.007,0.224,0.224,-0.604,0.184,0.776,-0.051,-0.458,-0.887,2507.48,-0.448,0.112,0.112,-0.116,0.013,-0.993,0.293,0.104,-0.950,2480.98,0.224,0.448,-0.112,-0.960,0.161,0.231,0.399,0.209,0.893,10.966,5.740,0.580,-1.405,0.723,0.253,0.643,10.144,-5.573,-3.924,-0.580,none
2.933369,0.503,-0.163,-0.849,2472.84,0.783,-0.336,0.448,-0.596,0.034,0.802,0.712,-0.069,-0.699,2498.66,1.455,0.224,1.119,-0.628,0.217,0.748,-0.051,-0.458,-0.887,2507.48,-0.336,0.112,0.336,-0.126,-0.010,-0.992,0.292,0.100,-0.951,2490.52,0.671,0.448,0.224,-0.975,0.111,0.193,0.401,0.210,0.892,10.924,5.695,0.626,-1.405,0.725,0.254,0.641,10.128,-5.511,-3.939,-0.611,none
2.955368,0.502,-0.159,-0.850,2458.21,0.671,-0.448,0.336,-0.577,0.055,0.815,0.718,-0.062,-0.693,2489.93,0.560,-0.112,0.560,-0.659,0.200,0.725,-0.052,-0.460,-0.886,2497.73,-0.560,-0.336,0.112,-0.096,0.014,-0.995,0.297,0.100,-0.950,2483.96,0.783,0.560,0.112,-0.979,0.111,0.169,0.400,0.211,0.892,10.946,5.634,0.794,-1.466,0.723,0.256,0.641,10.150,-5.573,-3.588,-0.550,none
2.978898,0.504,-0.160,-0.849,2449.72,0.560,-0.671,0.560,-0.542,0.066,0.838,0.716,-0.062,-0.695,2483.47,0.448,-0.112,1.007,-0.641,0.223,0.734,-0.052,-0.457,-0.888,2494.03,-0.336,-0.224,0.224,-0.107,0.002,-0.994,0.296,0.103,-0.950,2493.42,0.224,1.231,0.000,-0.951,0.145,0.275,0.401,0.211,0.892,10.938,5.725,0.947,-1.740,0.722,0.256,0.643,10.174,-5.588,-3.298,-0.824,none
2.998904,0.505,-0.163,-0.848,2463.51,1.231,0.336,0.783,-0.542,0.072,0.837,0.717,-0.066,-0.694,2503.24,0.783,0.112,1.007,-0.640,0.310,0.703,-0.051,-0.458,-0.887,2507.48,0.336,0.000,0.224,-0.117,0.011,-0.993,0.296,0.100,-0.950,2493.46,0.671,0.560,0.112,-0.958,0.101,0.269,0.399,0.209,0.893,10.955,5.725,0.733,-1.618,0.722,0.257,0.643,10.137,-5.511,-3.832,-0.687,none
3.020247,0.504,-0.164,-0.848,2450.49,0.560,-0.112,0.336,-0.560,0.055,0.827,0.718,-0.066,-0.693,2491.28,0.112,-0.112,0.336,-0.655,0.201,0.729,-0.051,-0.458,-0.887,2507.48,-0.336,-0.224,0.112,-0.129,0.000,-0.992,0.296,0.100,-0.950,2493.46,0.671,0.448,0.112,-0.957,0.159,0.243,0.400,0.210,0.892,10.923,5.771,0.504,-1.420,0.721,0.254,0.644,10.144,-5.481,-4.183,-0.519,none
3.043392,0.507,-0.164,-0.846,2455.04,0.448,0.000,0.224,-0.535,0.092,0.840,0.714,-0.066,-0.697,2490.36,0.336,0.000,0.112,-0.641,0.180,0.746,-0.051,-0.458,-0.887,2507.48,-0.671,0.000,0.336,-0.115,0.024,-0.993,0.296,0.103,-0.950,2493.42,0.112,0.336,0.112,-0.965,0.189,0.181,0.402,0.210,0.891,10.922,5.771,0.626,-1.481,0.721,0.257,0.643,10.137,-5.573,-4.076,-0.336,none
3.065295,0.504,-0.164,-0.848,2450.49,0.560,-0.224,0.336,-0.557,0.079,0.827,0.716,-0.062,-0.695,2496.87,1.007,0.112,0.336,-0.600,0.278,0.750,-0.052,-0.454,-0.889,2489.04,-0.671,0.000,0.560,-0.125,-0.031,-0.992,0.292,0.100,-0.951,2490.52,-0.112,0.671,-0.112,-0.970,0.142,0.199,0.399,0.209,0.893,10.938,5.832,0.870,-1.573,0.721,0.254,0.645,10.141,-5.710,-3.954,-0.321,none
3.087616,0.502,-0.163,-0.849,2458.98,0.448,-0.336,0.448,-0.556,0.033,0.830,0.716,-0.069,-0.695,2498.83,1.455,0.112,0.895,-0.641,0.186,0.745,-0.052,-0.452,-0.890,2498.83,-0.336,-0.336,0.560,-0.126,-0.021,-0.992,0.296,0.103,-0.950,2493.42,1.231,0.336,0.448,-0.964,0.145,0.222,0.398,0.210,0.893,10.911,5.786,0.412,-1.252,0.721,0.253,0.645,10.152,-5.527,-4.366,-0.443,none
3.109596,0.500,-0.163,-0.850,2468.33,0.671,-0.224,-0.112,-0.539,0.056,0.841,0.716,-0.073,-0.695,2498.83,1.119,0.112,0.448,-0.652,0.213,0.728,-0.051,-0.454,-0.890,2510.92,-0.671,0.112,0.224,-0.144,0.011,-0.990,0.296,0.103,-0.950,2493.42,0.671,0.000,0.112,-0.954,0.131,0.269,0.401,0.210,0.891,10.925,5.878,0.595,-1.344,0.723,0.255,0.642,10.149,-5.481,-4.198,-0.565,none
3.130397,0.505,-0.163,-0.848,2463.51,0.783,-0.112,0.336,-0.507,0.044,0.861,0.714,-0.062,-0.697,2490.43,1.119,0.560,0.448,-0.639,0.279,0.717,-0.052,-0.452,-0.890,2498.83,-0.112,0.224,0.112,-0.126,-0.011,-0.992,0.297,0.100,-0.950,2483.96,0.671,0.560,0.000,-0.938,0.115,0.328,0.398,0.211,0.893,10.939,5.985,0.962,-1.573,0.720,0.254,0.645,10.144,-5.573,-3.878,-0.809,none
3.153720,0.505,-0.163,-0.848,2463.51,0.895,-0.224,0.560,-0.538,0.035,0.842,0.716,-0.066,-0.695,2498.22,1.679,0.560,1.007,-0.640,0.276,0.717,-0.052,-0.455,-0.889,2502.03,0.112,0.000,0.112,-0.107,-0.044,-0.993,0.297,0.100,-0.950,2483.96,0.783,0.448,0.224,-0.978,0.123,0.168,0.398,0.210,0.893,10.926,5.863,0.718,-1.450,0.720,0.256,0.645,10.142,-5.435,-4.198,-0.748,none
3.175339,0.507,-0.164,-0.846,2455.04,0.336,-0.224,0.336,-0.543,0.029,0.839,0.716,-0.069,-0.695,2498.83,1.343,0.560,0.560,-0.647,0.192,0.737,-0.052,-0.455,-0.889,2502.03,-0.336,-0.224,0.000,-0.128,-0.023,-0.991,0.296,0.096,-0.950,2491.53,1.455,0.224,0.336,-0.951,0.131,0.280,0.398,0.211,0.893,10.918,5.863,0.687,-1.466,0.719,0.257,0.646,10.161,-5.435,-4.092,-0.641,none
3.197558,0.504,-0.167,-0.847,2466.01,0.895,-0.112,0.448,-0.548,0.066,0.834,0.716,-0.069,-0.695,2498.83,1.231,0.000,0.448,-0.669,0.276,0.690,-0.052,-0.455,-0.889,2502.03,-0.112,-0.112,0.112,-0.126,0.011,-0.992,0.299,0.100,-0.949,2496.43,0.112,0.671,0.000,-0.960,0.159,0.233,0.398,0.211,0.893,10.954,6.015,0.947,-1.756,0.720,0.255,0.646,10.144,-5.511,-4.000,-0.916,none
3.219028,0.504,-0.167,-0.847,2466.01,0.560,0.336,0.448,-0.571,0.060,0.819,0.715,-0.073,-0.695,2511.50,0.560,0.000,0.448,-0.636,0.256,0.728,-0.052,-0.455,-0.889,2502.03,0.560,0.000,0.000,-0.105,0.023,-0.994,0.294,0.099,-0.950,2502.96,0.336,0.000,0.000,-0.938,0.130,0.321,0.398,0.210,0.893,10.954,6.076,0.565,-1.527,0.721,0.256,0.644,10.126,-5.344,-4.565,-0.947,none
3.239608,0.505,-0.163,-0.848,2463.51,0.112,0.448,-0.112,-0.576,0.029,0.817,0.716,-0.069,-0.695,2498.83,0.112,-0.112,-0.336,-0.631,0.246,0.736,-0.052,-0.452,-0.890,2498.83,-0.112,0.224,-0.112,-0.115,0.023,-0.993,0.296,0.100,-0.950,2493.46,0.448,-0.112,0.224,-0.957,0.159,0.243,0.397,0.209,0.893,10.960,6.122,0.885,-1.511,0.721,0.256,0.644,10.129,-5.420,-4.519,-0.885,none
3.262169,0.505,-0.163,-0.848,2463.51,0.336,0.000,0.000,-0.542,0.072,0.837,0.714,-0.069,-0.697,2505.07,0.112,0.000,0.112,-0.628,0.217,0.748,-0.048,-0.455,-0.889,2501.53,-0.112,0.000,-0.112,-0.118,-0.022,-0.993,0.296,0.096,-0.950,2491.53,0.000,0.000,-0.224,-0.951,0.083,0.299,0.398,0.212,0.892,10.889,7.771,2.885,-1.252,0.720,0.255,0.646,10.143,-5.405,-3.985,-0.870,none
3.283724,0.504,-0.160,-0.849,2449.72,0.336,0.112,0.112,-0.572,0.038,0.820,0.716,-0.069,-0.695,2498.83,0.560,0.112,0.112,-0.652,0.166,0.740,-0.052,-0.451,-0.891,2484.52,-0.448,0.000,0.224,-0.115,-0.011,-0.993,0.297,0.096,-0.950,2482.03,0.336,0.224,0.112,-0.977,0.127,0.173,0.396,0.212,0.893,10.915,6.931,1.527,-0.947,0.721,0.256,0.644,10.125,-5.573,-4.351,-0.794,none
3.306762,0.502,-0.167,-0.849,2461.48,0.112,-0.112,0.224,-0.553,0.041,0.832,0.716,-0.069,-0.695,2498.83,0.448,0.000,0.112,-0.637,0.253,0.728,-0.052,-0.454,-0.889,2489.04,0.224,0.000,0.112,-0.123,-0.039,-0.992,0.297,0.100,-0.950,2483.96,0.336,-0.112,0.448,-0.971,0.082,0.223,0.396,0.212,0.893,10.909,6.626,1.145,-1.191,0.720,0.254,0.645,10.132,-5.481,-4.336,-1.008,none
3.327563,0.502,-0.167,-0.849,2461.48,0.224,0.000,0.112,-0.548,0.066,0.834,0.716,-0.073,-0.695,2498.83,0.671,0.224,0.112,-0.657,0.272,0.703,-0.052,-0.454,-0.889,2489.04,0.224,0.336,0.000,-0.137,0.000,-0.991,0.296,0.096,-0.950,2491.53,0.336,-0.224,0.000,-0.956,0.146,0.256,0.397,0.213,0.893,10.943,6.458,0.824,-0.947,0.722,0.254,0.644,10.164,-5.496,-4.824,-0.794,none
3.348789,0.502,-0.167,-0.849,2461.48,0.000,-0.112,-0.112,-0.549,0.073,0.833,0.714,-0.073,-0.697,2506.50,0.000,0.112,-0.560,-0.647,0.280,0.709,-0.052,-0.460,-0.886,2497.73,-0.671,-0.336,0.112,-0.115,-0.008,-0.993,0.296,0.100,-0.950,2493.46,-0.448,0.112,-0.224,-0.958,0.131,0.257,0.394,0.214,0.894,10.939,6.931,0.931,-1.023,0.720,0.257,0.644,10.136,-5.130,-4.855,-1.282,none
3.368575,0.505,-0.163,-0.848,2463.51,0.112,0.000,-0.336,-0.573,0.082,0.815,0.719,-0.073,-0.691,2498.35,-0.224,-0.112,-0.336,-0.656,0.267,0.705,-0.048,-0.457,-0.888,2493.53,-0.112,0.560,-0.224,-0.136,-0.011,-0.991,0.298,0.101,-0.949,2473.51,-0.336,-0.112,-0.112,-0.952,0.187,0.240,0.397,0.214,0.893,10.953,6.290,0.687,-1.160,0.723,0.256,0.642,10.174,-5.511,-4.458,-0.947,none
3.390925,0.502,-0.163,-0.849,2458.98,0.783,0.336,0.336,-0.572,0.065,0.818,0.716,-0.073,-0.695,2498.83,-0.560,-0.112,-0.224,-0.656,0.227,0.720,-0.052,-0.454,-0.889,2489.04,-0.560,-0.224,0.112,-0.115,0.013,-0.993,0.296,0.092,-0.951,2490.59,0.336,0.448,-0.112,-0.970,0.157,0.184,0.399,0.211,0.892,10.936,6.702,0.870,-1.176,0.722,0.255,0.643,10.149,-5.450,-4.687,-0.718,none
3.411494,0.502,-0.163,-0.849,2458.98,0.000,0.000,-0.112,-0.566,0.031,0.824,0.717,-0.058,-0.695,2482.87,0.336,0.112,-0.112,-0.612,0.225,0.758,-0.052,-0.449,-0.892,2494.33,-0.448,-0.112,0.224,-0.116,-0.028,-0.993,0.301,0.092,-0.949,2484.07,0.560,-0.224,0.336,-0.976,0.113,0.188,0.396,0.214,0.893,10.947,6.183,0.504,-0.901,0.722,0.257,0.642,10.163,-5.511,-4.763,-0.580,none
3.434059,0.502,-0.163,-0.849,2458.98,-0.560,-0.224,-0.224,-0.575,0.048,0.817,0.716,-0.069,-0.695,2498.83,0.000,-0.112,-0.224,-0.626,0.189,0.757,-0.052,-0.455,-0.889,2502.03,-0.560,0.000,0.000,-0.107,-0.011,-0.994,0.296,0.100,-0.950,2493.46,0.000,0.112,0.112,-0.980,0.081,0.181,0.396,0.214,0.893,10.935,5.924,0.382,-1.160,0.721,0.255,0.645,10.141,-5.588,-4.702,-0.656,none
3.457399,0.502,-0.167,-0.849,2461.48,0.112,0.000,0.112,-0.562,0.060,0.825,0.718,-0.066,-0.693,2476.46,0.448,-0.224,0.112,-0.687,0.225,0.692,-0.052,-0.452,-0.890,2498.83,-0.224,0.000,0.112,-0.126,0.023,-0.992,0.296,0.096,-0.950,2491.53,-0.112,0.000,0.224,-0.954,0.094,0.285,0.395,0.213,0.894,10.947,5.679,0.168,-1.191,0.721,0.256,0.644,10.146,-5.618,-4.901,-0.458,none
3.479350,0.502,-0.167,-0.849,2461.48,0.112,-0.560,-0.112,-0.528,0.066,0.847,0.718,-0.070,-0.693,2477.07,0.336,-0.336,-0.112,-0.641,0.267,0.720,-0.052,-0.452,-0.890,2498.83,-0.783,-0.224,0.224,-0.107,-0.011,-0.994,0.297,0.092,-0.950,2481.08,0.671,0.000,0.224,-0.960,0.131,0.246,0.397,0.213,0.893,10.947,5.496,-0.214,-1.099,0.721,0.255,0.644,10.125,-5.405,-5.160,-0.550,none
3.501624,0.504,-0.164,-0.848,2450.49,-0.224,-0.448,-0.224,-0.552,0.049,0.833,0.714,-0.069,-0.697,2490.97,-0.112,-0.224,-0.224,-0.675,0.250,0.695,-0.052,-0.452,-0.890,2498.83,-0.895,0.224,0.000,-0.105,0.024,-0.994,0.296,0.096,-0.950,2491.53,-0.112,0.224,0.224,-0.975,0.077,0.206,0.397,0.213,0.893,10.915,5.496,-0.122,-1.344,0.721,0.255,0.644,10.141,-5.542,-4.855,-0.702,none
3.522733,0.507,-0.164,-0.846,2455.04,0.112,-0.336,0.112,-0.550,0.079,0.831,0.718,-0.062,-0.693,2489.93,0.336,0.000,0.336,-0.629,0.207,0.749,-0.052,-0.455,-0.889,2502.03,-0.448,0.224,0.112,-0.126,-0.010,-0.992,0.296,0.100,-0.950,2493.46,-0.112,0.336,0.000,-0.969,0.172,0.175,0.396,0.211,0.894,10.950,5.405,-0.076,-1.344,0.721,0.256,0.644,10.144,-5.588,-4.763,-0.702,none
3.544250,0.504,-0.167,-0.847,2466.01,0.336,-0.336,0.112,-0.569,0.048,0.821,0.718,-0.069,-0.693,2491.89,0.783,-0.224,0.560,-0.636,0.170,0.753,-0.052,-0.452,-0.890,2498.83,-0.671,0.000,0.112,-0.113,0.033,-0.993,0.302,0.097,-0.949,2476.48,0.448,0.336,0.000,-0.962,0.096,0.256,0.397,0.214,0.893,10.955,5.145,-0.229,-1.115,0.721,0.256,0.644,10.138,-5.649,-4.947,-0.092,none
3.566359,0.502,-0.167,-0.849,2461.48,0.224,-0.783,0.224,-0.554,0.082,0.828,0.718,-0.069,-0.693,2491.89,0.671,-0.224,0.112,-0.660,0.260,0.705,-0.052,-0.449,-0.892,2494.33,-1.455,-0.336,0.671,-0.126,0.000,-0.992,0.296,0.096,-0.950,2491.53,0.112,0.560,0.112,-0.952,0.174,0.254,0.396,0.211,0.894,10.965,5.023,-0.260,-1.069,0.720,0.252,0.646,10.180,-5.725,-4.763,0.015,none
3.587525,0.502,-0.163,-0.849,2458.98,0.000,-1.119,0.000,-0.563,0.032,0.826,0.718,-0.069,-0.693,2491.89,0.783,-0.224,0.000,-0.625,0.274,0.731,-0.052,-0.452,-0.890,2498.83,-1.343,-0.336,0.336,-0.118,-0.011,-0.993,0.289,0.101,-0.952,2477.15,0.224,1.007,-0.112,-0.960,0.116,0.255,0.403,0.208,0.891,10.946,4.733,0.595,-1.023,0.728,0.249,0.638,10.251,-5.954,-3.496,0.122,none
3.608991,0.500,-0.271,-0.823,2607.98,3.805,-1.007,2.126,-0.545,0.024,0.838,0.721,-0.038,-0.692,2480.05,-2.238,-3.133,0.783,-0.663,0.193,0.723,-0.056,-0.451,-0.891,2463.62,-1.119,-1.231,0.671,-0.118,-0.023,-0.993,0.299,0.106,-0.948,2528.59,1.455,2.462,-0.224,-0.972,0.112,0.208,0.396,0.212,0.894,10.956,5.191,0.794,-1.252,0.718,0.255,0.647,10.112,-5.710,-3.878,0.046,none
3.630884,0.500,-0.191,-0.845,2471.20,1.119,-1.119,1.007,-0.531,0.068,0.844,0.713,-0.078,-0.696,2478.34,0.448,-0.895,0.448,-0.643,0.166,0.748,-0.048,-0.455,-0.889,2501.53,-0.783,0.000,0.112,-0.106,-0.011,-0.994,0.301,0.096,-0.949,2485.01,1.455,2.910,0.112,-0.976,0.082,0.200,0.398,0.211,0.893,10.991,5.374,1.374,-1.405,0.721,0.254,0.644,10.152,-5.893,-3.206,-0.092,none
3.653407,0.502,-0.178,-0.847,2479.48,4.252,-1.119,1.567,-0.522,0.044,0.852,0.712,-0.072,-0.699,2553.66,1.902,-1.679,1.679,-0.639,0.241,0.730,-0.051,-0.460,-0.887,2520.94,-0.112,-0.560,0.336,-0.097,-0.029,-0.995,0.298,0.095,-0.950,2504.00,1.231,2.350,-0.224,-0.984,0.127,0.123,0.397,0.208,0.894,10.945,5.328,0.504,-1.359,0.721,0.254,0.644,10.142,-5.664,-4.260,-0.183,none
3.676947,0.502,-0.163,-0.849,2458.98,0.895,-1.007,0.560,-0.576,0.039,0.816,0.712,-0.069,-0.699,2511.35,0.560,-1.231,0.224,-0.656,0.230,0.719,-0.055,-0.457,-0.888,2516.89,0.000,-0.224,0.000,-0.105,0.023,-0.994,0.301,0.096,-0.949,2485.01,0.783,1.343,0.112,-0.963,0.116,0.244,0.397,0.211,0.893,10.938,5.313,0.489,-1.328,0.721,0.253,0.645,10.184,-5.695,-4.198,-0.183,none
3.697908,0.503,-0.175,-0.846,2456.26,1.455,-0.448,0.560,-0.560,0.077,0.825,0.716,-0.069,-0.695,2498.83,0.000,-1.455,0.336,-0.671,0.234,0.704,-0.052,-0.449,-0.892,2494.33,-0.783,-0.224,0.224,-0.109,-0.023,-0.994,0.303,0.096,-0.948,2498.16,0.671,0.671,0.112,-0.956,0.115,0.271,0.398,0.212,0.893,10.925,5.282,0.275,-1.420,0.720,0.254,0.646,10.139,-5.771,-4.397,-0.366,none
3.719002,0.502,-0.167,-0.849,2461.48,0.560,-0.895,0.336,-0.557,0.053,0.829,0.714,-0.066,-0.697,2490.36,-0.224,-0.783,0.112,-0.657,0.171,0.734,-0.056,-0.455,-0.889,2502.56,-0.224,0.000,0.224,-0.097,-0.019,-0.995,0.301,0.096,-0.949,2485.01,0.224,0.671,0.000,-0.944,0.201,0.261,0.396,0.211,0.894,10.949,5.206,0.275,-1.573,0.720,0.253,0.647,10.170,-5.893,-4.336,-0.397,none
3.742524,0.500,-0.172,-0.849,2448.83,0.671,-0.448,0.560,-0.511,0.066,0.857,0.712,-0.070,-0.699,2484.55,0.224,-0.783,0.560,-0.660,0.257,0.706,-0.052,-0.452,-0.890,2498.83,-0.112,-0.336,0.224,-0.128,-0.036,-0.991,0.301,0.096,-0.949,2485.01,0.560,0.560,0.000,-0.980,0.127,0.152,0.398,0.209,0.893,10.912,5.237,0.092,-1.374,0.722,0.253,0.644,10.149,-5.695,-4.427,-0.733,none
3.762755,0.498,-0.175,-0.849,2458.89,1.119,-0.112,0.560,-0.547,0.059,0.835,0.712,-0.070,-0.699,2484.55,0.671,-0.671,0.783,-0.640,0.191,0.744,-0.052,-0.452,-0.890,2498.83,-0.224,-0.224,-0.112,-0.096,-0.029,-0.995,0.304,0.088,-0.949,2485.89,0.783,0.560,0.000,-0.979,0.084,0.187,0.395,0.208,0.895,10.938,5.344,-0.458,-1.145,0.720,0.251,0.647,10.155,-5.344,-4.809,-0.931,none
3.785318,0.501,-0.175,-0.848,2464.73,-0.112,-0.336,-0.112,-0.546,0.060,0.836,0.714,-0.066,-0.697,2490.36,-0.112,-0.224,0.000,-0.636,0.212,0.742,-0.056,-0.455,-0.889,2502.56,-0.112,0.336,-0.224,-0.126,-0.010,-0.992,0.301,0.092,-0.949,2484.07,0.000,0.336,-0.112,-0.966,0.131,0.223,0.396,0.210,0.894,10.947,5.267,-0.611,-1.115,0.720,0.253,0.646,10.178,-5.405,-4.947,-0.916,none
3.806622,0.501,-0.171,-0.848,2463.17,-0.112,-0.224,-0.112,-0.559,0.097,0.824,0.712,-0.073,-0.699,2498.66,0.448,-0.336,0.000,-0.630,0.240,0.738,-0.056,-0.452,-0.890,2499.37,-1.007,0.000,-0.224,-0.115,-0.018,-0.993,0.300,0.092,-0.950,2493.57,-0.671,0.224,-0.448,-0.939,0.099,0.330,0.397,0.209,0.893,10.950,5.282,-0.656,-1.130,0.719,0.253,0.648,10.148,-5.313,-5.145,-1.038,none
3.829690,0.499,-0.172,-0.850,2457.33,-0.560,-0.336,-0.224,-0.536,0.049,0.843,0.710,-0.066,-0.701,2490.23,0.448,-0.112,0.112,-0.668,0.260,0.697,-0.052,-0.449,-0.892,2494.33,-0.336,0.336,-0.224,-0.098,-0.034,-0.995,0.304,0.104,-0.947,2490.58,-0.112,0.336,-0.112,-0.962,0.096,0.256,0.397,0.212,0.893,10.967,5.450,0.046,-1.557,0.719,0.255,0.647,10.180,-5.557,-4.580,-1.053,none
3.852861,0.501,-0.171,-0.848,2463.17,0.671,0.000,0.336,-0.540,0.040,0.841,0.714,-0.069,-0.697,2505.07,1.119,0.000,0.671,-0.638,0.314,0.703,-0.051,-0.454,-0.890,2510.92,0.224,0.000,-0.112,-0.118,0.000,-0.993,0.303,0.092,-0.949,2497.23,0.671,0.224,0.000,-0.980,0.142,0.138,0.396,0.211,0.894,10.929,5.344,0.137,-1.466,0.721,0.254,0.645,10.156,-5.756,-4.733,-0.504,none
3.875384,0.500,-0.174,-0.849,2472.37,0.560,-0.224,0.224,-0.559,0.088,0.824,0.714,-0.069,-0.697,2490.97,0.112,-0.336,0.000,-0.646,0.211,0.734,-0.051,-0.451,-0.891,2507.74,-0.895,-0.336,0.336,-0.107,-0.022,-0.994,0.303,0.096,-0.948,2498.16,0.000,0.336,-0.224,-0.965,0.176,0.192,0.397,0.212,0.893,10.937,5.298,0.061,-1.435,0.721,0.255,0.645,10.130,-5.771,-4.718,-0.550,none
3.897072,0.497,-0.171,-0.851,2466.68,0.448,-0.224,0.224,-0.560,0.055,0.827,0.712,-0.069,-0.699,2498.66,0.000,-0.336,0.224,-0.650,0.330,0.685,-0.052,-0.452,-0.890,2498.83,-0.783,-0.336,0.224,-0.105,0.045,-0.993,0.301,0.096,-0.949,2485.01,-0.112,0.336,-0.112,-0.963,0.131,0.234,0.397,0.210,0.894,10.927,5.282,-0.137,-1.405,0.720,0.253,0.646,10.144,-5.618,-4.870,-0.656,none
3.918175,0.501,-0.175,-0.848,2464.73,-0.112,-0.336,0.224,-0.546,0.049,0.837,0.714,-0.069,-0.697,2490.97,-0.112,-0.224,0.112,-0.636,0.212,0.742,-0.051,-0.451,-0.891,2507.74,-0.112,-0.112,0.112,-0.105,0.013,-0.994,0.304,0.096,-0.948,2488.68,0.000,0.224,-0.112,-0.959,0.115,0.259,0.398,0.209,0.893,10.938,5.511,0.290,-1.573,0.720,0.252,0.646,10.159,-5.634,-4.534,-0.870,none
3.939889,0.499,-0.172,-0.850,2457.33,0.560,-0.112,0.336,-0.569,0.048,0.821,0.712,-0.074,-0.699,2484.55,0.671,0.000,0.560,-0.650,0.270,0.710,-0.051,-0.451,-0.891,2507.74,0.336,0.112,-0.224,-0.098,-0.011,-0.995,0.304,0.096,-0.948,2488.68,0.336,0.336,-0.112,-0.956,0.146,0.256,0.397,0.210,0.893,10.942,5.603,0.351,-1.649,0.722,0.253,0.644,10.151,-5.557,-4.473,-1.008,none
3.962421,0.501,-0.171,-0.848,2463.17,-0.112,-0.112,0.448,-0.553,0.054,0.831,0.714,-0.069,-0.697,2490.97,0.448,-0.112,0.671,-0.642,0.226,0.733,-0.052,-0.452,-0.890,2498.83,0.112,-0.224,0.000,-0.128,-0.011,-0.992,0.303,0.096,-0.948,2498.16,0.112,0.448,0.000,-0.963,0.116,0.244,0.399,0.210,0.893,10.932,5.557,0.382,-1.588,0.719,0.253,0.647,10.149,-5.664,-4.504,-0.748,none
3.984653,0.500,-0.171,-0.849,2470.81,0.224,-0.336,0.224,-0.520,0.060,0.852,0.714,-0.073,-0.697,2492.39,0.783,-0.112,0.224,-0.626,0.225,0.746,-0.056,-0.452,-0.890,2499.37,-0.224,0.000,0.224,-0.106,0.011,-0.994,0.299,0.096,-0.949,2494.50,0.448,0.224,0.000,-0.971,0.079,0.225,0.400,0.209,0.893,10.952,5.588,0.351,-1.573,0.719,0.252,0.647,10.157,-5.573,-4.580,-0.733,none
4.007491,0.501,-0.171,-0.848,2463.17,0.560,0.000,0.224,-0.542,0.072,0.837,0.712,-0.069,-0.699,2498.66,0.560,-0.224,0.560,-0.679,0.182,0.711,-0.051,-0.451,-0.891,2507.74,-0.336,0.000,0.112,-0.097,0.002,-0.995,0.299,0.096,-0.949,2494.50,0.560,0.112,0.000,-0.966,0.131,0.222,0.397,0.208,0.894,10.964,5.557,0.275,-1.542,0.721,0.253,0.646,10.158,-5.634,-4.672,-0.947,none
4.029095,0.497,-0.171,-0.851,2466.68,0.112,0.000,0.112,-0.518,0.053,0.853,0.712,-0.069,-0.699,2498.66,0.448,0.000,0.112,-0.661,0.241,0.710,-0.056,-0.452,-0.890,2499.37,0.336,0.224,0.000,-0.117,0.000,-0.993,0.304,0.096,-0.948,2488.68,0.000,0.112,0.112,-0.962,0.116,0.248,0.398,0.208,0.894,10.956,5.466,0.260,-1.588,0.720,0.253,0.646,10.160,-5.695,-4.611,-0.840,none
4.050447,0.501,-0.175,-0.848,2464.73,0.448,-0.112,0.224,-0.553,0.022,0.833,0.714,-0.073,-0.697,2492.39,1.007,0.112,0.783,-0.636,0.218,0.740,-0.055,-0.454,-0.890,2511.45,0.000,0.000,0.112,-0.097,-0.009,-0.995,0.303,0.096,-0.948,2498.16,0.448,0.000,0.000,-0.963,0.111,0.247,0.396,0.209,0.894,10.980,5.405,0.260,-1.496,0.720,0.253,0.646,10.154,-5.710,-4.565,-0.473,none
4.074296,0.501,-0.175,-0.848,2464.73,0.560,-0.224,0.336,-0.498,0.039,0.866,0.710,-0.073,-0.701,2504.95,0.336,-0.448,0.336,-0.621,0.215,0.754,-0.051,-0.451,-0.891,2507.74,-0.448,-0.448,0.336,-0.115,0.000,-0.993,0.303,0.092,-0.949,2497.23,0.448,0.000,0.000,-0.970,0.157,0.184,0.399,0.209,0.893,10.951,5.466,-0.046,-1.267,0.720,0.252,0.647,10.156,-5.542,-4.962,-0.519,none
4.095631,0.499,-0.172,-0.850,2457.33,-0.224,0.112,-0.112,-0.521,0.066,0.851,0.710,-0.069,-0.701,2490.84,0.112,-0.448,-0.224,-0.675,0.240,0.697,-0.056,-0.447,-0.893,2503.79,-0.560,-0.112,0.000,-0.148,0.034,-0.988,0.303,0.096,-0.948,2498.16,0.000,0.000,-0.224,-0.954,0.131,0.269,0.399,0.209,0.893,10.970,5.466,-0.168,-1.206,0.720,0.253,0.646,10.153,-5.450,-5.176,-0.687,none
4.118305,0.501,-0.171,-0.848,2463.17,-0.336,-0.112,-0.224,-0.538,0.049,0.842,0.712,-0.070,-0.699,2484.55,0.336,0.112,-0.224,-0.609,0.240,0.756,-0.052,-0.452,-0.890,2498.83,-0.336,0.000,0.112,-0.097,0.002,-0.995,0.304,0.100,-0.947,2488.71,0.000,0.224,0.112,-0.965,0.116,0.233,0.397,0.208,0.894,10.967,5.557,0.473,-1.664,0.721,0.254,0.645,10.141,-5.740,-4.397,-0.519,none
4.140469,0.501,-0.171,-0.848,2463.17,0.448,-0.224,0.448,-0.561,0.047,0.826,0.714,-0.073,-0.697,2492.39,0.671,0.000,0.448,-0.615,0.284,0.736,-0.056,-0.452,-0.890,2499.37,-0.112,-0.560,0.336,-0.107,-0.011,-0.994,0.303,0.096,-0.948,2498.16,0.671,0.000,0.224,-0.976,0.155,0.155,0.398,0.208,0.893,10.947,5.527,0.366,-1.603,0.720,0.254,0.645,10.175,-5.679,-4.519,-0.443,none
4.164600,0.499,-0.172,-0.850,2457.33,0.448,-0.224,0.336,-0.516,0.071,0.853,0.712,-0.070,-0.699,2484.55,0.783,-0.112,0.112,-0.653,0.280,0.703,-0.051,-0.451,-0.891,2507.74,-0.112,-0.448,0.336,-0.128,-0.036,-0.991,0.303,0.092,-0.949,2497.23,0.448,0.000,0.112,-0.970,0.157,0.184,0.397,0.209,0.894,10.961,5.450,0.275,-1.496,0.721,0.252,0.646,10.132,-5.725,-4.550,-0.336,none
4.187305,0.499,-0.172,-0.850,2457.33,0.000,-0.224,0.224,-0.542,0.043,0.840,0.710,-0.073,-0.701,2492.26,0.560,0.000,0.112,-0.646,0.202,0.736,-0.056,-0.447,-0.893,2503.79,-0.112,-0.336,0.224,-0.116,-0.008,-0.993,0.301,0.092,-0.949,2484.07,0.112,0.224,0.112,-0.979,0.111,0.169,0.398,0.208,0.894,10.947,5.450,0.260,-1.435,0.722,0.249,0.646,10.143,-5.649,-4.626,-0.504,none
4.208187,0.495,-0.176,-0.851,2453.92,0.000,-0.336,-0.112,-0.562,0.027,0.826,0.710,-0.069,-0.701,2490.84,0.336,0.000,0.112,-0.647,0.280,0.709,-0.059,-0.450,-0.891,2508.85,-0.112,-0.336,0.112,-0.126,0.000,-0.992,0.303,0.092,-0.949,2497.23,0.224,0.000,0.112,-0.972,0.098,0.212,0.399,0.209,0.893,10.934,5.588,0.137,-1.481,0.720,0.251,0.647,10.170,-5.450,-4.870,-1.053,none
4.230105,0.500,-0.171,-0.849,2470.81,-0.224,0.000,-0.224,-0.524,0.067,0.849,0.712,-0.074,-0.699,2484.55,-0.560,0.000,0.112,-0.648,0.231,0.725,-0.052,-0.449,-0.892,2494.33,0.671,0.448,-0.336,-0.105,-0.008,-0.994,0.303,0.096,-0.948,2498.16,0.112,-0.112,0.000,-0.960,0.110,0.259,0.397,0.206,0.894,10.980,5.756,0.489,-1.740,0.721,0.251,0.646,10.138,-5.450,-4.473,-1.435,none
4.251021,0.501,-0.175,-0.848,2464.73,0.336,0.336,0.224,-0.518,0.067,0.853,0.708,-0.074,-0.703,2485.17,1.007,0.448,0.448,-0.646,0.239,0.725,-0.052,-0.455,-0.889,2502.03,1.007,0.112,-0.224,-0.075,-0.009,-0.997,0.304,0.092,-0.948,2487.74,0.224,0.000,0.112,-0.966,0.079,0.246,0.398,0.209,0.893,10.962,5.832,0.443,-1.695,0.720,0.252,0.647,10.140,-5.374,-4.550,-1.435,none
4.270319,0.501,-0.175,-0.848,2464.73,0.000,0.336,0.112,-0.537,0.042,0.842,0.714,-0.077,-0.696,2493.15,0.448,0.112,0.783,-0.634,0.181,0.752,-0.051,-0.451,-0.891,2507.74,1.231,0.112,-0.224,-0.097,-0.008,-0.995,0.304,0.096,-0.948,2488.68,0.448,-0.112,0.112,-0.954,0.160,0.254,0.398,0.209,0.893,10.954,5.756,0.489,-1.817,0.720,0.253,0.646,10.142,-5.435,-4.321,-1.466,none
4.291282,0.499,-0.172,-0.850,2457.33,0.336,0.336,0.336,-0.558,0.066,0.827,0.711,-0.077,-0.699,2499.41,0.560,0.448,0.783,-0.678,0.171,0.715,-0.052,-0.452,-0.890,2498.83,1.119,-0.112,-0.224,-0.126,0.000,-0.992,0.303,0.096,-0.948,2498.16,0.448,-0.112,0.112,-0.954,0.160,0.254,0.397,0.209,0.894,10.951,5.710,0.656,-1.817,0.720,0.254,0.646,10.138,-5.618,-4.229,-1.160,none
4.313445,0.501,-0.175,-0.848,2464.73,0.560,0.000,0.448,-0.537,0.077,0.840,0.716,-0.074,-0.694,2485.44,0.783,-0.112,0.560,-0.630,0.211,0.748,-0.056,-0.455,-0.889,2502.56,0.671,-0.112,-0.112,-0.107,-0.011,-0.994,0.304,0.092,-0.948,2487.74,0.671,-0.112,0.000,-0.968,0.171,0.183,0.397,0.210,0.893,10.959,5.603,0.275,-1.511,0.720,0.251,0.648,10.158,-5.634,-4.580,-0.580,none
4.336462,0.501,-0.175,-0.848,2464.73,0.000,-0.112,0.112,-0.565,0.064,0.823,0.714,-0.077,-0.696,2493.15,0.448,0.112,0.000,-0.647,0.246,0.722,-0.056,-0.454,-0.889,2489.58,-0.336,-0.336,0.224,-0.085,0.036,-0.996,0.303,0.096,-0.948,2498.16,0.671,0.000,0.112,-0.965,0.112,0.235,0.396,0.209,0.894,10.944,5.481,0.305,-1.557,0.720,0.253,0.646,10.130,-5.695,-4.580,-0.458,none
4.357942,0.501,-0.175,-0.848,2464.73,0.224,-0.448,0.112,-0.560,0.051,0.827,0.711,-0.077,-0.699,2499.41,0.448,0.000,-0.112,-0.660,0.294,0.691,-0.055,-0.451,-0.891,2508.28,-0.112,-0.224,0.224,-0.143,-0.020,-0.989,0.304,0.092,-0.948,2487.74,0.560,0.000,0.224,-0.954,0.131,0.269,0.398,0.208,0.893,10.923,5.420,0.000,-1.405,0.720,0.252,0.647,10.145,-5.588,-4.855,-0.611,none
4.380506,0.498,-0.175,-0.849,2458.89,-0.336,-0.112,-0.112,-0.530,0.077,0.845,0.714,-0.073,-0.697,2492.39,0.336,0.000,-0.112,-0.653,0.249,0.715,-0.056,-0.452,-0.890,2499.37,-0.336,0.000,0.112,-0.109,-0.049,-0.993,0.301,0.096,-0.949,2485.01,0.000,-0.224,0.112,-0.975,0.127,0.182,0.396,0.208,0.894,10.943,5.527,0.122,-1.466,0.720,0.252,0.646,10.167,-5.588,-4.763,-0.656,none
4.402155,0.498,-0.175,-0.849,2458.89,0.112,-0.336,0.000,-0.523,0.082,0.848,0.714,-0.069,-0.697,2490.97,0.336,0.000,0.112,-0.631,0.192,0.751,-0.051,-0.451,-0.891,2507.74,0.000,-0.224,0.112,-0.077,-0.031,-0.997,0.304,0.092,-0.948,2487.74,0.336,-0.112,0.224,-0.973,0.063,0.222,0.399,0.210,0.893,10.921,5.527,0.183,-1.466,0.720,0.253,0.646,10.152,-5.511,-4.748,-0.641,none
4.424440,0.498,-0.175,-0.849,2458.89,0.000,-0.336,-0.112,-0.554,0.034,0.832,0.712,-0.074,-0.699,2484.55,0.000,-0.112,-0.224,-0.639,0.290,0.713,-0.051,-0.451,-0.891,2507.74,-0.112,-0.224,0.112,-0.095,0.002,-0.995,0.304,0.096,-0.948,2488.68,0.336,0.000,0.112,-0.979,0.127,0.159,0.398,0.209,0.893,10.954,5.588,0.366,-1.603,0.720,0.252,0.647,10.140,-5.664,-4.580,-0.580,none
4.447924,0.498,-0.179,-0.849,2461.51,0.336,-0.448,0.112,-0.523,0.061,0.850,0.714,-0.077,-0.696,2493.15,0.560,0.000,0.112,-0.662,0.235,0.712,-0.052,-0.455,-0.889,2502.03,-0.112,-0.224,0.112,-0.126,-0.010,-0.992,0.300,0.092,-0.950,2493.57,0.336,0.112,0.224,-0.953,0.100,0.284,0.398,0.207,0.894,10.929,5.557,0.336,-1.573,0.721,0.251,0.646,10.148,-5.664,-4.580,-0.534,none
4.469528,0.498,-0.175,-0.849,2458.89,0.224,-0.448,0.224,-0.558,0.072,0.827,0.711,-0.078,-0.699,2485.31,0.560,-0.224,0.000,-0.624,0.238,0.744,-0.056,-0.452,-0.890,2499.37,-0.224,-0.112,0.112,-0.126,0.013,-0.992,0.301,0.092,-0.949,2484.07,0.448,-0.112,0.112,-0.960,0.116,0.255,0.397,0.210,0.893,10.925,5.588,0.198,-1.511,0.720,0.252,0.646,10.125,-5.527,-4.794,-0.916,none
4.491416,0.498,-0.175,-0.849,2458.89,-0.224,0.224,-0.112,-0.539,0.049,0.841,0.711,-0.078,-0.699,2485.31,-0.112,0.000,0.112,-0.655,0.201,0.729,-0.055,-0.451,-0.891,2508.28,0.224,0.224,-0.112,-0.118,0.023,-0.993,0.305,0.092,-0.948,2477.31,-0.112,-0.112,0.336,-0.980,0.127,0.155,0.397,0.208,0.894,10.922,5.740,0.321,-1.695,0.719,0.252,0.648,10.140,-5.511,-4.595,-1.282,none
4.515038,0.503,-0.175,-0.846,2456.26,0.112,0.336,0.112,-0.533,0.061,0.844,0.714,-0.077,-0.696,2493.15,0.112,0.224,0.448,-0.612,0.260,0.746,-0.052,-0.455,-0.889,2502.03,0.783,0.112,-0.224,-0.126,-0.011,-0.992,0.304,0.088,-0.949,2485.89,0.112,0.000,0.000,-0.983,0.141,0.115,0.396,0.209,0.894,10.974,5.740,0.305,-1.557,0.721,0.251,0.646,10.134,-5.405,-4.641,-1.145,none
4.534913,0.498,-0.175,-0.849,2458.89,0.000,0.000,-0.336,-0.536,0.089,0.840,0.714,-0.077,-0.696,2493.15,0.000,0.112,0.112,-0.631,0.246,0.736,-0.056,-0.452,-0.890,2499.37,-0.336,-0.224,-0.112,-0.115,-0.011,-0.993,0.301,0.092,-0.949,2484.07,-0.336,0.000,0.000,-0.963,0.131,0.234,0.397,0.210,0.893,10.933,5.756,0.031,-1.420,0.719,0.253,0.647,10.152,-5.206,-4.992,-1.176,none
4.558062,0.500,-0.172,-0.849,2448.83,-0.224,0.112,-0.112,-0.546,0.075,0.835,0.714,-0.077,-0.696,2493.15,0.000,0.224,-0.112,-0.637,0.253,0.728,-0.052,-0.447,-0.893,2503.25,0.112,0.224,-0.224,-0.105,0.002,-0.994,0.305,0.096,-0.947,2478.26,-0.560,0.224,-0.112,-0.958,0.131,0.255,0.396,0.209,0.894,10.938,5.771,0.382,-1.588,0.718,0.255,0.648,10.153,-5.450,-4.656,-1.084,none
4.577495,0.501,-0.175,-0.848,2464.73,-0.448,0.000,0.112,-0.524,0.067,0.849,0.714,-0.077,-0.696,2493.15,0.336,0.224,0.336,-0.634,0.304,0.712,-0.052,-0.452,-0.890,2498.83,0.224,-0.112,-0.224,-0.106,0.000,-0.994,0.304,0.092,-0.948,2487.74,-0.112,0.000,-0.112,-0.955,0.131,0.266,0.399,0.210,0.893,10.923,5.618,0.305,-1.527,0.719,0.253,0.647,10.140,-5.557,-4.687,-0.748,none
4.599361,0.498,-0.175,-0.849,2458.89,0.000,-0.112,0.224,-0.525,0.093,0.846,0.714,-0.077,-0.696,2493.15,0.000,0.000,-0.112,-0.636,0.256,0.728,-0.056,-0.454,-0.889,2489.58,-0.560,0.000,0.000,-0.115,0.024,-0.993,0.301,0.092,-0.949,2484.07,0.448,-0.224,0.112,-0.959,0.095,0.269,0.398,0.209,0.893,10.957,5.618,0.183,-1.618,0.720,0.254,0.646,10.137,-5.573,-4.763,-0.763,none
4.622614,0.499,-0.172,-0.850,2457.33,0.112,-0.112,-0.112,-0.571,0.025,0.821,0.711,-0.077,-0.699,2499.41,-0.336,0.112,-0.112,-0.610,0.188,0.770,-0.056,-0.447,-0.893,2503.79,-0.112,0.224,0.112,-0.098,-0.045,-0.994,0.304,0.096,-0.948,2488.68,-0.112,0.000,0.000,-0.946,0.160,0.281,0.397,0.209,0.894,10.931,5.649,0.290,-1.710,0.719,0.253,0.648,10.144,-5.527,-4.763,-1.084,none
4.651438,0.500,-0.174,-0.849,2472.37,-0.112,0.224,0.224,-0.588,0.084,0.805,0.714,-0.077,-0.696,2493.15,-0.112,0.000,0.112,-0.678,0.233,0.698,-0.052,-0.452,-0.890,2498.83,0.112,0.224,0.000,-0.126,0.023,-0.992,0.303,0.092,-0.949,2497.23,-0.671,0.000,-0.224,-0.984,0.153,0.092,0.398,0.210,0.893,10.923,5.588,-0.046,-1.359,0.720,0.252,0.646,10.135,-5.420,-5.267,-0.748,none
4.667883,0.500,-0.171,-0.849,2470.81,-0.224,0.000,-0.224,-0.541,0.081,0.837,0.712,-0.073,-0.699,2498.66,-0.560,-0.224,-0.671,-0.612,0.296,0.733,-0.052,-0.452,-0.890,2498.83,-0.783,0.112,0.000,-0.146,-0.032,-0.989,0.303,0.100,-0.948,2498.19,-0.448,0.000,0.000,-0.963,0.116,0.244,0.399,0.210,0.893,10.921,5.588,0.214,-1.542,0.721,0.252,0.646,10.137,-5.450,-4.992,-0.901,none
4.688991,0.498,-0.175,-0.849,2458.89,0.112,0.224,-0.112,-0.502,0.088,0.860,0.712,-0.073,-0.699,2498.66,-0.224,0.112,-0.112,-0.665,0.228,0.711,-0.056,-0.447,-0.893,2480.57,0.112,0.336,-0.224,-0.126,0.011,-0.992,0.304,0.092,-0.948,2487.74,-0.336,-0.112,0.224,-0.954,0.160,0.254,0.396,0.210,0.894,10.944,5.588,0.351,-1.618,0.720,0.251,0.647,10.139,-5.695,-4.885,-0.458,none
4.710665,0.503,-0.175,-0.846,2456.26,-0.112,-0.671,0.224,-0.537,0.084,0.839,0.714,-0.077,-0.696,2493.15,0.112,0.112,-0.112,-0.647,0.200,0.736,-0.051,-0.454,-0.890,2510.92,-0.448,-0.224,0.448,-0.106,0.000,-0.994,0.304,0.088,-0.949,2485.89,-0.112,0.000,0.112,-0.971,0.144,0.190,0.396,0.208,0.894,10.937,5.374,0.000,-1.328,0.719,0.252,0.648,10.142,-5.695,-5.191,-0.015,none
4.738525,0.501,-0.175,-0.848,2464.73,-0.112,-0.448,-0.224,-0.505,0.052,0.862,0.714,-0.077,-0.696,2493.15,-0.448,0.112,-1.231,-0.637,0.221,0.739,-0.056,-0.452,-0.890,2499.37,-1.343,0.000,0.448,-0.118,-0.023,-0.993,0.303,0.096,-0.948,2498.16,-0.112,-0.112,0.112,-0.957,0.093,0.274,0.397,0.208,0.894,10.917,5.405,-0.412,-1.099,0.720,0.251,0.647,10.140,-5.298,-5.649,-0.489,none
4.754872,0.498,-0.175,-0.849,2458.89,-0.560,-0.112,-0.560,-0.538,0.035,0.842,0.714,-0.077,-0.696,2493.15,-0.895,0.224,-0.895,-0.630,0.205,0.749,-0.052,-0.447,-0.893,2503.25,-0.783,0.336,-0.336,-0.107,-0.009,-0.994,0.304,0.092,-0.948,2487.74,-0.671,-0.112,0.112,-0.955,0.085,0.286,0.397,0.208,0.894,10.930,5.588,-0.504,-1.191,0.720,0.251,0.647,10.166,-5.160,-5.618,-1.084,none
4.778479,0.499,-0.172,-0.850,2457.33,-1.119,-0.112,-0.560,-0.556,0.066,0.829,0.711,-0.078,-0.699,2485.31,-0.895,0.448,-0.783,-0.666,0.265,0.697,-0.056,-0.452,-0.890,2499.37,-0.224,0.224,-0.560,-0.115,-0.008,-0.993,0.304,0.092,-0.948,2487.74,-0.895,0.000,-0.224,-0.936,0.130,0.327,0.396,0.208,0.894,10.961,5.679,-0.412,-1.267,0.721,0.253,0.645,10.149,-5.099,-5.450,-1.252,none
4.798502,0.499,-0.172,-0.850,2457.33,-0.671,0.000,-0.448,-0.563,0.051,0.825,0.714,-0.073,-0.697,2492.39,-0.671,0.224,-0.448,-0.645,0.284,0.709,-0.051,-0.451,-0.891,2507.74,0.000,0.224,-0.448,-0.126,0.013,-0.992,0.303,0.096,-0.948,2498.16,-0.671,-0.224,-0.224,-0.953,0.100,0.284,0.398,0.210,0.893,10.925,5.710,-0.229,-1.359,0.722,0.252,0.645,10.143,-5.221,-5.328,-1.359,none
4.822111,0.498,-0.175,-0.849,2458.89,-0.448,0.224,-0.336,-0.563,0.054,0.825,0.714,-0.073,-0.697,2492.39,-0.448,0.224,-0.224,-0.622,0.289,0.728,-0.052,-0.452,-0.890,2498.83,0.336,0.336,-0.560,-0.126,-0.031,-0.992,0.304,0.096,-0.948,2488.68,-0.671,-0.224,-0.224,-0.972,0.127,0.197,0.399,0.208,0.893,10.933,5.710,-0.168,-1.557,0.722,0.253,0.644,10.153,-5.206,-5.008,-1.771,none
4.844215,0.499,-0.172,-0.850,2457.33,-0.560,0.671,-0.224,-0.545,0.071,0.836,0.712,-0.070,-0.699,2484.55,-1.007,0.224,0.336,-0.650,0.257,0.715,-0.052,-0.449,-0.892,2494.33,0.895,0.448,-0.783,-0.126,-0.011,-0.992,0.304,0.100,-0.947,2488.71,-1.007,-0.112,-0.336,-0.965,0.116,0.233,0.399,0.211,0.892,10.949,5.863,0.458,-2.031,0.722,0.254,0.643,10.130,-5.435,-4.290,-1.863,none
4.866428,0.497,-0.171,-0.851,2466.68,0.112,0.560,0.336,-0.531,0.068,0.844,0.714,-0.069,-0.697,2490.97,-0.112,0.224,0.895,-0.633,0.236,0.737,-0.055,-0.454,-0.890,2511.45,1.567,0.224,-0.448,-0.107,-0.011,-0.994,0.304,0.096,-0.948,2488.68,0.448,0.112,-0.112,-0.953,0.116,0.279,0.399,0.210,0.893,10.952,5.817,0.336,-1.786,0.719,0.254,0.647,10.133,-5.359,-4.534,-1.496,none
4.889478,0.501,-0.171,-0.848,2463.17,0.448,0.448,0.224,-0.561,0.087,0.823,0.714,-0.073,-0.697,2492.39,0.000,0.112,0.448,-0.639,0.290,0.713,-0.052,-0.455,-0.889,2502.03,0.000,0.224,-0.224,-0.107,-0.043,-0.993,0.304,0.096,-0.948,2488.68,0.336,-0.112,-0.112,-0.960,0.159,0.233,0.399,0.210,0.893,10.951,5.679,0.290,-1.649,0.721,0.255,0.645,10.141,-5.466,-4.687,-1.053,none
4.911112,0.496,-0.175,-0.850,2468.24,0.336,0.000,0.000,-0.547,0.040,0.836,0.714,-0.073,-0.697,2492.39,0.224,-0.224,0.112,-0.637,0.253,0.728,-0.052,-0.455,-0.889,2502.03,0.112,-0.448,0.000,-0.118,-0.012,-0.993,0.301,0.096,-0.949,2485.01,-0.112,0.112,0.000,-0.985,0.153,0.080,0.399,0.207,0.893,10.933,5.664,0.412,-1.710,0.720,0.252,0.646,10.153,-5.679,-4.519,-0.611,none
4.933035,0.498,-0.175,-0.849,2458.89,0.224,0.000,0.112,-0.537,0.077,0.840,0.712,-0.073,-0.699,2498.66,0.000,-0.112,0.000,-0.596,0.260,0.760,-0.056,-0.452,-0.890,2499.37,0.000,-0.224,0.336,-0.097,-0.019,-0.995,0.303,0.096,-0.948,2498.16,-0.112,0.336,-0.112,-0.970,0.097,0.222,0.398,0.209,0.893,10.926,5.603,0.382,-1.710,0.721,0.252,0.646,10.151,-5.618,-4.656,-0.748,none
4.953387,0.498,-0.175,-0.849,2458.89,0.224,0.000,0.224,-0.508,0.030,0.861,0.714,-0.073,-0.697,2492.39,0.112,0.000,-0.112,-0.652,0.166,0.740,-0.052,-0.455,-0.889,2502.03,0.336,0.000,0.112,-0.107,-0.022,-0.994,0.304,0.092,-0.948,2487.74,0.671,-0.224,0.224,-0.974,0.063,0.218,0.398,0.209,0.893,10.928,5.634,0.397,-1.695,0.719,0.254,0.647,10.161,-5.618,-4.611,-0.733,none
4.976334,0.501,-0.171,-0.848,2463.17,0.448,0.112,0.224,-0.523,0.061,0.850,0.714,-0.073,-0.697,2492.39,0.336,0.000,0.000,-0.677,0.284,0.679,-0.052,-0.452,-0.890,2498.83,0.224,-0.112,0.112,-0.096,0.024,-0.995,0.309,0.092,-0.947,2480.38,0.000,0.224,0.112,-0.964,0.131,0.232,0.398,0.209,0.893,10.939,5.603,0.626,-1.710,0.721,0.253,0.645,10.166,-5.756,-4.305,-0.366,none
4.997248,0.498,-0.175,-0.849,2458.89,0.336,-0.224,0.336,-0.567,0.070,0.821,0.714,-0.077,-0.696,2493.15,0.560,-0.224,0.000,-0.660,0.260,0.705,-0.055,-0.454,-0.890,2511.45,-0.448,-0.336,0.448,-0.126,0.000,-0.992,0.304,0.092,-0.948,2487.74,0.112,0.112,-0.112,-0.905,0.132,0.405,0.398,0.209,0.893,10.941,5.557,0.321,-1.435,0.720,0.252,0.646,10.150,-5.710,-4.626,-0.214,none
5.018911,0.499,-0.172,-0.850,2457.33,-0.112,-0.671,0.112,-0.573,0.016,0.819,0.712,-0.073,-0.699,2498.66,0.336,-0.224,-0.560,-0.669,0.240,0.704,-0.055,-0.451,-0.891,2508.28,-0.783,-0.448,0.671,-0.126,0.011,-0.992,0.303,0.096,-0.948,2498.16,0.448,0.000,0.000,-0.971,0.079,0.225,0.398,0.209,0.893,10.937,5.557,0.244,-1.527,0.720,0.253,0.646,10.150,-5.634,-4.718,-0.641,none
5.040108,0.498,-0.175,-0.849,2458.89,0.000,-0.112,0.112,-0.566,0.077,0.821,0.712,-0.073,-0.699,2498.66,0.112,-0.112,-0.112,-0.596,0.330,0.732,-0.052,-0.452,-0.890,2498.83,-0.112,-0.224,-0.112,-0.147,0.000,-0.989,0.304,0.096,-0.948,2488.68,-0.112,0.000,0.000,-0.983,0.113,0.143,0.398,0.207,0.894,10.924,5.634,0.366,-1.695,0.719,0.250,0.649,10.160,-5.695,-4.702,-0.718,none
5.062566,0.500,-0.171,-0.849,2470.81,0.448,0.224,0.224,-0.564,0.014,0.826,0.714,-0.077,-0.696,2493.15,0.112,0.000,0.112,-0.660,0.260,0.705,-0.051,-0.451,-0.891,2507.74,0.224,0.112,0.112,-0.109,-0.034,-0.993,0.301,0.092,-0.949,2484.07,0.112,0.112,0.112,-0.975,0.169,0.143,0.398,0.208,0.894,10.928,5.695,0.336,-1.649,0.719,0.250,0.648,10.154,-5.481,-4.779,-0.992,none
5.083886,0.500,-0.176,-0.848,2450.40,0.112,-0.112,-0.112,-0.522,0.057,0.851,0.714,-0.073,-0.697,2492.39,-0.112,0.112,-0.224,-0.649,0.222,0.727,-0.052,-0.455,-0.889,2502.03,0.560,0.224,-0.112,-0.098,-0.033,-0.995,0.304,0.092,-0.948,2487.74,0.560,-0.112,0.224,-0.963,0.131,0.236,0.398,0.209,0.893,10.939,5.756,0.351,-1.679,0.719,0.253,0.647,10.158,-5.588,-4.534,-0.931,none
5.105663,0.501,-0.175,-0.848,2464.73,0.112,0.224,0.336,-0.543,0.022,0.839,0.714,-0.073,-0.697,2492.39,0.112,0.112,0.336,-0.662,0.235,0.712,-0.052,-0.460,-0.886,2497.73,0.112,-0.336,0.112,-0.105,-0.008,-0.994,0.303,0.088,-0.949,2495.38,-0.112,0.000,0.000,-0.953,0.116,0.279,0.399,0.208,0.893,10.927,5.588,0.061,-1.328,0.720,0.252,0.646,10.123,-5.511,-4.901,-0.473,none
5.130544,0.497,-0.171,-0.851,2466.68,-0.224,-0.336,-0.112,-0.565,0.037,0.824,0.712,-0.074,-0.699,2484.55,0.448,0.000,-0.336,-0.650,0.270,0.710,-0.056,-0.454,-0.889,2489.58,-0.671,-0.336,0.112,-0.116,0.002,-0.993,0.304,0.100,-0.947,2488.71,-0.112,0.000,-0.112,-0.947,0.115,0.299,0.397,0.208,0.894,10.965,5.740,0.260,-1.542,0.721,0.250,0.647,10.164,-5.435,-4.626,-0.977,none
5.156034,0.501,-0.171,-0.848,2463.17,-0.112,0.336,0.112,-0.572,0.065,0.818,0.714,-0.077,-0.696,2493.15,0.000,0.000,0.336,-0.621,0.323,0.714,-0.052,-0.449,-0.892,2494.33,0.671,0.224,-0.336,-0.097,0.012,-0.995,0.304,0.096,-0.948,2488.68,0.224,0.112,0.224,-0.960,0.116,0.255,0.397,0.209,0.894,10.959,5.771,0.275,-1.649,0.720,0.255,0.646,10.158,-5.359,-4.565,-1.344,none
5.175534,0.501,-0.175,-0.848,2464.73,-0.112,0.336,-0.112,-0.518,0.081,0.852,0.714,-0.077,-0.696,2493.15,0.112,0.112,0.560,-0.631,0.284,0.722,-0.052,-0.452,-0.890,2498.83,1.007,0.112,-0.336,-0.115,-0.008,-0.993,0.303,0.092,-0.949,2497.23,0.560,-0.336,0.112,-0.969,0.112,0.221,0.399,0.208,0.893,10.922,5.725,0.198,-1.511,0.720,0.254,0.646,10.152,-5.389,-4.702,-1.038,none
5.203010,0.501,-0.175,-0.848,2464.73,0.112,0.000,-0.112,-0.501,0.082,0.862,0.714,-0.077,-0.696,2493.15,0.000,-0.224,0.224,-0.663,0.304,0.684,-0.052,-0.452,-0.890,2498.83,0.112,0.000,-0.112,-0.118,0.000,-0.993,0.303,0.092,-0.949,2497.23,0.000,0.000,-0.112,-0.976,0.098,0.195,0.399,0.212,0.892,10.930,5.710,0.198,-1.420,0.718,0.253,0.648,10.130,-5.420,-4.840,-0.794,none
5.219283,0.498,-0.175,-0.849,2458.89,-0.224,-0.224,-0.112,-0.535,0.085,0.841,0.714,-0.077,-0.696,2493.15,0.224,-0.112,-0.112,-0.670,0.189,0.718,-0.056,-0.449,-0.892,2494.86,-0.336,-0.112,-0.112,-0.120,-0.024,-0.993,0.304,0.092,-0.948,2487.74,-0.112,0.224,-0.112,-0.963,0.111,0.247,0.400,0.210,0.892,10.964,5.664,0.397,-1.573,0.721,0.254,0.645,10.133,-5.588,-4.656,-0.702,none
5.242310,0.497,-0.171,-0.851,2466.68,-0.112,0.112,0.112,-0.516,0.075,0.853,0.714,-0.073,-0.697,2492.39,0.000,0.000,0.000,-0.628,0.217,0.748,-0.051,-0.451,-0.891,2507.74,-0.112,-0.224,0.112,-0.120,-0.023,-0.993,0.301,0.096,-0.949,2485.01,-0.224,0.224,-0.112,-0.946,0.145,0.290,0.397,0.210,0.894,10.934,5.664,0.443,-1.634,0.719,0.252,0.647,10.135,-5.634,-4.641,-0.702,none
5.291054,0.498,-0.175,-0.849,2458.89,0.000,-0.224,0.112,-0.538,0.090,0.838,0.714,-0.073,-0.697,2492.39,0.000,0.000,-0.224,-0.647,0.237,0.725,-0.051,-0.454,-0.890,2510.92,0.224,-0.224,0.000,-0.134,0.000,-0.991,0.299,0.096,-0.949,2494.50,0.112,0.224,0.000,-0.954,0.160,0.254,0.398,0.209,0.893,10.945,5.664,0.397,-1.634,0.719,0.254,0.647,10.178,-5.588,-4.611,-0.641,none
5.292258,0.499,-0.172,-0.850,2457.33,0.112,-0.112,0.000,-0.555,0.073,0.828,0.712,-0.073,-0.699,2498.66,-0.224,-0.112,0.000,-0.633,0.269,0.726,-0.052,-0.452,-0.890,2498.83,0.000,-0.112,0.000,-0.107,-0.019,-0.994,0.303,0.096,-0.948,2498.16,0.000,0.112,0.112,-0.969,0.112,0.221,0.398,0.208,0.894,10.932,5.679,0.458,-1.588,0.720,0.253,0.647,10.157,-5.725,-4.519,-0.534,none
5.310218,0.500,-0.171,-0.849,2470.81,0.224,-0.336,0.224,-0.531,0.076,0.844,0.712,-0.073,-0.699,2498.66,0.000,-0.112,0.112,-0.644,0.296,0.706,-0.052,-0.455,-0.889,2502.03,-0.560,-0.112,0.448,-0.118,-0.032,-0.993,0.303,0.092,-0.949,2497.23,0.000,0.000,0.112,-0.973,0.142,0.181,0.398,0.208,0.893,10.922,5.618,0.427,-1.511,0.718,0.253,0.649,10.155,-5.649,-4.473,-0.473,none
5.334133,0.501,-0.175,-0.848,2464.73,0.448,-0.224,0.224,-0.501,0.082,0.862,0.714,-0.077,-0.696,2493.15,0.336,-0.448,0.000,-0.622,0.256,0.740,-0.056,-0.452,-0.890,2499.37,-0.560,-0.336,0.224,-0.107,-0.011,-0.994,0.304,0.092,-0.948,2487.74,0.783,0.112,0.000,-0.969,0.127,0.210,0.398,0.209,0.893,10.951,5.664,0.290,-1.466,0.719,0.251,0.647,10.146,-5.618,-4.748,-0.519,none
5.358124,0.501,-0.175,-0.848,2464.73,0.224,-0.112,0.000,-0.516,0.069,0.854,0.714,-0.077,-0.696,2493.15,0.336,0.112,-0.112,-0.627,0.228,0.745,-0.055,-0.451,-0.891,2508.28,-0.560,-0.336,0.224,-0.068,-0.008,-0.998,0.304,0.092,-0.948,2487.74,-0.224,0.000,0.000,-0.969,0.111,0.223,0.398,0.210,0.893,10.935,5.573,0.229,-1.450,0.719,0.254,0.647,10.151,-5.573,-4.733,-0.595,none
5.378675,0.498,-0.175,-0.849,2458.89,0.224,-0.112,0.000,-0.548,0.038,0.836,0.714,-0.073,-0.697,2492.39,0.112,-0.112,0.000,-0.673,0.224,0.705,-0.051,-0.451,-0.891,2507.74,-0.336,-0.112,0.112,-0.118,-0.033,-0.992,0.301,0.092,-0.949,2484.07,-0.112,0.000,-0.112,-0.964,0.145,0.222,0.398,0.209,0.893,10.923,5.634,0.153,-1.420,0.719,0.252,0.647,10.148,-5.511,-4.824,-0.824,none
5.402543,0.496,-0.175,-0.850,2468.24,0.000,-0.336,-0.112,-0.540,0.066,0.839,0.712,-0.073,-0.699,2498.66,0.000,0.112,0.112,-0.652,0.250,0.716,-0.056,-0.449,-0.892,2494.86,0.112,-0.112,-0.112,-0.106,0.000,-0.994,0.301,0.096,-0.949,2485.01,0.112,-0.224,0.448,-0.974,0.081,0.210,0.398,0.210,0.893,10.932,5.664,0.290,-1.618,0.719,0.252,0.648,10.135,-5.542,-4.641,-0.840,none
5.421829,0.501,-0.175,-0.848,2464.73,0.224,0.336,0.112,-0.534,0.058,0.843,0.714,-0.077,-0.696,2493.15,0.000,0.000,0.000,-0.612,0.258,0.748,-0.052,-0.452,-0.890,2498.83,0.224,-0.224,-0.112,-0.129,-0.037,-0.991,0.304,0.088,-0.949,2485.89,0.336,-0.112,0.112,-0.969,0.111,0.223,0.398,0.209,0.893,10.960,5.634,0.076,-1.435,0.719,0.253,0.648,10.157,-5.466,-4.885,-0.870,none
5.443916,0.501,-0.171,-0.848,2463.17,-0.224,0.000,-0.112,-0.519,0.054,0.853,0.714,-0.073,-0.697,2492.39,-0.112,0.000,-0.112,-0.637,0.210,0.742,-0.052,-0.452,-0.890,2498.83,-0.224,0.000,0.112,-0.123,0.012,-0.992,0.304,0.096,-0.948,2488.68,0.000,0.000,-0.112,-0.959,0.177,0.221,0.398,0.208,0.894,10.966,5.679,0.183,-1.573,0.718,0.251,0.649,10.170,-5.527,-4.733,-0.870,none
5.465610,0.498,-0.175,-0.849,2458.89,0.000,0.000,0.112,-0.536,0.049,0.843,0.711,-0.077,-0.699,2499.41,0.224,0.000,0.000,-0.656,0.181,0.733,-0.052,-0.452,-0.890,2498.83,0.224,0.112,0.000,-0.115,-0.008,-0.993,0.300,0.092,-0.950,2493.57,-0.112,0.112,-0.112,-0.958,0.131,0.257,0.400,0.208,0.893,10.952,5.634,0.183,-1.481,0.721,0.252,0.645,10.146,-5.511,-4.763,-0.763,none
5.490371,0.498,-0.175,-0.849,2458.89,0.224,-0.224,0.112,-0.548,0.073,0.833,0.714,-0.073,-0.697,2492.39,0.224,0.112,0.000,-0.656,0.201,0.728,-0.056,-0.452,-0.890,2499.37,-0.224,-0.224,0.000,-0.097,-0.030,-0.995,0.304,0.096,-0.948,2488.68,0.000,0.000,0.112,-0.965,0.112,0.235,0.397,0.208,0.894,10.965,5.679,0.305,-1.542,0.720,0.254,0.646,10.150,-5.557,-4.733,-0.718,none
5.510535,0.500,-0.172,-0.849,2448.83,0.000,-0.112,0.112,-0.509,0.069,0.858,0.711,-0.077,-0.699,2499.41,0.224,0.000,-0.112,-0.686,0.276,0.673,-0.055,-0.451,-0.891,2508.28,-0.112,-0.224,0.000,-0.115,0.002,-0.993,0.301,0.092,-0.949,2484.07,0.000,0.112,-0.112,-0.962,0.162,0.222,0.399,0.208,0.893,10.940,5.649,0.244,-1.511,0.719,0.252,0.648,10.151,-5.496,-4.885,-0.779,none
5.532896,0.499,-0.172,-0.850,2457.33,-0.112,0.000,0.000,-0.532,0.055,0.845,0.714,-0.073,-0.697,2492.39,-0.224,0.112,-0.336,-0.664,0.259,0.701,-0.056,-0.452,-0.890,2499.37,0.000,0.112,0.000,-0.087,0.002,-0.996,0.300,0.092,-0.950,2493.57,-0.336,0.112,-0.112,-0.978,0.127,0.164,0.398,0.211,0.893,10.957,5.664,0.153,-1.542,0.720,0.255,0.645,10.149,-5.389,-4.947,-0.962,none
5.554981,0.501,-0.175,-0.848,2464.73,0.000,0.336,-0.336,-0.495,0.061,0.867,0.714,-0.077,-0.696,2493.15,-0.448,0.224,-0.112,-0.691,0.246,0.680,-0.051,-0.451,-0.891,2507.74,-0.336,0.224,-0.112,-0.117,-0.043,-0.992,0.304,0.096,-0.948,2488.68,-0.224,0.000,0.112,-0.962,0.116,0.248,0.398,0.208,0.894,10.970,5.695,0.244,-1.649,0.720,0.254,0.645,10.156,-5.466,-4.779,-1.038,none
5.577601,0.501,-0.175,-0.848,2464.73,-0.112,0.000,0.112,-0.504,0.032,0.863,0.711,-0.078,-0.699,2485.31,0.000,0.112,0.000,-0.652,0.325,0.685,-0.052,-0.452,-0.890,2498.83,0.336,0.224,0.000,-0.087,0.013,-0.996,0.304,0.092,-0.948,2487.74,-0.448,-0.112,-0.112,-0.939,0.148,0.312,0.397,0.207,0.894,10.976,5.695,0.305,-1.634,0.719,0.252,0.648,10.147,-5.573,-4.718,-0.931,none
5.599720,0.498,-0.175,-0.849,2458.89,0.224,0.112,0.112,-0.535,0.098,0.839,0.714,-0.073,-0.697,2492.39,-0.112,0.000,-0.112,-0.666,0.257,0.700,-0.052,-0.452,-0.890,2498.83,0.000,0.112,0.000,-0.136,-0.021,-0.990,0.304,0.096,-0.948,2488.68,-0.224,-0.112,-0.224,-0.967,0.111,0.230,0.399,0.209,0.893,10.975,5.664,0.183,-1.511,0.719,0.252,0.648,10.170,-5.420,-4.885,-0.931,none
5.621515,0.499,-0.172,-0.850,2457.33,0.000,0.336,-0.112,-0.524,0.067,0.849,0.714,-0.073,-0.697,2492.39,-0.448,0.112,-0.112,-0.626,0.145,0.766,-0.052,-0.447,-0.893,2503.25,0.224,0.112,-0.112,-0.115,0.024,-0.993,0.304,0.096,-0.948,2488.68,-0.224,-0.112,0.224,-0.981,0.091,0.170,0.397,0.210,0.894,10.941,5.695,0.260,-1.573,0.719,0.253,0.647,10.147,-5.511,-4.855,-0.779,none
5.644803,0.500,-0.174,-0.849,2472.37,-0.336,0.112,-0.224,-0.553,0.041,0.832,0.714,-0.073,-0.697,2492.39,0.000,0.000,-0.336,-0.656,0.227,0.720,-0.056,-0.455,-0.889,2502.56,0.112,0.000,0.112,-0.115,-0.008,-0.993,0.299,0.096,-0.949,2494.50,-0.336,0.224,-0.224,-0.956,0.145,0.257,0.397,0.208,0.894,10.954,5.618,0.321,-1.634,0.721,0.252,0.646,10.147,-5.557,-4.794,-0.672,none
5.666703,0.496,-0.175,-0.850,2468.24,0.112,0.336,-0.112,-0.550,0.043,0.834,0.714,-0.073,-0.697,2492.39,-0.112,0.000,-0.224,-0.674,0.209,0.709,-0.055,-0.451,-0.891,2508.28,0.000,0.112,0.000,-0.115,0.023,-0.993,0.303,0.096,-0.948,2498.16,0.112,0.000,-0.112,-0.933,0.068,0.353,0.399,0.208,0.893,10.950,5.695,0.366,-1.786,0.719,0.253,0.648,10.146,-5.542,-4.748,-0.992,none
5.689152,0.498,-0.175,-0.849,2458.89,-0.224,0.000,-0.112,-0.544,0.065,0.837,0.714,-0.073,-0.697,2492.39,-0.112,0.112,-0.112,-0.641,0.223,0.734,-0.052,-0.452,-0.890,2498.83,0.336,0.224,-0.224,-0.107,-0.071,-0.992,0.304,0.092,-0.948,2487.74,0.336,-0.112,0.000,-0.978,0.127,0.164,0.398,0.209,0.893,10.951,5.634,0.336,-1.634,0.721,0.252,0.645,10.142,-5.618,-4.702,-0.992,none
5.710998,0.501,-0.175,-0.848,2464.73,0.112,0.224,0.000,-0.515,0.037,0.857,0.715,-0.077,-0.695,2499.58,0.112,0.112,0.112,-0.645,0.208,0.735,-0.051,-0.454,-0.890,2510.92,0.336,0.000,0.112,-0.126,-0.010,-0.992,0.304,0.092,-0.948,2487.74,0.112,-0.224,0.000,-0.972,0.141,0.190,0.397,0.210,0.894,10.940,5.664,0.229,-1.496,0.719,0.254,0.647,10.171,-5.542,-4.840,-0.901,none
5.732852,0.501,-0.175,-0.848,2464.73,0.000,0.000,-0.112,-0.532,0.055,0.845,0.714,-0.077,-0.696,2493.15,-0.224,0.112,-0.336,-0.647,0.237,0.725,-0.055,-0.451,-0.891,2508.28,-0.112,0.112,-0.336,-0.120,-0.050,-0.991,0.303,0.096,-0.948,2498.16,-0.224,-0.112,0.112,-0.973,0.112,0.202,0.399,0.212,0.892,10.920,5.618,0.198,-1.542,0.721,0.254,0.644,10.169,-5.435,-4.824,-0.977,none
5.754961,0.499,-0.172,-0.850,2457.33,-0.112,0.112,-0.112,-0.514,0.037,0.857,0.714,-0.073,-0.697,2492.39,0.000,0.112,0.112,-0.637,0.215,0.741,-0.056,-0.452,-0.890,2499.37,0.336,0.224,-0.112,-0.124,0.012,-0.992,0.306,0.096,-0.947,2501.21,-0.448,0.000,-0.112,-0.956,0.087,0.281,0.398,0.209,0.893,10.956,5.664,0.275,-1.634,0.720,0.254,0.646,10.135,-5.527,-4.672,-0.901,none
5.778149,0.501,-0.171,-0.848,2463.17,0.000,0.000,0.000,-0.537,0.048,0.842,0.714,-0.073,-0.697,2492.39,-0.336,0.000,0.000,-0.671,0.234,0.704,-0.055,-0.454,-0.890,2511.45,0.336,-0.112,0.112,-0.133,0.002,-0.991,0.304,0.092,-0.948,2487.74,-0.112,0.224,-0.336,-0.960,0.159,0.233,0.397,0.208,0.894,10.961,5.603,0.229,-1.542,0.719,0.252,0.648,10.149,-5.573,-4.840,-0.672,none
5.800933,0.501,-0.175,-0.848,2464.73,0.000,0.000,0.000,-0.553,0.076,0.830,0.712,-0.070,-0.699,2484.55,-0.112,0.000,-0.224,-0.650,0.265,0.712,-0.055,-0.451,-0.891,2508.28,-0.112,-0.224,0.000,-0.097,0.002,-0.995,0.301,0.092,-0.949,2484.07,0.000,0.000,0.000,-0.970,0.127,0.207,0.398,0.209,0.893,10.977,5.649,0.168,-1.527,0.720,0.251,0.647,10.125,-5.527,-4.809,-0.809,none
5.822641,0.496,-0.175,-0.850,2468.24,0.000,0.000,0.000,-0.538,0.049,0.842,0.711,-0.077,-0.699,2499.41,-0.224,0.000,-0.336,-0.646,0.211,0.734,-0.052,-0.455,-0.889,2502.03,0.000,-0.112,-0.112,-0.118,-0.022,-0.993,0.301,0.096,-0.949,2485.01,0.000,0.000,0.000,-0.975,0.173,0.140,0.398,0.210,0.893,10.944,5.618,0.244,-1.603,0.721,0.253,0.645,10.144,-5.557,-4.733,-0.779,none
5.845911,0.501,-0.171,-0.848,2463.17,0.000,0.000,0.000,-0.569,0.061,0.820,0.712,-0.074,-0.699,2484.55,-0.112,0.000,0.000,-0.621,0.253,0.742,-0.056,-0.452,-0.890,2499.37,0.112,0.112,0.112,-0.124,0.034,-0.992,0.304,0.096,-0.948,2488.68,0.000,0.000,0.000,-0.963,0.131,0.234,0.396,0.211,0.894,10.942,5.664,0.275,-1.603,0.721,0.253,0.645,10.141,-5.496,-4.824,-0.763,none
5.866481,0.501,-0.175,-0.848,2464.73,0.000,0.000,0.000,-0.535,0.071,0.842,0.712,-0.073,-0.699,2498.66,-0.336,0.000,-0.112,-0.619,0.268,0.739,-0.051,-0.451,-0.891,2507.74,-0.112,0.000,0.112,-0.107,0.000,-0.994,0.304,0.096,-0.948,2488.68,0.000,0.000,0.000,-0.958,0.101,0.269,0.396,0.209,0.894,10.969,5.710,0.275,-1.557,0.719,0.253,0.647,10.133,-5.557,-4.656,-0.840,none
5.889269,0.500,-0.176,-0.848,2450.40,0.000,0.000,0.000,-0.536,0.049,0.843,0.716,-0.074,-0.694,2485.44,0.336,-0.112,0.112,-0.639,0.249,0.728,-0.052,-0.452,-0.890,2498.83,0.336,0.000,-0.112,-0.136,-0.021,-0.990,0.304,0.092,-0.948,2487.74,0.000,0.000,0.000,-0.943,0.148,0.299,0.398,0.209,0.893,10.938,5.618,0.122,-1.496,0.721,0.251,0.646,10.148,-5.481,-4.870,-0.855,none
5.910390,0.501,-0.175,-0.848,2464.73,0.000,0.000,0.000,-0.509,0.050,0.859,0.710,-0.073,-0.701,2492.26,-0.336,0.000,0.000,-0.599,0.210,0.772,-0.055,-0.451,-0.891,2508.28,-0.336,0.000,0.000,-0.086,-0.009,-0.996,0.303,0.096,-0.948,2498.16,0.000,0.000,0.000,-0.969,0.145,0.199,0.399,0.209,0.893,10.928,5.695,0.275,-1.557,0.720,0.253,0.646,10.161,-5.527,-4.672,-0.916,none
5.934277,0.499,-0.172,-0.850,2457.33,0.000,0.000,0.000,-0.551,0.036,0.833,0.714,-0.069,-0.697,2490.97,0.448,0.000,0.112,-0.662,0.235,0.712,-0.052,-0.452,-0.890,2498.83,0.112,-0.112,-0.112,-0.107,-0.011,-0.994,0.301,0.096,-0.949,2485.01,0.000,0.000,0.000,-0.970,0.142,0.199,0.396,0.208,0.894,10.976,5.603,0.244,-1.542,0.719,0.252,0.648,10.153,-5.511,-4.718,-0.824,none
5.954797,0.499,-0.172,-0.850,2457.33,0.000,0.000,0.000,-0.540,0.052,0.840,0.714,-0.073,-0.697,2492.39,0.000,-0.112,0.336,-0.637,0.215,0.741,-0.056,-0.452,-0.890,2499.37,0.112,0.112,0.000,-0.087,0.002,-0.996,0.304,0.092,-0.948,2487.74,0.000,0.000,0.000,-0.960,0.131,0.247,0.398,0.208,0.894,10.927,5.573,0.031,-1.374,0.721,0.252,0.646,10.144,-5.435,-4.885,-0.840,none
5.976655,0.498,-0.175,-0.849,2458.89,0.000,0.000,0.000,-0.504,0.099,0.858,0.710,-0.073,-0.701,2492.26,-0.224,0.000,-0.224,-0.619,0.264,0.740,-0.056,-0.452,-0.890,2499.37,-0.112,0.112,0.000,-0.118,-0.011,-0.993,0.303,0.096,-0.948,2498.16,0.000,0.000,0.000,-0.968,0.171,0.183,0.397,0.207,0.894,10.968,5.634,0.198,-1.573,0.720,0.252,0.647,10.167,-5.511,-4.840,-0.885,none
5.999776,0.501,-0.175,-0.848,2464.73,0.000,0.000,0.000,-0.532,0.061,0.845,0.714,-0.073,-0.697,2492.39,-0.224,0.112,-0.112,-0.647,0.280,0.709,-0.051,-0.451,-0.891,2507.74,0.112,-0.224,-0.112,-0.146,-0.032,-0.989,0.306,0.096,-0.947,2501.21,0.000,0.000,0.000,-0.956,0.161,0.246,0.396,0.209,0.894,10.980,5.618,0.427,-1.588,0.720,0.250,0.647,10.166,-5.527,-4.641,-0.779,none
6.021941,0.500,-0.174,-0.849,2472.37,0.000,0.000,0.000,-0.521,0.083,0.849,0.712,-0.073,-0.699,2498.66,0.000,0.000,0.112,-0.678,0.223,0.700,-0.052,-0.455,-0.889,2502.03,0.112,-0.112,-0.112,-0.136,0.000,-0.991,0.300,0.092,-0.950,2493.57,0.000,0.000,0.000,-0.957,0.131,0.257,0.398,0.208,0.894,10.970,5.634,0.214,-1.481,0.719,0.251,0.648,10.166,-5.466,-4.870,-0.809,none
6.042427,0.497,-0.171,-0.851,2466.68,0.000,0.000,0.000,-0.528,0.043,0.848,0.712,-0.073,-0.699,2498.66,-0.112,0.112,-0.224,-0.633,0.271,0.725,-0.056,-0.452,-0.890,2499.37,-0.112,0.112,-0.112,-0.137,0.011,-0.991,0.303,0.096,-0.948,2498.16,0.000,0.000,0.000,-0.971,0.127,0.200,0.398,0.210,0.893,10.939,5.710,0.214,-1.542,0.719,0.253,0.647,10.143,-5.450,-4.794,-0.962,none
6.063448,0.501,-0.175,-0.848,2464.73,0.000,0.000,0.000,-0.573,0.071,0.816,0.714,-0.073,-0.697,2492.39,-0.224,0.112,0.000,-0.628,0.226,0.745,-0.052,-0.452,-0.890,2498.83,0.112,0.000,-0.112,-0.107,-0.021,-0.994,0.304,0.096,-0.948,2488.68,0.000,0.000,0.000,-0.962,0.173,0.209,0.398,0.210,0.893,10.933,5.695,0.244,-1.511,0.720,0.252,0.647,10.147,-5.481,-4.763,-0.901,none
6.085608,0.498,-0.175,-0.849,2458.89,0.000,0.000,0.000,-0.550,0.065,0.833,0.714,-0.073,-0.697,2492.39,0.000,0.112,0.112,-0.623,0.200,0.756,-0.055,-0.451,-0.891,2508.28,0.112,0.112,0.000,-0.088,-0.030,-0.996,0.304,0.096,-0.948,2488.68,0.000,0.000,0.000,-0.971,0.127,0.200,0.399,0.210,0.893,10.952,5.664,0.198,-1.496,0.721,0.252,0.646,10.141,-5.481,-4.794,-0.916,none
6.107219,0.498,-0.175,-0.849,2458.89,0.000,0.000,0.000,-0.539,0.075,0.839,0.714,-0.077,-0.696,2493.15,-0.112,0.112,-0.112,-0.658,0.265,0.704,-0.052,-0.452,-0.890,2498.83,-0.112,0.000,-0.112,-0.105,0.012,-0.994,0.304,0.092,-0.948,2487.74,0.000,0.000,0.000,-0.960,0.161,0.231,0.398,0.211,0.893,10.949,5.710,0.229,-1.603,0.721,0.254,0.645,10.142,-5.435,-4.702,-0.977,none
6.129798,0.501,-0.171,-0.848,2463.17,0.000,0.000,0.000,-0.570,0.066,0.819,0.714,-0.073,-0.697,2492.39,0.000,0.112,0.000,-0.638,0.153,0.755,-0.051,-0.454,-0.890,2510.92,0.336,0.112,-0.112,-0.118,-0.033,-0.992,0.305,0.096,-0.947,2478.26,0.000,0.000,0.000,-0.964,0.131,0.232,0.397,0.210,0.893,10.934,5.725,0.382,-1.634,0.721,0.253,0.645,10.142,-5.527,-4.702,-0.931,none
6.155474,0.501,-0.175,-0.848,2464.73,0.000,0.000,0.000,-0.544,0.065,0.837,0.714,-0.073,-0.697,2492.39,0.000,0.112,0.112,-0.627,0.222,0.747,-0.055,-0.451,-0.891,2508.28,0.000,0.000,0.000,-0.087,-0.023,-0.996,0.303,0.096,-0.948,2498.16,0.000,0.000,0.000,-0.970,0.097,0.222,0.398,0.211,0.893,10.925,5.679,0.290,-1.618,0.720,0.251,0.647,10.144,-5.496,-4.702,-0.947,none
6.179352,0.498,-0.175,-0.849,2458.89,0.000,0.000,0.000,-0.558,0.044,0.828,0.714,-0.073,-0.697,2492.39,0.112,0.112,0.000,-0.672,0.274,0.688,-0.051,-0.454,-0.890,2510.92,0.336,0.112,0.000,-0.133,0.023,-0.991,0.303,0.096,-0.948,2498.16,0.000,0.000,0.000,-0.982,0.098,0.162,0.399,0.207,0.893,10.943,5.740,0.351,-1.725,0.719,0.252,0.648,10.140,-5.496,-4.794,-0.916,none
6.199598,0.500,-0.174,-0.849,2472.37,0.000,0.000,0.000,-0.553,0.089,0.828,0.712,-0.073,-0.699,2498.66,-0.112,-0.112,0.000,-0.639,0.279,0.717,-0.056,-0.454,-0.889,2489.58,0.336,0.112,0.000,-0.126,0.023,-0.992,0.304,0.092,-0.948,2487.74,0.000,0.000,0.000,-0.976,0.098,0.195,0.396,0.208,0.894,10.968,5.649,0.489,-1.695,0.720,0.252,0.646,10.156,-5.573,-4.656,-0.885,none
6.221966,0.498,-0.175,-0.849,2458.89,0.000,0.000,0.000,-0.538,0.070,0.840,0.714,-0.077,-0.696,2493.15,0.000,0.112,0.112,-0.641,0.275,0.717,-0.055,-0.451,-0.891,2508.28,0.560,0.224,-0.112,-0.134,0.000,-0.991,0.300,0.092,-0.950,2493.57,0.000,0.000,0.000,-0.953,0.116,0.279,0.398,0.210,0.893,10.959,5.710,0.443,-1.664,0.719,0.251,0.648,10.143,-5.573,-4.687,-0.855,none
6.245357,0.501,-0.175,-0.848,2464.73,0.000,0.000,0.000,-0.547,0.059,0.835,0.714,-0.069,-0.697,2490.97,-0.336,0.000,0.000,-0.637,0.221,0.739,-0.051,-0.451,-0.891,2507.74,0.000,-0.112,0.000,-0.136,-0.021,-0.990,0.304,0.096,-0.948,2488.68,0.000,0.000,0.000,-0.953,0.116,0.281,0.397,0.208,0.894,10.941,5.710,0.489,-1.740,0.719,0.251,0.648,10.159,-5.603,-4.595,-0.824,none
6.268855,0.501,-0.175,-0.848,2464.73,0.000,0.000,0.000,-0.552,0.072,0.831,0.714,-0.073,-0.697,2492.39,0.000,0.112,0.000,-0.633,0.236,0.737,-0.056,-0.455,-0.889,2502.56,0.224,0.224,0.000,-0.106,-0.019,-0.994,0.301,0.092,-0.949,2484.07,0.000,0.000,0.000,-0.946,0.160,0.281,0.396,0.208,0.894,10.948,5.649,0.321,-1.557,0.719,0.251,0.648,10.147,-5.603,-4.748,-0.733,none
6.290655,0.499,-0.172,-0.850,2457.33,0.000,0.000,0.000,-0.565,0.064,0.823,0.716,-0.073,-0.695,2498.83,0.336,0.000,0.000,-0.641,0.275,0.717,-0.051,-0.451,-0.891,2507.74,-0.112,-0.224,0.112,-0.128,-0.022,-0.991,0.304,0.096,-0.948,2488.68,0.000,0.000,0.000,-0.960,0.159,0.233,0.398,0.210,0.893,10.946,5.679,0.260,-1.603,0.721,0.252,0.645,10.136,-5.542,-4.794,-0.855,none
6.312112,0.498,-0.175,-0.849,2458.89,0.000,0.000,0.000,-0.544,0.020,0.839,0.712,-0.073,-0.699,2498.66,0.000,0.112,0.224,-0.683,0.246,0.688,-0.056,-0.449,-0.892,2494.86,0.224,0.112,0.000,-0.118,-0.011,-0.993,0.303,0.096,-0.948,2498.16,0.000,0.000,0.000,-0.965,0.161,0.208,0.397,0.211,0.893,10.958,5.771,0.443,-1.740,0.719,0.256,0.646,10.135,-5.466,-4.565,-1.267,none
6.336690,0.498,-0.175,-0.849,2458.89,0.000,0.000,0.000,-0.547,0.033,0.836,0.714,-0.073,-0.697,2492.39,-0.448,0.112,0.224,-0.613,0.210,0.762,-0.051,-0.454,-0.890,2510.92,0.895,0.224,-0.336,-0.136,-0.010,-0.991,0.303,0.088,-0.949,2495.38,0.000,0.000,0.000,-0.965,0.116,0.233,0.398,0.210,0.893,10.948,5.725,0.260,-1.542,0.720,0.254,0.646,10.134,-5.542,-4.779,-0.870,none
6.359098,0.501,-0.175,-0.848,2464.73,0.000,0.000,0.000,-0.549,0.038,0.835,0.716,-0.074,-0.694,2485.44,-0.112,0.000,-0.112,-0.672,0.311,0.672,-0.052,-0.455,-0.889,2502.03,-0.224,0.000,-0.112,-0.118,-0.022,-0.993,0.304,0.096,-0.948,2488.68,0.000,0.000,0.000,-0.946,0.188,0.266,0.397,0.209,0.894,10.954,5.634,0.122,-1.405,0.719,0.252,0.648,10.155,-5.481,-5.008,-0.733,none
6.379244,0.499,-0.172,-0.850,2457.33,0.000,0.000,0.000,-0.569,0.075,0.819,0.712,-0.074,-0.699,2484.55,-0.336,0.000,-0.336,-0.648,0.276,0.710,-0.055,-0.454,-0.890,2511.45,-0.224,-0.112,0.000,-0.105,0.046,-0.993,0.303,0.096,-0.948,2498.16,0.000,0.000,0.000,-0.970,0.157,0.184,0.398,0.207,0.894,10.973,5.634,0.321,-1.573,0.719,0.254,0.647,10.164,-5.573,-4.656,-0.809,none
6.401117,0.500,-0.172,-0.849,2448.83,0.000,0.000,0.000,-0.504,0.074,0.861,0.712,-0.073,-0.699,2498.66,-0.112,-0.112,0.000,-0.641,0.230,0.733,-0.056,-0.455,-0.889,2502.56,-0.336,0.000,0.112,-0.126,0.011,-0.992,0.304,0.092,-0.948,2487.74,0.000,0.000,0.000,-0.963,0.131,0.234,0.397,0.210,0.894,10.959,5.649,0.321,-1.542,0.720,0.252,0.646,10.163,-5.618,-4.718,-0.626,none
6.422507,0.501,-0.171,-0.848,2463.17,0.000,0.000,0.000,-0.550,0.065,0.833,0.714,-0.073,-0.697,2492.39,0.112,-0.224,-0.112,-0.633,0.231,0.739,-0.056,-0.452,-0.890,2499.37,-0.560,-0.224,0.224,-0.117,0.023,-0.993,0.304,0.092,-0.948,2487.74,0.000,0.000,0.000,-0.964,0.095,0.248,0.396,0.210,0.894,10.933,5.710,0.153,-1.511,0.721,0.253,0.645,10.143,-5.511,-4.794,-0.824,none
6.442370,0.499,-0.172,-0.850,2457.33,0.000,0.000,0.000,-0.537,0.077,0.840,0.714,-0.073,-0.697,2492.39,-0.224,0.000,-0.112,-0.615,0.246,0.749,-0.056,-0.449,-0.892,2494.86,0.000,-0.112,0.112,-0.133,0.012,-0.991,0.303,0.096,-0.948,2498.16,0.000,0.000,0.000,-0.960,0.110,0.259,0.398,0.211,0.893,10.928,5.710,0.290,-1.679,0.719,0.253,0.648,10.161,-5.542,-4.748,-1.099,none
6.463069,0.503,-0.175,-0.846,2456.26,0.000,0.000,0.000,-0.540,0.062,0.840,0.714,-0.077,-0.696,2493.15,-0.112,0.112,0.224,-0.643,0.257,0.721,-0.052,-0.452,-0.890,2498.83,0.224,0.112,-0.112,-0.128,-0.023,-0.991,0.304,0.092,-0.948,2487.74,0.000,0.000,0.000,-0.962,0.175,0.210,0.398,0.208,0.894,10.926,5.725,0.137,-1.511,0.721,0.252,0.645,10.125,-5.359,-4.855,-1.008,none
6.484059,0.503,-0.175,-0.846,2456.26,0.000,0.000,0.000,-0.547,0.040,0.836,0.714,-0.073,-0.697,2492.39,0.336,0.224,-0.112,-0.614,0.243,0.751,-0.052,-0.452,-0.890,2498.83,-0.336,0.000,-0.112,-0.106,-0.018,-0.994,0.301,0.092,-0.949,2484.07,0.000,0.000,0.000,-0.960,0.131,0.246,0.398,0.208,0.893,10.942,5.710,0.122,-1.466,0.722,0.254,0.644,10.122,-5.405,-4.885,-0.809,none
6.506552,0.497,-0.171,-0.851,2466.68,0.000,0.000,0.000,-0.532,0.026,0.846,0.714,-0.069,-0.697,2490.97,0.000,0.000,-0.112,-0.648,0.244,0.722,-0.056,-0.452,-0.890,2499.37,-0.448,-0.224,0.112,-0.106,-0.018,-0.994,0.304,0.096,-0.948,2488.68,0.000,0.000,0.000,-0.938,0.191,0.288,0.398,0.209,0.893,10.956,5.679,0.397,-1.664,0.719,0.254,0.647,10.164,-5.588,-4.672,-0.824,none
6.527600,0.501,-0.171,-0.848,2463.17,0.000,0.000,0.000,-0.567,0.055,0.822,0.712,-0.074,-0.699,2484.55,-0.224,0.112,0.000,-0.645,0.295,0.705,-0.056,-0.452,-0.890,2499.37,-0.224,-0.336,0.112,-0.113,0.034,-0.993,0.305,0.092,-0.948,2477.31,0.000,0.000,0.000,-0.961,0.131,0.244,0.398,0.210,0.893,10.947,5.618,0.519,-1.725,0.719,0.253,0.648,10.152,-5.664,-4.443,-0.718,none
6.563586,0.499,-0.172,-0.850,2457.33,0.000,0.000,0.000,-0.531,0.088,0.843,0.714,-0.069,-0.697,2490.97,-0.224,0.112,0.000,-0.667,0.303,0.680,-0.056,-0.452,-0.890,2499.37,-0.224,-0.336,0.224,-0.126,0.035,-0.991,0.304,0.092,-0.948,2487.74,0.000,0.000,0.000,-0.957,0.175,0.233,0.396,0.209,0.894,10.955,5.710,0.183,-1.511,0.720,0.253,0.646,10.146,-5.527,-4.656,-0.748,none
6.572545,0.498,-0.175,-0.849,2458.89,0.000,0.000,0.000,-0.536,0.056,0.842,0.714,-0.073,-0.697,2492.39,0.448,0.112,-0.112,-0.633,0.236,0.737,-0.056,-0.454,-0.889,2489.58,-0.336,0.000,0.000,-0.106,0.049,-0.993,0.301,0.092,-0.949,2484.07,0.000,0.000,0.000,-0.949,0.146,0.280,0.398,0.210,0.893,10.966,5.649,0.183,-1.405,0.720,0.254,0.645,10.153,-5.466,-4.809,-0.824,none
6.594350,0.503,-0.175,-0.846,2456.26,0.000,0.000,0.000,-0.571,0.046,0.820,0.714,-0.073,-0.697,2492.39,0.112,0.000,0.000,-0.623,0.258,0.739,-0.052,-0.451,-0.891,2484.52,-0.336,0.224,0.112,-0.106,-0.008,-0.994,0.304,0.092,-0.948,2487.74,0.000,0.000,0.000,-0.939,0.180,0.292,0.397,0.208,0.894,10.940,5.679,0.473,-1.664,0.720,0.252,0.647,10.149,-5.573,-4.565,-0.840,none
6.616841,0.501,-0.171,-0.848,2463.17,0.000,0.000,0.000,-0.526,0.073,0.847,0.712,-0.073,-0.699,2498.66,0.112,0.112,0.448,-0.628,0.261,0.733,-0.056,-0.452,-0.890,2499.37,0.112,-0.224,0.000,-0.128,-0.033,-0.991,0.304,0.092,-0.948,2487.74,0.000,0.000,0.000,-0.950,0.131,0.285,0.397,0.210,0.894,10.934,5.664,0.458,-1.725,0.718,0.253,0.648,10.139,-5.679,-4.519,-0.763,none
6.638533,0.501,-0.175,-0.848,2464.73,0.000,0.000,0.000,-0.555,0.051,0.830,0.714,-0.073,-0.697,2492.39,0.448,0.112,0.336,-0.648,0.231,0.725,-0.052,-0.449,-0.892,2494.33,0.000,-0.224,0.112,-0.098,-0.049,-0.994,0.304,0.092,-0.948,2487.74,0.000,0.000,0.000,-0.975,0.157,0.160,0.399,0.210,0.893,10.935,5.664,0.214,-1.557,0.720,0.254,0.646,10.151,-5.557,-4.763,-0.977,none
6.661762,0.501,-0.175,-0.848,2464.73,0.000,0.000,0.000,-0.535,0.071,0.842,0.714,-0.073,-0.697,2492.39,0.336,0.336,-0.112,-0.621,0.253,0.742,-0.051,-0.451,-0.891,2507.74,0.112,0.112,-0.112,-0.107,0.013,-0.994,0.301,0.092,-0.949,2484.07,0.000,0.000,0.000,-0.980,0.141,0.141,0.399,0.209,0.893,10.945,5.618,0.183,-1.542,0.721,0.252,0.645,10.138,-5.573,-4.824,-0.824,none
6.684087,0.496,-0.175,-0.850,2468.24,0.000,0.000,0.000,-0.544,0.033,0.838,0.712,-0.073,-0.699,2498.66,0.112,0.000,-0.112,-0.628,0.217,0.748,-0.052,-0.452,-0.890,2498.83,0.224,0.000,0.112,-0.107,-0.053,-0.993,0.304,0.096,-0.948,2488.68,0.000,0.000,0.000,-0.970,0.097,0.222,0.397,0.210,0.894,10.942,5.634,0.351,-1.588,0.720,0.252,0.647,10.135,-5.542,-4.763,-0.794,none
6.707330,0.501,-0.175,-0.848,2464.73,0.000,0.000,0.000,-0.529,0.062,0.846,0.712,-0.070,-0.699,2484.55,0.448,0.000,0.000,-0.646,0.285,0.709,-0.056,-0.455,-0.889,2502.56,0.000,0.000,0.112,-0.105,0.002,-0.994,0.301,0.092,-0.949,2484.07,0.000,0.000,0.000,-0.959,0.145,0.244,0.398,0.209,0.893,10.922,5.710,0.397,-1.618,0.720,0.253,0.646,10.118,-5.573,-4.733,-0.855,none
6.740619,0.501,-0.171,-0.848,2463.17,0.000,0.000,0.000,-0.553,0.041,0.832,0.714,-0.073,-0.697,2492.39,0.112,-0.112,0.000,-0.682,0.253,0.687,-0.052,-0.455,-0.889,2502.03,0.224,0.112,0.000,-0.113,0.022,-0.993,0.304,0.092,-0.948,2487.74,0.000,0.000,0.000,-0.978,0.141,0.155,0.395,0.210,0.894,10.931,5.603,0.260,-1.511,0.719,0.251,0.648,10.155,-5.542,-4.855,-0.641,none
6.755749,0.500,-0.176,-0.848,2450.40,0.000,0.000,0.000,-0.565,0.064,0.823,0.712,-0.073,-0.699,2498.66,-0.112,-0.112,-0.224,-0.657,0.272,0.703,-0.056,-0.452,-0.890,2499.37,-0.224,0.112,0.224,-0.118,-0.011,-0.993,0.299,0.096,-0.949,2494.50,0.000,0.000,0.000,-0.957,0.131,0.257,0.397,0.209,0.893,10.923,5.664,0.336,-1.618,0.720,0.251,0.646,10.138,-5.542,-4.748,-0.779,none
6.772363,0.498,-0.175,-0.849,2458.89,0.000,0.000,0.000,-0.518,0.053,0.853,0.714,-0.073,-0.697,2492.39,-0.112,0.224,-0.112,-0.639,0.201,0.743,-0.051,-0.451,-0.891,2507.74,0.224,0.000,0.112,-0.107,-0.022,-0.994,0.303,0.092,-0.949,2497.23,0.000,0.000,0.000,-0.965,0.112,0.235,0.397,0.210,0.893,10.986,5.710,0.290,-1.557,0.719,0.254,0.647,10.157,-5.496,-4.763,-0.931,none
6.802727,0.501,-0.175,-0.848,2464.73,0.000,0.000,0.000,-0.525,0.073,0.848,0.714,-0.069,-0.697,2490.97,0.000,0.112,0.112,-0.612,0.260,0.746,-0.051,-0.451,-0.891,2507.74,0.000,0.000,0.000,-0.095,0.025,-0.995,0.304,0.092,-0.948,2487.74,0.000,0.000,0.000,-0.967,0.173,0.188,0.397,0.210,0.893,10.944,5.771,0.305,-1.649,0.718,0.252,0.649,10.162,-5.450,-4.687,-0.947,none
6.817009,0.501,-0.175,-0.848,2464.73,0.000,0.000,0.000,-0.545,0.077,0.835,0.714,-0.077,-0.696,2493.15,0.112,0.112,0.224,-0.615,0.246,0.749,-0.052,-0.454,-0.889,2489.04,0.000,0.000,0.000,-0.126,-0.011,-0.992,0.303,0.088,-0.949,2495.38,0.000,0.000,0.000,-0.960,0.116,0.255,0.398,0.209,0.893,10.944,5.740,0.198,-1.542,0.720,0.253,0.646,10.150,-5.450,-4.870,-0.992,none
6.838189,0.499,-0.172,-0.850,2457.33,0.000,0.000,0.000,-0.553,0.041,0.832,0.714,-0.073,-0.697,2492.39,-0.224,0.000,0.000,-0.666,0.219,0.713,-0.052,-0.452,-0.890,2498.83,0.000,0.000,0.000,-0.133,0.002,-0.991,0.303,0.092,-0.949,2497.23,0.000,0.000,0.000,-0.970,0.127,0.207,0.398,0.210,0.893,10.920,5.634,0.275,-1.573,0.720,0.254,0.646,10.174,-5.511,-4.748,-0.916,none
6.861397,0.501,-0.171,-0.848,2463.17,0.000,0.000,0.000,-0.542,0.043,0.840,0.716,-0.073,-0.695,2498.83,0.336,-0.224,0.112,-0.628,0.226,0.745,-0.052,-0.455,-0.889,2502.03,0.000,0.000,0.000,-0.097,0.002,-0.995,0.303,0.096,-0.948,2498.16,0.000,0.000,0.000,-0.947,0.160,0.278,0.397,0.210,0.894,10.954,5.634,0.244,-1.527,0.719,0.252,0.648,10.143,-5.557,-4.824,-0.779,none
6.881659,0.500,-0.171,-0.849,2470.81,0.000,0.000,0.000,-0.527,0.084,0.846,0.714,-0.073,-0.697,2492.39,-0.224,-0.336,-0.112,-0.620,0.218,0.753,-0.056,-0.455,-0.889,2502.56,0.000,0.000,0.000,-0.128,-0.046,-0.991,0.304,0.096,-0.948,2488.68,0.000,0.000,0.000,-0.932,0.119,0.341,0.398,0.208,0.893,10.933,5.649,0.107,-1.450,0.722,0.253,0.644,10.154,-5.466,-4.977,-0.748,none
6.902945,0.501,-0.175,-0.848,2464.73,0.000,0.000,0.000,-0.544,0.036,0.838,0.712,-0.070,-0.699,2484.55,-0.336,0.000,-0.336,-0.646,0.285,0.709,-0.051,-0.454,-0.890,2510.92,0.000,0.000,0.000,-0.107,-0.021,-0.994,0.299,0.096,-0.949,2494.50,0.000,0.000,0.000,-0.945,0.086,0.315,0.397,0.211,0.894,10.938,5.679,0.260,-1.618,0.720,0.250,0.647,10.130,-5.481,-4.855,-0.947,none
6.924459,0.500,-0.172,-0.849,2448.83,0.000,0.000,0.000,-0.520,0.060,0.852,0.712,-0.069,-0.699,2498.66,-0.336,0.224,-0.112,-0.658,0.271,0.703,-0.051,-0.454,-0.890,2510.92,0.000,0.000,0.000,-0.137,0.022,-0.990,0.304,0.092,-0.948,2487.74,0.000,0.000,0.000,-0.956,0.115,0.271,0.396,0.210,0.894,10.936,5.695,0.351,-1.649,0.719,0.252,0.647,10.135,-5.557,-4.702,-0.855,none
6.946021,0.500,-0.174,-0.849,2472.37,0.000,0.000,0.000,-0.575,0.089,0.813,0.714,-0.073,-0.697,2492.39,0.000,0.112,0.112,-0.667,0.204,0.717,-0.056,-0.455,-0.889,2502.56,0.000,0.000,0.000,-0.155,0.000,-0.988,0.304,0.092,-0.948,2487.74,0.000,0.000,0.000,-0.954,0.094,0.285,0.400,0.209,0.892,10.932,5.649,0.275,-1.527,0.719,0.254,0.647,10.157,-5.511,-4.809,-0.748,none
6.967863,0.502,-0.174,-0.847,2476.87,0.000,0.000,0.000,-0.546,0.075,0.834,0.714,-0.073,-0.697,2492.39,0.000,-0.112,-0.112,-0.612,0.258,0.748,-0.056,-0.449,-0.892,2494.86,0.000,0.000,0.000,-0.115,-0.011,-0.993,0.304,0.096,-0.948,2488.68,0.000,0.000,0.000,-0.965,0.161,0.208,0.396,0.211,0.894,10.943,5.649,0.198,-1.573,0.720,0.254,0.646,10.161,-5.511,-4.870,-0.901,none
6.990351,0.499,-0.172,-0.850,2457.33,0.000,0.000,0.000,-0.560,0.034,0.828,0.714,-0.073,-0.697,2492.39,0.000,0.000,0.000,-0.625,0.274,0.731,-0.052,-0.449,-0.892,2494.33,0.000,0.000,0.000,-0.118,-0.033,-0.992,0.304,0.096,-0.948,2488.68,0.000,0.000,0.000,-0.970,0.142,0.195,0.397,0.210,0.893,10.933,5.664,0.321,-1.710,0.720,0.253,0.646,10.173,-5.634,-4.656,-0.931,none
7.012092,0.501,-0.171,-0.848,2463.17,0.000,0.000,0.000,-0.526,0.045,0.849,0.714,-0.073,-0.697,2492.39,0.000,0.000,0.000,-0.639,0.241,0.730,-0.055,-0.451,-0.891,2508.28,0.000,0.000,0.000,-0.128,-0.022,-0.991,0.304,0.092,-0.948,2487.74,0.000,0.000,0.000,-0.975,0.141,0.172,0.397,0.208,0.894,10.956,5.695,0.336,-1.664,0.721,0.252,0.645,10.141,-5.588,-4.702,-0.916,none
7.033320,0.501,-0.171,-0.848,2463.17,0.000,0.000,0.000,-0.544,0.056,0.837,0.714,-0.073,-0.697,2492.39,0.000,0.000,0.000,-0.655,0.194,0.730,-0.056,-0.452,-0.890,2499.37,0.000,0.000,0.000,-0.087,-0.019,-0.996,0.304,0.092,-0.948,2487.74,0.000,0.000,0.000,-0.962,0.160,0.221,0.397,0.211,0.893,10.957,5.740,0.260,-1.603,0.719,0.254,0.648,10.159,-5.450,-4.779,-0.962,none
7.055011,0.503,-0.175,-0.846,2456.26,0.000,0.000,0.000,-0.525,0.060,0.849,0.714,-0.073,-0.697,2506.50,0.000,0.000,0.000,-0.650,0.257,0.715,-0.052,-0.452,-0.890,2498.83,0.000,0.000,0.000,-0.094,0.034,-0.995,0.304,0.092,-0.948,2487.74,0.000,0.000,0.000,-0.948,0.130,0.292,0.396,0.210,0.894,10.932,5.649,0.183,-1.466,0.720,0.254,0.646,10.145,-5.511,-4.779,-0.824,none
7.078423,0.498,-0.175,-0.849,2458.89,0.000,0.000,0.000,-0.535,0.071,0.842,0.714,-0.073,-0.697,2492.39,0.000,0.000,0.000,-0.637,0.324,0.699,-0.056,-0.455,-0.889,2502.56,0.000,0.000,0.000,-0.126,0.011,-0.992,0.302,0.097,-0.949,2476.48,0.000,0.000,0.000,-0.966,0.131,0.223,0.400,0.209,0.893,10.947,5.618,0.214,-1.496,0.720,0.251,0.647,10.168,-5.511,-4.824,-0.702,none
7.098780,0.501,-0.171,-0.848,2463.17,0.000,0.000,0.000,-0.539,0.049,0.841,0.714,-0.073,-0.697,2492.39,0.000,0.000,0.000,-0.677,0.284,0.679,-0.052,-0.452,-0.890,2498.83,0.000,0.000,0.000,-0.137,0.011,-0.991,0.301,0.096,-0.949,2485.01,0.000,0.000,0.000,-0.963,0.116,0.244,0.400,0.211,0.892,10.947,5.664,0.351,-1.679,0.721,0.252,0.646,10.141,-5.603,-4.580,-0.931,none
