0.004573,BNO0_UnitAccX,BNO0_UnitAccY,BNO0_UnitAccZ,BNO0_RawAccMag,BNO0_GyrX,BNO0_GyrY,BNO0_GyrZ,BNO0_MagX,BNO0_MagY,BNO0_MagZ,BNO1_UnitAccX,BNO1_UnitAccY,BNO1_UnitAccZ,BNO1_RawAccMag,BNO1_GyrX,BNO1_GyrY,BNO1_GyrZ,BNO1_MagX,BNO1_MagY,BNO1_MagZ,BNO2_UnitAccX,BNO2_UnitAccY,BNO2_UnitAccZ,BNO2_RawAccMag,BNO2_GyrX,BNO2_GyrY,BNO2_GyrZ,BNO2_MagX,BNO2_MagY,BNO2_MagZ,BNO3_UnitAccX,BNO3_UnitAccY,BNO3_UnitAccZ,BNO3_RawAccMag,BNO3_GyrX,BNO3_GyrY,BNO3_GyrZ,BNO3_MagX,BNO3_MagY,BNO3_MagZ,MPU0_UnitAccX,MPU0_UnitAccY,MPU0_UnitAccZ,MPU0_RawAccMag,MPU0_GyrX,MPU0_GyrY,MPU0_GyrZ,MPU1_UnitAccX,MPU1_UnitAccY,MPU1_UnitAccZ,MPU1_RawAccMag,MPU1_GyrX,MPU1_GyrY,MPU1_GyrZ,none
0.049375,0.575,-0.270,-0.772,2476.10,-1.231,-0.783,-1.679,-0.911,0.316,0.265,0.658,-0.445,-0.607,2486.58,-0.336,-0.895,-1.567,-0.996,0.081,0.036,0.606,-0.172,-0.777,2475.76,-1.231,1.007,-1.679,-0.400,-0.357,0.844,-0.051,0.814,-0.579,2519.44,-3.357,0.783,0.336,-0.191,-0.077,0.979,0.440,0.271,0.856,10.856,5.939,-1.481,-0.504,0.800,0.375,0.468,10.239,-4.168,-5.771,-0.672,none
0.049625,0.572,-0.276,-0.772,2489.02,-0.895,0.448,-1.790,-0.916,0.289,0.279,0.659,-0.437,-0.612,2466.56,-1.455,0.112,-2.574,-0.998,0.060,0.024,0.603,-0.167,-0.780,2487.30,-0.671,2.574,-2.014,-0.400,-0.358,0.844,-0.051,0.818,-0.573,2494.57,-1.231,0.112,-0.224,-0.191,-0.088,0.978,0.437,0.271,0.858,10.877,5.420,-0.565,-1.893,0.801,0.375,0.467,10.250,-5.023,-4.595,-2.168,none
0.052719,0.573,-0.275,-0.772,2465.86,0.000,1.119,-0.224,-0.917,0.277,0.286,0.658,-0.451,-0.603,2454.61,0.112,1.119,-0.783,-0.998,0.065,0.015,0.601,-0.173,-0.781,2463.70,0.448,1.902,-0.448,-0.402,-0.358,0.842,-0.052,0.816,-0.575,2450.40,0.224,0.671,0.000,-0.192,-0.082,0.978,0.432,0.270,0.860,10.845,5.511,1.420,-2.840,0.798,0.376,0.471,10.203,-6.550,-4.153,-2.443,none
0.075332,0.577,-0.273,-0.770,2449.53,0.671,1.119,1.007,-0.914,0.304,0.268,0.663,-0.443,-0.603,2452.72,0.448,1.679,1.567,-0.996,0.065,0.063,0.609,-0.170,-0.774,2444.71,3.245,0.895,2.350,-0.403,-0.355,0.844,-0.052,0.812,-0.581,2461.97,0.671,-0.671,0.000,-0.196,-0.071,0.978,0.433,0.270,0.860,10.839,5.374,2.412,-2.580,0.797,0.376,0.473,10.234,-7.344,-3.221,-1.374,none
0.098219,0.580,-0.278,-0.766,2472.48,1.679,0.000,2.238,-0.912,0.304,0.275,0.663,-0.448,-0.600,2468.48,1.119,0.448,2.798,-0.996,0.080,0.037,0.612,-0.180,-0.770,2482.95,2.462,-1.119,1.790,-0.403,-0.356,0.843,-0.051,0.803,-0.594,2505.52,1.343,-1.007,-0.112,-0.198,-0.077,0.977,0.429,0.269,0.862,10.818,5.511,0.885,-1.771,0.798,0.375,0.472,10.189,-6.031,-4.412,-0.885,none
0.122305,0.576,-0.274,-0.770,2470.84,0.112,-0.336,0.224,-0.914,0.297,0.275,0.656,-0.451,-0.605,2494.89,0.112,0.000,0.560,-0.996,0.080,0.027,0.607,-0.183,-0.773,2487.16,0.560,-0.560,0.560,-0.403,-0.353,0.844,-0.048,0.804,-0.593,2462.32,-0.560,0.224,0.112,-0.188,-0.084,0.979,0.433,0.270,0.860,10.872,5.756,0.244,-0.855,0.801,0.376,0.465,10.261,-5.420,-4.137,-0.290,none
0.145653,0.572,-0.268,-0.775,2454.98,0.448,-1.343,0.112,-0.911,0.316,0.265,0.660,-0.441,-0.609,2464.84,1.231,-0.224,0.783,-0.996,0.075,0.054,0.605,-0.172,-0.778,2481.20,-0.336,-0.783,-0.336,-0.402,-0.351,0.845,-0.048,0.806,-0.590,2457.21,0.448,0.895,0.000,-0.190,-0.090,0.978,0.434,0.269,0.860,10.852,5.557,-0.122,-1.252,0.801,0.374,0.468,10.275,-5.237,-5.878,-0.427,none
0.168080,0.573,-0.267,-0.775,2467.68,-1.567,0.112,-1.231,-0.913,0.306,0.269,0.658,-0.444,-0.607,2469.27,-1.119,-0.448,-1.119,-0.998,0.060,0.024,0.611,-0.162,-0.775,2454.63,-1.679,0.560,-0.671,-0.404,-0.356,0.843,-0.052,0.815,-0.577,2479.06,2.126,1.455,0.000,-0.191,-0.077,0.979,0.434,0.273,0.859,10.824,5.588,0.595,-1.832,0.798,0.383,0.466,10.106,-5.267,-4.702,-1.450,none
0.190601,0.577,-0.279,-0.767,2466.69,-0.224,0.224,0.000,-0.907,0.319,0.274,0.658,-0.452,-0.603,2471.73,1.007,0.560,0.560,-0.997,0.082,0.008,0.608,-0.182,-0.773,2449.99,0.224,0.112,0.560,-0.405,-0.354,0.843,-0.051,0.808,-0.586,2487.81,0.000,-1.119,-0.224,-0.188,-0.089,0.978,0.427,0.269,0.863,10.838,6.046,0.168,-0.901,0.799,0.376,0.470,10.237,-5.267,-5.053,-0.809,none
0.213041,0.570,-0.270,-0.776,2478.89,-0.560,0.224,-0.895,-0.912,0.301,0.280,0.656,-0.450,-0.605,2478.42,0.448,0.000,-0.112,-0.996,0.081,0.037,0.610,-0.183,-0.771,2492.47,0.112,-0.112,0.000,-0.403,-0.353,0.844,-0.051,0.811,-0.583,2503.19,-1.007,0.895,0.224,-0.202,-0.071,0.977,0.434,0.271,0.859,10.818,5.634,-0.473,-0.962,0.798,0.376,0.471,10.185,-4.992,-4.947,-1.023,none
0.234356,0.572,-0.283,-0.770,2470.67,-0.224,0.560,-0.448,-0.918,0.300,0.259,0.657,-0.455,-0.602,2476.26,-1.119,0.112,-1.567,-0.996,0.089,0.030,0.613,-0.162,-0.773,2446.89,-1.679,0.895,-0.560,-0.403,-0.356,0.843,-0.052,0.807,-0.588,2479.73,0.112,-0.671,-0.224,-0.185,-0.091,0.979,0.434,0.267,0.860,10.870,5.756,-0.366,-0.504,0.798,0.376,0.471,10.239,-5.038,-5.282,-0.107,none
0.258281,0.578,-0.277,-0.767,2480.14,-0.560,-0.112,-1.119,-0.917,0.315,0.244,0.657,-0.447,-0.606,2473.28,0.000,-1.231,-0.560,-0.997,0.076,0.026,0.606,-0.179,-0.775,2490.77,-1.007,-0.671,-1.231,-0.404,-0.354,0.844,-0.052,0.810,-0.584,2481.15,-1.119,0.448,0.112,-0.198,-0.079,0.977,0.435,0.270,0.859,10.849,5.771,-0.366,-0.763,0.798,0.376,0.471,10.216,-5.053,-5.099,-0.214,none
0.280276,0.575,-0.278,-0.769,2474.37,0.448,-1.119,-0.224,-0.913,0.304,0.272,0.660,-0.450,-0.601,2478.98,0.224,-0.560,-0.783,-0.997,0.076,-0.001,0.605,-0.168,-0.778,2479.51,-0.783,0.112,-0.895,-0.403,-0.355,0.844,-0.048,0.806,-0.591,2470.37,-0.783,-0.783,-0.112,-0.198,-0.078,0.977,0.435,0.267,0.860,10.862,5.771,-0.244,-0.855,0.801,0.376,0.467,10.250,-5.160,-4.672,-0.427,none
0.303098,0.575,-0.278,-0.769,2474.37,0.783,-0.112,-0.336,-0.914,0.287,0.287,0.659,-0.443,-0.607,2452.83,0.112,-0.671,-0.783,-0.998,0.065,0.015,0.608,-0.173,-0.775,2468.00,0.560,-0.671,-0.224,-0.403,-0.354,0.844,-0.048,0.808,-0.588,2465.28,0.895,1.119,0.112,-0.196,-0.089,0.977,0.432,0.270,0.860,10.834,5.603,-0.076,-1.008,0.800,0.373,0.470,10.216,-5.130,-5.221,-0.611,none
0.328278,0.573,-0.275,-0.772,2465.86,-0.783,-0.448,-0.895,-0.916,0.309,0.255,0.658,-0.446,-0.606,2457.27,-0.783,-0.560,-0.560,-0.996,0.073,0.055,0.608,-0.173,-0.775,2468.00,-0.671,-0.112,-0.671,-0.401,-0.356,0.844,-0.052,0.810,-0.584,2467.79,0.000,-0.671,0.000,-0.186,-0.094,0.978,0.434,0.272,0.859,10.845,5.634,-0.305,-0.885,0.799,0.376,0.470,10.225,-5.221,-5.145,-0.702,none
0.349753,0.577,-0.271,-0.771,2469.16,-0.336,-0.448,-0.448,-0.922,0.289,0.258,0.660,-0.445,-0.605,2463.87,-0.112,-0.560,-0.448,-0.996,0.080,0.037,0.610,-0.173,-0.773,2459.49,-0.895,-0.112,-0.783,-0.403,-0.358,0.842,-0.052,0.810,-0.584,2481.15,-1.567,0.224,0.112,-0.198,-0.077,0.977,0.437,0.271,0.858,10.880,5.634,-0.321,-1.389,0.802,0.375,0.466,10.254,-5.359,-5.038,-1.160,none
0.370841,0.576,-0.266,-0.773,2474.19,-0.112,0.224,-0.336,-0.913,0.302,0.275,0.658,-0.440,-0.611,2470.94,-0.671,0.000,-0.336,-0.996,0.081,0.037,0.609,-0.168,-0.775,2480.14,-0.112,0.336,-0.224,-0.402,-0.357,0.843,-0.052,0.813,-0.580,2484.84,0.112,0.224,-0.224,-0.195,-0.087,0.977,0.435,0.271,0.859,10.850,5.481,0.336,-2.031,0.800,0.376,0.467,10.207,-5.786,-4.473,-1.557,none
0.392128,0.576,-0.274,-0.770,2470.84,0.448,0.671,0.224,-0.909,0.281,0.308,0.657,-0.447,-0.606,2473.28,0.224,0.783,0.224,-0.996,0.077,0.046,0.606,-0.172,-0.777,2475.76,0.448,0.336,0.560,-0.401,-0.357,0.844,-0.052,0.812,-0.581,2461.97,-0.112,0.112,-0.112,-0.200,-0.083,0.976,0.435,0.270,0.859,10.828,5.359,0.824,-2.107,0.798,0.376,0.471,10.246,-6.122,-4.092,-1.374,none
0.413781,0.576,-0.274,-0.770,2470.84,0.560,0.448,0.783,-0.905,0.323,0.275,0.656,-0.450,-0.605,2478.42,0.448,0.448,0.783,-0.995,0.081,0.066,0.607,-0.177,-0.775,2469.75,1.119,0.000,0.783,-0.402,-0.356,0.844,-0.052,0.807,-0.588,2479.73,0.783,-0.224,-0.224,-0.200,-0.084,0.976,0.432,0.270,0.860,10.814,5.374,0.458,-1.924,0.797,0.376,0.472,10.183,-5.832,-4.687,-1.298,none
0.435854,0.578,-0.275,-0.768,2463.15,0.112,0.112,0.224,-0.922,0.299,0.245,0.660,-0.445,-0.605,2463.87,-0.560,0.448,-0.112,-0.996,0.079,0.046,0.610,-0.176,-0.773,2475.84,0.560,0.783,0.448,-0.403,-0.355,0.844,-0.052,0.809,-0.585,2460.50,0.224,-0.671,-0.112,-0.191,-0.082,0.978,0.436,0.270,0.859,10.856,5.359,0.641,-1.908,0.799,0.377,0.469,10.250,-6.015,-4.382,-1.405,none
0.458712,0.576,-0.274,-0.770,2470.84,0.336,0.336,0.336,-0.908,0.310,0.281,0.659,-0.449,-0.604,2484.34,0.336,0.336,0.783,-0.998,0.066,-0.003,0.604,-0.179,-0.777,2484.72,1.343,0.000,0.671,-0.403,-0.356,0.843,-0.052,0.807,-0.588,2479.73,-0.112,-0.112,-0.112,-0.199,-0.082,0.977,0.434,0.271,0.859,10.855,5.511,0.260,-1.863,0.799,0.378,0.468,10.225,-5.664,-4.779,-1.542,none
0.480641,0.577,-0.271,-0.771,2469.16,0.112,0.560,-0.336,-0.915,0.292,0.278,0.659,-0.448,-0.604,2467.89,-0.448,0.560,-0.112,-0.998,0.065,0.015,0.608,-0.172,-0.775,2481.83,0.336,0.560,0.336,-0.403,-0.355,0.844,-0.052,0.812,-0.582,2475.90,0.000,0.000,0.000,-0.191,-0.082,0.978,0.436,0.269,0.859,10.877,5.420,0.748,-2.260,0.801,0.377,0.466,10.242,-6.046,-4.137,-1.725,none
0.502763,0.577,-0.271,-0.771,2469.16,0.560,0.448,0.895,-0.916,0.280,0.286,0.658,-0.444,-0.607,2469.27,-0.224,0.671,0.560,-0.997,0.070,0.016,0.606,-0.172,-0.777,2475.76,1.007,0.336,0.783,-0.403,-0.355,0.844,-0.052,0.809,-0.586,2473.05,0.336,0.336,-0.112,-0.201,-0.078,0.977,0.432,0.272,0.860,10.822,5.374,0.824,-2.336,0.799,0.377,0.468,10.230,-6.031,-4.046,-1.969,none
0.524493,0.573,-0.275,-0.772,2465.86,0.560,0.560,0.560,-0.912,0.312,0.267,0.659,-0.448,-0.604,2467.89,-0.112,1.007,0.448,-0.995,0.083,0.056,0.607,-0.177,-0.775,2469.75,1.902,0.783,0.783,-0.405,-0.355,0.843,-0.052,0.810,-0.584,2481.15,1.007,-0.336,-0.224,-0.194,-0.079,0.978,0.433,0.271,0.860,10.847,5.435,0.534,-2.779,0.798,0.377,0.469,10.213,-5.939,-4.046,-2.397,none
0.547641,0.579,-0.270,-0.769,2474.94,0.560,1.567,0.671,-0.914,0.323,0.243,0.659,-0.448,-0.604,2467.89,-0.112,1.567,0.224,-0.994,0.088,0.058,0.609,-0.180,-0.772,2477.62,1.007,1.119,0.895,-0.405,-0.351,0.844,-0.051,0.806,-0.589,2492.88,0.560,0.448,-0.224,-0.189,-0.089,0.978,0.430,0.270,0.861,10.854,5.695,-0.305,-2.595,0.797,0.378,0.471,10.190,-5.359,-4.382,-2.794,none
0.569170,0.575,-0.278,-0.769,2474.37,0.895,1.790,0.448,-0.909,0.325,0.263,0.658,-0.452,-0.603,2471.73,-0.112,1.679,-0.112,-0.999,0.043,-0.010,0.605,-0.184,-0.775,2481.10,1.119,1.455,0.671,-0.404,-0.354,0.843,-0.052,0.805,-0.590,2470.86,-0.112,0.000,0.112,-0.193,-0.082,0.978,0.434,0.271,0.859,10.839,5.710,-0.626,-1.878,0.797,0.379,0.471,10.222,-4.947,-5.298,-1.969,none
0.591334,0.581,-0.275,-0.766,2468.95,-0.671,0.448,-0.783,-0.919,0.291,0.267,0.662,-0.440,-0.607,2472.11,-1.455,0.671,-1.343,-0.997,0.083,-0.001,0.612,-0.180,-0.770,2482.95,-0.448,1.231,-0.224,-0.404,-0.354,0.844,-0.052,0.810,-0.584,2467.79,-1.119,0.112,0.224,-0.187,-0.083,0.979,0.436,0.273,0.858,10.826,5.695,-0.031,-1.527,0.798,0.379,0.468,10.212,-5.420,-4.824,-1.069,none
0.613002,0.581,-0.275,-0.766,2468.95,0.224,-0.336,-0.112,-0.910,0.306,0.279,0.662,-0.444,-0.603,2469.82,0.224,-0.336,0.000,-0.996,0.085,0.029,0.612,-0.180,-0.770,2482.95,-0.336,0.000,-0.224,-0.403,-0.354,0.844,-0.051,0.808,-0.586,2487.81,-0.224,0.000,0.112,-0.195,-0.073,0.978,0.435,0.273,0.858,10.855,5.756,-0.183,-1.313,0.798,0.379,0.468,10.235,-5.389,-4.824,-0.809,none
0.636085,0.576,-0.274,-0.770,2470.84,-0.336,0.000,-0.112,-0.913,0.305,0.271,0.660,-0.446,-0.605,2480.53,0.112,-0.112,0.112,-0.997,0.066,0.033,0.609,-0.180,-0.772,2477.62,-0.671,0.112,-0.224,-0.404,-0.355,0.843,-0.051,0.808,-0.586,2487.81,0.112,0.000,0.112,-0.189,-0.085,0.978,0.426,0.272,0.863,10.830,6.595,-0.412,-1.573,0.794,0.380,0.473,10.210,-4.962,-4.763,-1.313,none
0.658137,0.579,-0.274,-0.768,2476.62,-0.224,0.336,-0.224,-0.917,0.304,0.257,0.660,-0.450,-0.601,2478.98,-0.112,0.112,-0.560,-0.994,0.085,0.066,0.612,-0.181,-0.770,2469.13,-0.783,0.112,-0.560,-0.404,-0.354,0.843,-0.052,0.801,-0.597,2462.34,-3.133,0.224,1.231,-0.198,-0.079,0.977,0.439,0.273,0.856,10.852,6.519,-0.351,-0.992,0.796,0.380,0.471,10.213,-5.008,-5.069,-0.748,none
0.681975,0.580,-0.278,-0.766,2472.48,0.000,-0.336,-0.336,-0.919,0.298,0.259,0.659,-0.453,-0.600,2483.49,0.336,-0.560,-0.448,-0.997,0.070,0.026,0.607,-0.177,-0.775,2469.75,-1.007,-0.336,-0.783,-0.406,-0.355,0.842,-0.052,0.816,-0.575,2450.40,-2.014,0.336,0.224,-0.195,-0.081,0.977,0.433,0.271,0.860,10.844,5.542,0.244,-1.053,0.797,0.379,0.470,10.230,-5.725,-4.947,-0.336,none
0.704794,0.579,-0.272,-0.769,2461.46,-0.112,-0.895,-0.224,-0.910,0.308,0.276,0.661,-0.443,-0.606,2476.53,-0.224,-0.783,0.336,-0.995,0.083,0.047,0.605,-0.176,-0.776,2477.50,1.343,-0.671,0.000,-0.402,-0.355,0.844,-0.052,0.809,-0.585,2460.50,0.560,-0.336,0.000,-0.192,-0.077,0.978,0.433,0.273,0.859,10.865,5.344,0.962,-1.221,0.799,0.379,0.467,10.227,-6.168,-4.351,-0.153,none
0.727341,0.578,-0.275,-0.768,2463.15,0.112,-1.119,0.448,-0.915,0.313,0.254,0.658,-0.444,-0.607,2469.27,0.448,-0.671,0.895,-0.995,0.087,0.049,0.610,-0.176,-0.773,2475.84,1.343,-1.007,0.224,-0.404,-0.352,0.844,-0.051,0.808,-0.586,2487.81,0.336,-0.783,0.112,-0.199,-0.072,0.977,0.430,0.270,0.861,10.890,5.557,0.458,-0.962,0.799,0.377,0.468,10.228,-5.679,-4.641,-0.137,none
0.748598,0.574,-0.273,-0.772,2479.32,0.112,-0.895,0.224,-0.915,0.302,0.266,0.661,-0.447,-0.602,2473.83,0.112,-0.895,0.224,-0.997,0.076,0.008,0.612,-0.180,-0.770,2482.95,-0.224,-0.671,-0.560,-0.405,-0.354,0.843,-0.051,0.808,-0.587,2501.76,0.000,-0.224,0.224,-0.191,-0.082,0.978,0.434,0.272,0.859,10.850,5.832,-0.397,-0.824,0.798,0.378,0.469,10.196,-5.008,-5.023,-0.427,none
0.771208,0.576,-0.274,-0.770,2470.84,0.000,-0.448,-0.560,-0.913,0.294,0.281,0.659,-0.448,-0.604,2467.89,0.112,-0.671,-0.448,-0.996,0.074,0.045,0.609,-0.180,-0.772,2477.62,-1.231,-0.336,-0.895,-0.403,-0.354,0.844,-0.052,0.807,-0.588,2479.73,0.448,0.448,0.112,-0.190,-0.088,0.978,0.432,0.271,0.860,10.848,5.954,-0.992,-0.366,0.797,0.378,0.470,10.200,-4.550,-5.359,-0.076,none
0.793041,0.576,-0.274,-0.770,2470.84,-0.448,-0.783,-1.007,-0.914,0.297,0.275,0.661,-0.447,-0.602,2473.83,0.112,-1.007,-0.783,-0.997,0.071,0.035,0.609,-0.180,-0.772,2477.62,-1.902,-0.783,-1.790,-0.403,-0.353,0.845,-0.052,0.807,-0.588,2479.73,-0.112,0.336,0.336,-0.186,-0.093,0.978,0.432,0.269,0.861,10.831,6.153,-1.786,0.733,0.796,0.377,0.473,10.221,-3.939,-5.908,1.008,none
0.816144,0.578,-0.277,-0.767,2480.14,-1.343,-1.679,-1.567,-0.915,0.308,0.262,0.661,-0.447,-0.602,2473.83,0.112,-2.686,-1.790,-0.998,0.066,0.024,0.610,-0.176,-0.773,2475.84,-3.469,-1.455,-3.021,-0.403,-0.355,0.844,-0.052,0.807,-0.588,2479.73,0.448,0.336,0.112,-0.192,-0.082,0.978,0.437,0.274,0.857,10.843,6.382,-2.550,1.405,0.799,0.378,0.468,10.227,-3.496,-6.473,1.740,none
0.837848,0.578,-0.267,-0.771,2465.70,-1.790,-2.462,-2.462,-0.917,0.296,0.269,0.666,-0.430,-0.610,2459.07,0.671,-2.462,-2.462,-0.996,0.075,0.053,0.605,-0.180,-0.776,2528.10,0.560,1.455,-2.126,-0.402,-0.355,0.844,-0.051,0.810,-0.585,2495.09,-0.783,0.671,0.112,-0.185,-0.086,0.979,0.438,0.270,0.858,10.872,6.336,-1.908,0.824,0.802,0.377,0.464,10.270,-3.863,-5.649,1.008,none
0.861786,0.582,-0.253,-0.773,2447.82,-0.560,-1.455,-2.126,-0.921,0.277,0.275,0.658,-0.435,-0.615,2455.61,0.895,-1.119,-2.462,-0.997,0.071,-0.002,0.617,-0.162,-0.770,2446.10,-0.783,1.679,-1.007,-0.407,-0.351,0.843,-0.052,0.815,-0.577,2479.06,-0.112,2.014,0.112,-0.191,-0.086,0.978,0.439,0.272,0.856,10.859,6.183,-1.176,-0.015,0.800,0.381,0.464,10.248,-3.557,-3.878,-0.290,none
0.884046,0.578,-0.267,-0.771,2465.70,-0.336,-0.112,-1.902,-0.916,0.285,0.281,0.657,-0.442,-0.610,2458.26,1.679,-0.336,-0.560,-0.996,0.082,0.021,0.607,-0.165,-0.778,2471.79,0.000,1.231,-0.112,-0.407,-0.351,0.843,-0.051,0.826,-0.561,2493.99,-0.336,0.671,0.112,-0.199,-0.086,0.976,0.448,0.278,0.850,10.896,7.237,2.824,-1.298,0.800,0.385,0.460,10.260,-5.466,-2.397,-2.611,none
0.905443,0.579,-0.268,-0.770,2457.99,2.014,1.231,1.119,-0.914,0.308,0.265,0.664,-0.441,-0.604,2465.39,2.910,2.350,3.133,-0.993,0.104,0.051,0.613,-0.165,-0.773,2463.16,2.462,-0.112,3.469,-0.408,-0.349,0.844,-0.052,0.807,-0.588,2479.73,2.798,0.000,0.224,-0.187,-0.090,0.978,0.447,0.280,0.850,10.854,10.489,5.069,-3.954,0.799,0.388,0.460,10.258,-6.229,-1.618,-5.374,none
0.927975,0.583,-0.260,-0.770,2459.29,3.021,3.581,3.133,-0.915,0.315,0.251,0.666,-0.434,-0.607,2456.64,1.231,4.588,4.252,-0.996,0.060,0.071,0.618,-0.161,-0.770,2459.97,4.588,0.895,5.931,-0.408,-0.351,0.843,-0.051,0.801,-0.596,2497.50,2.798,0.560,0.671,-0.195,-0.078,0.978,0.434,0.271,0.859,10.827,11.618,6.626,-3.878,0.797,0.375,0.474,10.203,-6.244,-0.931,-5.191,none
0.948942,0.574,-0.289,-0.766,2482.12,4.476,3.917,3.581,-0.920,0.281,0.273,0.658,-0.452,-0.603,2471.73,2.126,3.917,4.141,-0.995,0.090,0.029,0.603,-0.188,-0.775,2468.99,6.267,0.112,4.588,-0.409,-0.348,0.844,-0.057,0.800,-0.598,2441.71,4.364,-1.567,-0.336,-0.194,-0.081,0.978,0.422,0.269,0.866,10.811,9.328,5.038,-1.939,0.799,0.370,0.474,10.254,-6.015,-1.710,-2.427,none
0.972688,0.571,-0.288,-0.769,2460.88,2.686,0.336,1.790,-0.914,0.289,0.284,0.652,-0.466,-0.597,2477.07,2.910,0.671,3.581,-0.994,0.099,0.042,0.605,-0.181,-0.776,2464.70,1.567,-2.910,3.469,-0.408,-0.349,0.844,-0.059,0.793,-0.606,2486.86,7.610,-3.021,-1.119,-0.188,-0.081,0.979,0.423,0.276,0.863,10.825,6.443,2.061,-1.206,0.796,0.375,0.476,10.201,-5.802,-3.710,-0.626,none
0.993317,0.578,-0.277,-0.767,2480.14,0.448,-0.895,0.336,-0.910,0.316,0.269,0.658,-0.452,-0.603,2471.73,1.231,-0.336,1.567,-0.996,0.078,0.047,0.609,-0.186,-0.771,2494.91,1.343,-1.007,0.224,-0.408,-0.347,0.844,-0.048,0.804,-0.593,2477.09,-0.112,0.895,0.671,-0.186,-0.086,0.979,0.426,0.276,0.861,10.820,5.664,0.458,-0.473,0.794,0.377,0.476,10.184,-5.405,-4.916,0.260,none
1.014797,0.577,-0.279,-0.767,2466.69,-0.560,-1.231,-0.560,-0.913,0.321,0.250,0.658,-0.452,-0.603,2471.73,-0.783,-1.790,-0.895,-0.995,0.087,0.049,0.607,-0.180,-0.774,2471.53,-1.007,-1.007,-1.343,-0.409,-0.347,0.844,-0.052,0.804,-0.593,2477.58,0.560,-1.455,0.112,-0.194,-0.072,0.978,0.431,0.278,0.858,10.804,5.771,-0.321,0.412,0.797,0.378,0.471,10.233,-5.023,-5.084,0.840,none
1.037725,0.577,-0.279,-0.767,2466.69,-0.895,-1.902,-1.007,-0.922,0.292,0.253,0.661,-0.449,-0.601,2461.20,-0.112,-2.350,-0.112,-0.996,0.072,0.045,0.604,-0.187,-0.774,2482.00,-0.448,-1.790,-1.567,-0.409,-0.345,0.845,-0.052,0.799,-0.599,2468.32,-0.224,0.224,0.224,-0.187,-0.085,0.979,0.433,0.276,0.858,10.837,5.573,0.137,0.748,0.799,0.379,0.467,10.228,-5.267,-5.450,1.313,none
1.059371,0.577,-0.271,-0.771,2469.16,-1.007,-2.238,-1.007,-0.917,0.304,0.257,0.659,-0.448,-0.604,2467.89,-0.448,-2.798,-0.336,-0.995,0.094,0.022,0.609,-0.180,-0.772,2477.62,-1.567,-1.790,-1.567,-0.408,-0.346,0.845,-0.052,0.807,-0.588,2479.73,0.560,-1.119,0.000,-0.189,-0.089,0.978,0.433,0.275,0.858,10.839,5.466,0.565,0.321,0.798,0.376,0.471,10.234,-5.634,-4.947,1.176,none
1.081908,0.573,-0.275,-0.772,2465.86,0.000,-2.462,-0.224,-0.906,0.309,0.291,0.655,-0.453,-0.604,2482.94,0.448,-2.574,0.448,-0.994,0.093,0.059,0.605,-0.180,-0.776,2479.28,-0.560,-2.014,-1.231,-0.411,-0.343,0.844,-0.052,0.799,-0.599,2468.32,1.679,-0.895,-0.560,-0.198,-0.078,0.977,0.433,0.274,0.859,10.855,5.527,0.107,1.237,0.794,0.377,0.477,10.216,-4.916,-6.382,1.191,none
1.103466,0.574,-0.277,-0.771,2481.30,-1.902,-2.798,-2.014,-0.913,0.309,0.266,0.658,-0.452,-0.603,2471.73,-0.783,-2.798,-0.783,-0.996,0.072,0.045,0.601,-0.192,-0.776,2478.64,-2.238,-1.455,-2.574,-0.409,-0.342,0.846,-0.052,0.804,-0.592,2462.82,-0.783,-1.231,0.000,-0.177,-0.098,0.979,0.433,0.274,0.859,10.858,5.359,0.275,2.153,0.798,0.378,0.470,10.211,-4.504,-6.885,1.832,none
1.128385,0.573,-0.275,-0.772,2465.86,-1.902,-3.469,-2.686,-0.911,0.322,0.258,0.657,-0.447,-0.606,2473.28,-0.783,-4.141,-1.343,-0.994,0.080,0.075,0.607,-0.177,-0.775,2469.75,-3.245,-2.798,-3.021,-0.410,-0.342,0.846,-0.052,0.805,-0.591,2484.82,-0.336,-1.902,-0.112,-0.179,-0.098,0.979,0.433,0.276,0.858,10.863,5.374,0.550,1.771,0.800,0.379,0.465,10.256,-4.855,-5.695,1.878,none
1.155037,0.575,-0.268,-0.773,2460.71,-0.560,-2.910,-1.343,-0.911,0.297,0.285,0.655,-0.448,-0.608,2466.72,-0.224,-3.357,-0.783,-0.997,0.071,0.035,0.609,-0.165,-0.776,2464.02,-3.693,-2.798,-2.014,-0.410,-0.341,0.846,-0.051,0.808,-0.587,2501.76,0.560,-0.895,-0.224,-0.188,-0.088,0.978,0.432,0.274,0.859,10.827,5.603,0.443,0.244,0.799,0.379,0.468,10.247,-5.298,-4.244,-0.092,none
1.171183,0.573,-0.267,-0.775,2467.68,0.112,-1.455,-0.336,-0.911,0.298,0.286,0.654,-0.451,-0.607,2471.87,1.567,-1.231,0.224,-0.997,0.058,0.051,0.599,-0.179,-0.780,2487.27,0.783,-2.014,-0.895,-0.411,-0.341,0.845,-0.052,0.804,-0.593,2477.58,2.574,-0.336,-1.119,-0.177,-0.090,0.980,0.432,0.275,0.859,10.842,5.695,-0.122,0.046,0.798,0.376,0.471,10.208,-4.992,-4.183,-0.427,none
1.195581,0.572,-0.274,-0.773,2472.82,0.448,-0.448,-0.336,-0.911,0.306,0.276,0.654,-0.451,-0.607,2471.87,1.119,-0.895,0.000,-0.995,0.079,0.055,0.605,-0.180,-0.776,2479.28,0.000,-1.679,-1.231,-0.410,-0.342,0.845,-0.051,0.801,-0.596,2497.50,1.679,0.000,-0.224,-0.192,-0.090,0.977,0.433,0.274,0.859,10.859,5.878,-0.809,-0.183,0.799,0.377,0.469,10.242,-4.687,-4.397,-0.489,none
1.215235,0.574,-0.272,-0.772,2462.63,0.336,-0.783,-0.560,-0.914,0.289,0.284,0.654,-0.451,-0.607,2471.87,2.462,-0.895,-0.336,-0.994,0.086,0.067,0.601,-0.176,-0.779,2477.69,-1.231,-1.455,-1.679,-0.409,-0.340,0.847,-0.051,0.803,-0.594,2490.75,1.455,1.343,-0.112,-0.177,-0.098,0.979,0.433,0.273,0.859,10.867,6.137,-1.221,-0.443,0.799,0.376,0.470,10.239,-4.443,-4.168,-0.580,none
1.238393,0.572,-0.271,-0.774,2471.14,0.448,-0.671,-0.783,-0.918,0.296,0.265,0.654,-0.451,-0.607,2471.87,3.021,-0.448,-0.448,-0.990,0.105,0.089,0.606,-0.172,-0.777,2475.76,-1.007,-1.119,-1.455,-0.409,-0.340,0.847,-0.052,0.799,-0.599,2468.32,2.798,1.119,-0.224,-0.179,-0.094,0.979,0.435,0.274,0.858,10.843,6.107,-1.527,0.626,0.797,0.377,0.471,10.223,-4.031,-5.191,0.366,none
1.261228,0.575,-0.270,-0.772,2476.10,-0.112,-0.895,-1.567,-0.914,0.302,0.270,0.654,-0.451,-0.607,2471.87,1.119,-1.567,-1.567,-0.998,0.065,0.025,0.609,-0.177,-0.773,2461.24,-1.119,-0.783,-2.686,-0.409,-0.341,0.846,-0.052,0.804,-0.593,2477.58,0.783,-0.224,-0.112,-0.170,-0.107,0.980,0.435,0.274,0.858,10.835,5.802,-1.023,1.878,0.799,0.376,0.470,10.223,-3.847,-4.626,0.473,none
1.283057,0.574,-0.272,-0.772,2462.63,1.007,-1.455,-1.679,-0.908,0.310,0.281,0.656,-0.458,-0.600,2481.48,2.574,-1.567,-1.119,-0.996,0.082,0.048,0.600,-0.178,-0.780,2500.28,1.343,-1.567,-1.567,-0.410,-0.340,0.846,-0.048,0.797,-0.602,2474.63,0.560,0.895,-0.671,-0.175,-0.101,0.979,0.434,0.274,0.858,10.833,6.229,-1.130,1.893,0.799,0.375,0.469,10.228,-3.557,-4.870,1.176,none
1.309034,0.575,-0.268,-0.773,2460.71,1.119,-1.343,-2.910,-0.916,0.287,0.279,0.658,-0.452,-0.603,2471.73,2.574,-1.455,-1.679,-0.993,0.090,0.077,0.612,-0.177,-0.771,2467.35,0.671,-1.231,-1.231,-0.411,-0.335,0.848,-0.052,0.805,-0.591,2484.82,3.133,-0.783,-1.455,-0.173,-0.094,0.980,0.437,0.271,0.857,10.884,7.282,-0.656,2.397,0.800,0.376,0.468,10.224,-3.221,-4.962,1.725,none
1.327702,0.569,-0.275,-0.775,2467.11,1.119,-1.567,-3.357,-0.916,0.304,0.261,0.653,-0.455,-0.606,2476.40,2.238,-1.679,-1.902,-0.994,0.076,0.074,0.599,-0.173,-0.782,2469.17,0.783,-1.119,-1.455,-0.413,-0.331,0.848,-0.056,0.803,-0.593,2478.12,0.448,0.895,-1.343,-0.162,-0.105,0.981,0.433,0.272,0.859,10.828,7.618,0.519,3.221,0.797,0.374,0.474,10.168,-2.916,-4.718,1.008,none
1.351600,0.572,-0.274,-0.773,2472.82,1.231,-1.119,-2.686,-0.911,0.299,0.284,0.653,-0.455,-0.606,2476.40,1.343,-1.679,-2.126,-0.996,0.077,0.046,0.592,-0.180,-0.786,2482.40,1.231,-0.671,-2.126,-0.415,-0.332,0.847,-0.052,0.799,-0.599,2468.32,-0.783,0.448,-1.119,-0.166,-0.113,0.980,0.437,0.273,0.857,10.843,6.702,-1.664,4.015,0.799,0.377,0.469,10.234,-2.534,-5.786,1.603,none
1.374175,0.573,-0.267,-0.775,2467.68,-1.343,-2.798,-3.693,-0.904,0.289,0.314,0.656,-0.445,-0.609,2462.69,0.895,-2.798,-2.910,-0.995,0.074,0.064,0.604,-0.165,-0.780,2466.51,-1.119,-1.007,-2.686,-0.416,-0.328,0.848,-0.052,0.807,-0.588,2479.73,-1.455,-0.224,-0.671,-0.168,-0.102,0.980,0.441,0.275,0.855,10.864,6.656,-0.565,2.290,0.802,0.378,0.462,10.211,-3.206,-5.679,1.725,none
1.396695,0.569,-0.269,-0.777,2485.88,0.560,-1.679,-3.245,-0.917,0.293,0.270,0.657,-0.449,-0.605,2461.31,1.679,-1.567,-1.790,-0.994,0.076,0.074,0.602,-0.168,-0.780,2474.25,-0.895,-0.671,-1.231,-0.419,-0.321,0.849,-0.051,0.810,-0.585,2495.09,-1.343,0.895,-0.448,-0.168,-0.108,0.980,0.439,0.275,0.855,10.815,6.733,-0.519,0.366,0.802,0.377,0.463,10.255,-4.153,-4.321,1.573,none
1.419546,0.573,-0.267,-0.775,2467.68,1.119,-0.448,-2.350,-0.910,0.289,0.298,0.651,-0.454,-0.608,2482.47,2.350,-0.224,-0.112,-0.994,0.081,0.075,0.600,-0.172,-0.781,2483.76,1.231,-0.448,0.448,-0.420,-0.320,0.849,-0.052,0.805,-0.590,2470.86,2.126,0.671,-0.783,-0.164,-0.111,0.980,0.438,0.267,0.858,10.824,6.611,-0.916,0.198,0.801,0.372,0.469,10.194,-4.260,-4.107,0.656,none
1.441734,0.566,-0.275,-0.777,2462.21,0.783,-0.224,-1.567,-0.918,0.265,0.295,0.647,-0.454,-0.612,2482.08,1.902,-0.112,-0.224,-0.993,0.073,0.093,0.597,-0.172,-0.783,2476.99,1.231,-0.336,-0.112,-0.422,-0.321,0.848,-0.059,0.794,-0.606,2473.66,3.693,-1.231,-1.455,-0.168,-0.108,0.980,0.438,0.271,0.857,10.840,6.779,0.977,1.725,0.802,0.374,0.466,10.219,-3.710,-5.405,-0.397,none
1.464621,0.568,-0.271,-0.778,2473.20,-0.336,-0.671,-2.014,-0.914,0.293,0.281,0.650,-0.456,-0.607,2469.23,0.112,-1.231,-1.679,-0.994,0.077,0.083,0.600,-0.168,-0.782,2482.06,-1.007,-0.560,-2.014,-0.422,-0.314,0.850,-0.052,0.800,-0.597,2475.52,0.448,-0.448,-0.783,-0.163,-0.109,0.981,0.440,0.274,0.855,10.838,7.237,1.893,0.763,0.803,0.377,0.461,10.232,-4.244,-5.160,-0.183,none
1.488166,0.570,-0.268,-0.777,2461.96,-0.336,-1.343,-1.231,-0.917,0.284,0.281,0.651,-0.454,-0.608,2482.47,1.007,-1.007,-1.007,-0.995,0.066,0.072,0.601,-0.169,-0.781,2461.99,-0.560,-0.560,-1.231,-0.421,-0.316,0.850,-0.052,0.809,-0.586,2473.05,-0.448,0.448,-0.224,-0.164,-0.102,0.981,0.439,0.272,0.856,10.852,6.168,0.443,-0.244,0.804,0.376,0.461,10.249,-5.053,-4.672,0.305,none
1.510515,0.573,-0.267,-0.775,2467.68,1.119,-0.895,-0.560,-0.915,0.292,0.278,0.654,-0.451,-0.607,2471.87,1.455,-0.560,-0.112,-0.994,0.072,0.082,0.602,-0.168,-0.780,2474.25,-0.560,-0.895,-0.448,-0.424,-0.314,0.849,-0.051,0.803,-0.594,2490.75,1.790,-0.336,-0.560,-0.144,-0.118,0.983,0.439,0.271,0.857,10.853,5.939,-0.092,-0.687,0.802,0.374,0.465,10.229,-5.115,-4.382,0.061,none
1.531942,0.568,-0.271,-0.778,2473.20,0.560,-0.336,-0.671,-0.913,0.269,0.306,0.653,-0.450,-0.609,2477.95,1.119,-0.448,0.224,-0.993,0.078,0.093,0.599,-0.175,-0.781,2485.49,1.007,-0.783,0.000,-0.423,-0.312,0.851,-0.052,0.802,-0.595,2469.56,0.895,0.000,-0.224,-0.166,-0.106,0.980,0.440,0.269,0.857,10.850,5.924,0.137,-0.382,0.803,0.374,0.465,10.220,-5.160,-4.489,0.168,none
1.553827,0.569,-0.269,-0.777,2485.88,0.783,-0.783,-0.671,-0.918,0.296,0.264,0.653,-0.455,-0.606,2476.40,1.007,-0.895,-0.112,-0.989,0.082,0.122,0.598,-0.175,-0.782,2493.31,0.448,-1.343,-0.783,-0.424,-0.310,0.851,-0.051,0.797,-0.602,2486.92,1.119,-0.224,-0.560,-0.155,-0.109,0.982,0.440,0.271,0.856,10.858,5.740,0.580,0.550,0.802,0.376,0.465,10.236,-4.931,-4.855,0.366,none
1.574649,0.570,-0.270,-0.776,2478.89,0.000,-1.231,-0.895,-0.912,0.291,0.291,0.654,-0.451,-0.607,2471.87,1.007,-0.895,-0.560,-0.991,0.084,0.103,0.602,-0.175,-0.779,2490.72,-0.448,-1.119,-0.783,-0.425,-0.310,0.850,-0.052,0.797,-0.602,2475.12,0.224,-0.448,-0.448,-0.154,-0.109,0.982,0.439,0.273,0.856,10.878,5.908,0.198,0.611,0.803,0.376,0.463,10.242,-4.794,-4.763,0.992,none
1.608175,0.571,-0.266,-0.776,2475.43,0.336,-1.119,-1.567,-0.911,0.284,0.298,0.656,-0.453,-0.604,2465.16,0.671,-0.895,-0.448,-0.992,0.087,0.095,0.600,-0.172,-0.781,2483.76,-0.448,-1.007,-0.336,-0.424,-0.312,0.850,-0.052,0.798,-0.600,2480.71,0.112,0.224,-0.448,-0.153,-0.114,0.982,0.441,0.271,0.856,10.870,6.015,-0.137,1.282,0.803,0.371,0.466,10.208,-4.412,-4.321,1.252,none
1.619590,0.572,-0.274,-0.773,2472.82,0.336,-0.895,-1.679,-0.916,0.272,0.294,0.656,-0.457,-0.601,2464.34,0.783,-1.343,-1.119,-0.996,0.073,0.055,0.599,-0.175,-0.781,2485.49,-0.448,-0.560,-0.895,-0.426,-0.307,0.851,-0.052,0.800,-0.597,2475.52,0.336,-0.671,-0.560,-0.149,-0.119,0.982,0.440,0.271,0.856,10.850,6.137,-0.519,2.061,0.804,0.371,0.465,10.249,-3.725,-4.427,1.756,none
1.642442,0.568,-0.267,-0.778,2469.73,0.560,-1.567,-2.462,-0.904,0.297,0.307,0.651,-0.454,-0.608,2482.47,0.336,-1.902,-1.902,-0.998,0.048,0.038,0.601,-0.169,-0.781,2461.99,-1.119,-0.671,-1.231,-0.427,-0.305,0.851,-0.052,0.802,-0.595,2469.56,-0.448,-0.224,-0.336,-0.153,-0.116,0.981,0.442,0.272,0.855,10.836,6.183,-0.733,1.710,0.804,0.375,0.461,10.225,-3.924,-4.427,2.015,none
1.663499,0.573,-0.263,-0.776,2465.80,0.112,-1.679,-2.462,-0.918,0.263,0.298,0.654,-0.451,-0.607,2471.87,0.671,-1.343,-1.231,-0.994,0.075,0.083,0.596,-0.168,-0.785,2483.13,-1.455,-0.671,-0.671,-0.429,-0.302,0.851,-0.052,0.804,-0.593,2477.58,-1.231,-0.224,-0.112,-0.159,-0.114,0.981,0.442,0.271,0.855,10.857,6.107,-0.733,1.069,0.804,0.373,0.463,10.233,-4.168,-4.198,2.076,none
1.684342,0.570,-0.270,-0.776,2478.89,1.007,-1.007,-2.014,-0.913,0.278,0.300,0.656,-0.453,-0.604,2465.16,1.231,-1.007,-0.560,-0.993,0.077,0.094,0.598,-0.164,-0.784,2474.58,-0.448,-0.783,0.112,-0.430,-0.299,0.852,-0.052,0.802,-0.595,2469.56,0.224,-0.224,-0.671,-0.154,-0.118,0.981,0.443,0.269,0.855,10.836,5.847,0.229,1.069,0.806,0.371,0.461,10.242,-3.695,-6.305,4.015,none
1.706928,0.572,-0.238,-0.785,2437.05,-1.679,-2.686,-2.686,-0.912,0.295,0.286,0.652,-0.458,-0.605,2480.31,0.895,-1.679,-0.783,-0.991,0.083,0.104,0.602,-0.172,-0.780,2475.95,-0.448,-1.231,-0.112,-0.432,-0.297,0.852,-0.051,0.801,-0.596,2497.50,-0.224,-0.895,-0.560,-0.160,-0.106,0.981,0.444,0.269,0.855,10.851,6.015,-0.153,0.931,0.802,0.375,0.465,10.217,-4.198,-4.336,2.092,none
1.729773,0.570,-0.259,-0.780,2465.25,0.560,-0.895,-1.679,-0.914,0.287,0.287,0.651,-0.448,-0.612,2466.94,0.895,-0.895,-0.224,-0.995,0.082,0.057,0.594,-0.170,-0.786,2506.49,0.783,-1.007,0.448,-0.434,-0.295,0.851,-0.056,0.802,-0.595,2484.06,0.112,-0.671,-0.671,-0.149,-0.114,0.982,0.443,0.268,0.856,10.839,5.954,-0.107,1.099,0.806,0.369,0.463,10.222,-4.427,-4.840,1.725,none
1.752107,0.566,-0.270,-0.779,2480.20,0.336,-1.679,-1.343,-0.906,0.260,0.335,0.650,-0.452,-0.611,2470.79,0.895,-1.343,-0.336,-0.995,0.074,0.065,0.596,-0.168,-0.785,2483.13,-0.895,-1.455,-0.560,-0.434,-0.297,0.851,-0.056,0.802,-0.595,2470.09,-0.783,-0.783,-0.560,-0.158,-0.107,0.982,0.445,0.270,0.854,10.829,5.756,0.351,1.221,0.806,0.367,0.465,10.219,-4.931,-5.298,1.405,none
1.774574,0.566,-0.267,-0.780,2464.84,-0.224,-2.014,-1.119,-0.901,0.306,0.307,0.646,-0.452,-0.615,2471.09,0.112,-1.790,-0.671,-0.993,0.075,0.093,0.599,-0.161,-0.785,2472.17,-1.343,-1.455,-1.231,-0.432,-0.292,0.853,-0.052,0.804,-0.593,2477.58,-0.671,-1.119,-0.224,-0.159,-0.113,0.981,0.446,0.267,0.854,10.854,5.588,0.595,1.008,0.804,0.371,0.464,10.254,-5.298,-5.206,0.870,none
1.799628,0.566,-0.267,-0.780,2464.84,-0.560,-2.014,-1.007,-0.913,0.285,0.292,0.652,-0.453,-0.609,2464.69,0.224,-1.567,-0.448,-0.991,0.070,0.110,0.596,-0.168,-0.785,2483.13,-1.343,-1.455,-1.231,-0.435,-0.291,0.852,-0.056,0.803,-0.593,2478.12,-0.783,-0.783,-0.224,-0.151,-0.118,0.981,0.445,0.269,0.854,10.847,5.511,0.809,-0.427,0.806,0.367,0.464,10.260,-5.908,-4.550,0.489,none
1.819360,0.569,-0.263,-0.779,2467.86,-0.112,-1.679,-0.336,-0.918,0.255,0.303,0.650,-0.452,-0.611,2470.79,0.783,-1.231,0.560,-0.992,0.084,0.094,0.594,-0.164,-0.788,2476.48,-0.560,-1.902,-0.336,-0.436,-0.290,0.852,-0.052,0.802,-0.596,2483.53,0.224,-0.783,-0.224,-0.148,-0.121,0.982,0.443,0.267,0.856,10.866,5.405,0.824,-1.145,0.806,0.367,0.464,10.258,-6.183,-4.351,0.153,none
1.842456,0.568,-0.265,-0.779,2453.61,0.000,-0.895,0.336,-0.917,0.265,0.299,0.650,-0.452,-0.611,2470.79,0.560,-0.671,0.560,-0.993,0.087,0.085,0.598,-0.164,-0.784,2474.58,-0.224,-1.231,0.000,-0.435,-0.291,0.852,-0.052,0.802,-0.596,2483.53,0.671,-0.671,-0.224,-0.152,-0.120,0.981,0.442,0.269,0.856,10.858,5.405,0.611,-1.267,0.806,0.367,0.464,10.217,-5.908,-4.595,-0.229,none
1.864521,0.566,-0.267,-0.780,2464.84,0.671,-0.448,0.112,-0.907,0.268,0.323,0.649,-0.455,-0.610,2475.32,-0.112,-0.336,0.112,-0.996,0.064,0.063,0.595,-0.168,-0.786,2469.32,-0.112,-0.448,-0.112,-0.434,-0.291,0.852,-0.052,0.800,-0.597,2475.52,0.448,-0.671,-0.112,-0.150,-0.116,0.982,0.444,0.267,0.856,10.844,5.450,0.427,-1.023,0.806,0.367,0.464,10.240,-5.908,-4.641,-0.122,none
1.889539,0.566,-0.267,-0.780,2464.84,0.224,-0.895,-0.112,-0.909,0.287,0.301,0.652,-0.453,-0.609,2464.69,0.224,-0.560,0.224,-0.989,0.076,0.130,0.595,-0.168,-0.786,2469.32,-0.112,-0.671,0.000,-0.434,-0.292,0.853,-0.055,0.799,-0.598,2489.23,0.000,-0.336,-0.112,-0.146,-0.122,0.982,0.445,0.267,0.855,10.839,5.389,0.550,-0.916,0.806,0.367,0.465,10.227,-5.817,-5.023,0.000,none
1.910122,0.568,-0.267,-0.778,2469.73,-0.336,-0.895,-0.336,-0.918,0.272,0.288,0.650,-0.452,-0.611,2470.79,-0.560,-0.895,0.112,-0.995,0.081,0.064,0.598,-0.164,-0.784,2474.58,-0.895,-0.671,-0.224,-0.435,-0.291,0.852,-0.056,0.802,-0.595,2484.06,-0.560,-1.119,0.000,-0.154,-0.120,0.981,0.443,0.268,0.856,10.825,5.420,0.855,-1.160,0.806,0.366,0.466,10.250,-6.000,-4.565,-0.305,none
1.932549,0.564,-0.267,-0.782,2471.87,0.112,-0.448,0.336,-0.908,0.291,0.301,0.650,-0.452,-0.611,2470.79,0.448,-0.560,0.448,-0.989,0.082,0.122,0.591,-0.165,-0.789,2470.36,0.448,-0.783,0.336,-0.434,-0.291,0.852,-0.056,0.800,-0.597,2476.05,0.336,-0.448,-0.112,-0.144,-0.121,0.982,0.442,0.267,0.856,10.867,5.435,0.672,-1.511,0.806,0.368,0.464,10.225,-6.031,-4.458,-0.580,none
1.954730,0.564,-0.263,-0.783,2470.01,0.448,-0.224,0.448,-0.913,0.261,0.312,0.649,-0.450,-0.614,2477.56,0.560,-0.112,0.448,-0.993,0.068,0.100,0.597,-0.160,-0.786,2480.02,0.448,-0.560,0.448,-0.433,-0.291,0.853,-0.055,0.799,-0.598,2489.23,0.560,-0.671,0.000,-0.142,-0.121,0.982,0.443,0.267,0.856,10.844,5.450,0.473,-1.649,0.806,0.366,0.466,10.218,-5.863,-4.443,-0.763,none
1.977637,0.564,-0.267,-0.782,2471.87,0.336,-0.336,0.336,-0.910,0.278,0.307,0.650,-0.452,-0.611,2470.79,0.448,-0.224,0.448,-0.989,0.087,0.123,0.593,-0.168,-0.787,2477.19,0.336,-0.112,0.112,-0.435,-0.291,0.852,-0.056,0.799,-0.599,2468.86,0.448,-0.224,0.000,-0.147,-0.115,0.982,0.442,0.267,0.856,10.850,5.588,0.061,-1.176,0.806,0.366,0.466,10.221,-5.496,-4.947,-0.504,none
2.000820,0.567,-0.262,-0.781,2474.88,-0.336,-0.336,-0.224,-0.913,0.294,0.282,0.650,-0.452,-0.611,2470.79,0.000,-0.336,0.000,-0.992,0.084,0.094,0.598,-0.168,-0.784,2475.29,-0.224,-0.448,-0.336,-0.434,-0.291,0.852,-0.052,0.800,-0.597,2475.52,-0.560,-0.336,0.112,-0.146,-0.120,0.982,0.443,0.267,0.856,10.851,5.527,0.122,-1.038,0.807,0.365,0.464,10.225,-5.527,-5.038,-0.107,none
2.021758,0.564,-0.263,-0.783,2470.01,-0.336,-1.007,-0.336,-0.911,0.281,0.302,0.648,-0.453,-0.613,2464.30,-0.224,-0.671,-0.112,-0.993,0.060,0.098,0.595,-0.165,-0.786,2468.61,-0.560,-0.671,-0.560,-0.431,-0.291,0.854,-0.056,0.803,-0.593,2478.12,-0.448,0.000,0.112,-0.148,-0.124,0.981,0.444,0.268,0.855,10.840,5.527,0.198,-1.221,0.807,0.366,0.464,10.250,-5.649,-4.901,-0.382,none
2.044078,0.567,-0.260,-0.782,2458.79,-0.224,0.000,-0.224,-0.905,0.278,0.322,0.648,-0.453,-0.613,2464.30,0.112,-0.112,0.000,-0.993,0.064,0.099,0.594,-0.164,-0.788,2476.48,-0.336,-0.448,0.000,-0.433,-0.291,0.853,-0.056,0.803,-0.593,2478.12,0.224,-0.560,-0.224,-0.149,-0.116,0.982,0.443,0.269,0.855,10.868,5.527,0.458,-1.450,0.807,0.365,0.465,10.233,-5.786,-4.718,-0.443,none
2.067042,0.564,-0.267,-0.782,2471.87,-0.336,-0.448,0.000,-0.914,0.271,0.301,0.650,-0.452,-0.611,2470.79,0.000,-0.112,0.336,-0.993,0.075,0.093,0.594,-0.164,-0.788,2476.48,0.000,-0.671,0.112,-0.434,-0.291,0.853,-0.051,0.801,-0.596,2497.50,0.560,0.000,-0.224,-0.149,-0.119,0.982,0.443,0.267,0.856,10.830,5.603,0.305,-1.634,0.807,0.366,0.464,10.216,-5.634,-4.718,-1.008,none
2.090408,0.564,-0.267,-0.782,2471.87,0.336,0.336,0.112,-0.912,0.283,0.296,0.650,-0.452,-0.611,2470.79,-0.224,0.112,0.112,-0.994,0.064,0.090,0.594,-0.164,-0.788,2476.48,0.336,0.448,0.448,-0.434,-0.291,0.853,-0.052,0.800,-0.597,2475.52,0.783,-0.336,-0.112,-0.139,-0.131,0.982,0.442,0.266,0.856,10.847,5.603,0.351,-1.756,0.807,0.365,0.465,10.245,-5.695,-4.534,-1.084,none
2.112312,0.564,-0.267,-0.782,2471.87,0.336,0.000,0.336,-0.913,0.278,0.300,0.649,-0.455,-0.610,2475.32,0.224,0.000,0.224,-0.989,0.089,0.115,0.594,-0.164,-0.788,2476.48,0.448,0.000,0.112,-0.434,-0.290,0.853,-0.052,0.798,-0.600,2480.71,0.224,0.224,0.000,-0.150,-0.113,0.982,0.442,0.267,0.856,10.849,5.557,0.244,-1.527,0.808,0.365,0.463,10.243,-5.664,-4.794,-0.824,none
2.136334,0.563,-0.262,-0.784,2477.05,0.000,-0.224,0.000,-0.913,0.272,0.305,0.648,-0.453,-0.613,2464.30,0.112,-0.112,0.224,-0.991,0.067,0.118,0.594,-0.164,-0.788,2476.48,-0.112,-0.336,0.112,-0.434,-0.288,0.854,-0.056,0.802,-0.595,2484.06,0.000,-0.112,-0.112,-0.146,-0.122,0.982,0.444,0.268,0.855,10.827,5.496,0.336,-1.664,0.807,0.364,0.464,10.221,-5.679,-4.580,-0.931,none
2.160594,0.564,-0.267,-0.782,2471.87,0.448,0.112,0.112,-0.913,0.296,0.280,0.649,-0.455,-0.610,2475.32,0.336,0.224,0.224,-0.992,0.083,0.095,0.595,-0.165,-0.786,2468.61,-0.112,0.000,0.336,-0.434,-0.291,0.853,-0.056,0.800,-0.597,2476.05,-0.112,0.224,0.112,-0.153,-0.115,0.982,0.442,0.267,0.856,10.868,5.481,0.611,-1.878,0.807,0.364,0.465,10.232,-5.878,-4.336,-1.038,none
2.182369,0.564,-0.267,-0.782,2471.87,0.448,0.336,0.671,-0.909,0.287,0.301,0.653,-0.455,-0.606,2476.40,0.448,0.336,0.336,-0.990,0.085,0.114,0.595,-0.165,-0.786,2468.61,0.560,-0.112,0.448,-0.434,-0.291,0.852,-0.056,0.800,-0.597,2476.05,0.336,0.000,-0.112,-0.154,-0.109,0.982,0.442,0.267,0.856,10.832,5.481,0.336,-1.756,0.808,0.365,0.462,10.213,-5.802,-4.534,-1.038,none
2.204405,0.566,-0.267,-0.780,2464.84,0.112,0.224,0.336,-0.911,0.276,0.307,0.652,-0.453,-0.609,2464.69,0.112,0.000,0.336,-0.992,0.075,0.101,0.594,-0.164,-0.788,2476.48,0.000,0.000,0.000,-0.433,-0.290,0.853,-0.056,0.798,-0.600,2481.24,0.336,0.000,0.000,-0.147,-0.122,0.982,0.442,0.268,0.856,10.857,5.557,0.229,-1.679,0.807,0.366,0.465,10.224,-5.695,-4.672,-0.992,none
2.226065,0.568,-0.267,-0.778,2469.73,0.560,0.336,0.224,-0.913,0.274,0.303,0.650,-0.452,-0.611,2470.79,0.112,0.336,0.224,-0.987,0.092,0.134,0.593,-0.168,-0.787,2477.19,0.112,0.112,0.112,-0.431,-0.294,0.853,-0.052,0.800,-0.597,2475.52,0.112,0.224,-0.112,-0.145,-0.117,0.983,0.443,0.268,0.855,10.834,5.481,0.382,-1.802,0.807,0.365,0.464,10.246,-5.878,-4.473,-0.901,none
2.248801,0.575,-0.262,-0.775,2441.15,0.112,-0.112,0.336,-0.913,0.289,0.287,0.647,-0.454,-0.612,2482.08,0.671,0.336,0.560,-0.992,0.063,0.109,0.591,-0.168,-0.789,2472.65,0.000,-0.112,0.336,-0.434,-0.291,0.853,-0.052,0.798,-0.600,2480.71,0.560,0.224,-0.224,-0.138,-0.130,0.982,0.443,0.269,0.855,10.862,5.618,0.580,-1.786,0.806,0.365,0.466,10.250,-5.084,-3.145,-1.664,none
2.271648,0.566,-0.264,-0.781,2461.41,0.000,0.671,0.112,-0.916,0.278,0.290,0.649,-0.455,-0.610,2475.32,0.224,0.560,0.224,-0.993,0.059,0.098,0.594,-0.164,-0.788,2476.48,-0.112,-0.112,0.336,-0.435,-0.290,0.852,-0.056,0.799,-0.599,2468.86,0.895,0.560,-0.112,-0.149,-0.123,0.981,0.441,0.269,0.857,10.864,5.542,0.504,-1.649,0.807,0.364,0.465,10.260,-5.481,-4.351,-1.176,none
2.292452,0.564,-0.263,-0.783,2470.01,0.336,0.336,0.112,-0.909,0.283,0.306,0.649,-0.450,-0.614,2477.56,0.336,0.560,0.224,-0.993,0.073,0.093,0.593,-0.168,-0.787,2477.19,0.000,0.112,0.336,-0.434,-0.293,0.852,-0.056,0.802,-0.595,2484.06,0.224,0.336,0.000,-0.154,-0.117,0.981,0.441,0.269,0.856,10.856,5.603,0.580,-1.878,0.807,0.366,0.464,10.230,-5.527,-4.443,-1.450,none
2.313677,0.566,-0.267,-0.780,2464.84,0.671,0.560,0.224,-0.916,0.276,0.291,0.648,-0.453,-0.613,2464.30,0.224,0.671,0.112,-0.993,0.074,0.093,0.594,-0.164,-0.788,2476.48,0.000,0.224,0.671,-0.434,-0.289,0.854,-0.052,0.800,-0.597,2475.52,0.448,0.448,-0.112,-0.142,-0.118,0.983,0.442,0.267,0.856,10.861,5.527,0.931,-2.000,0.806,0.367,0.465,10.239,-5.756,-4.153,-1.405,none
2.339391,0.566,-0.267,-0.780,2464.84,0.448,0.560,0.671,-0.909,0.272,0.315,0.649,-0.455,-0.610,2475.32,0.671,0.671,0.783,-0.990,0.079,0.113,0.593,-0.168,-0.787,2477.19,0.560,-0.112,0.783,-0.432,-0.289,0.854,-0.056,0.800,-0.597,2476.05,1.007,0.224,-0.112,-0.147,-0.114,0.983,0.441,0.268,0.857,10.837,5.557,0.702,-1.893,0.806,0.366,0.465,10.220,-5.649,-4.366,-1.573,none
2.362099,0.563,-0.270,-0.781,2475.34,0.112,0.671,0.224,-0.915,0.272,0.298,0.649,-0.454,-0.610,2458.18,0.224,0.783,0.448,-0.994,0.068,0.091,0.595,-0.165,-0.786,2468.61,0.224,0.336,0.671,-0.434,-0.292,0.852,-0.056,0.795,-0.603,2467.70,0.448,0.112,-0.112,-0.135,-0.126,0.983,0.440,0.268,0.857,10.841,5.603,0.595,-1.893,0.806,0.366,0.466,10.212,-5.542,-4.412,-1.664,none
2.383481,0.565,-0.271,-0.779,2466.76,0.671,0.783,0.448,-0.908,0.276,0.316,0.653,-0.455,-0.606,2476.40,0.336,0.671,0.224,-0.992,0.074,0.102,0.593,-0.172,-0.787,2478.89,0.336,0.112,0.560,-0.434,-0.291,0.853,-0.052,0.797,-0.601,2460.34,0.336,0.783,0.000,-0.147,-0.124,0.981,0.443,0.266,0.856,10.889,5.634,0.687,-1.634,0.806,0.366,0.464,10.267,-5.679,-4.229,-1.160,none
2.406422,0.568,-0.267,-0.778,2469.73,0.783,0.224,0.448,-0.916,0.254,0.311,0.650,-0.457,-0.607,2486.37,0.783,0.671,0.783,-0.993,0.083,0.084,0.595,-0.168,-0.786,2469.32,0.895,0.336,0.783,-0.433,-0.291,0.853,-0.051,0.797,-0.602,2486.92,0.336,0.448,-0.336,-0.140,-0.116,0.983,0.440,0.266,0.858,10.832,5.954,0.061,-1.130,0.805,0.365,0.467,10.228,-4.962,-4.992,-1.328,none
2.430657,0.566,-0.267,-0.780,2464.84,0.000,0.895,-0.560,-0.915,0.291,0.281,0.646,-0.456,-0.612,2468.84,-0.336,0.783,-0.783,-0.989,0.080,0.121,0.595,-0.168,-0.786,2469.32,0.112,1.455,0.560,-0.435,-0.290,0.852,-0.056,0.799,-0.598,2454.88,-0.448,0.336,-0.112,-0.148,-0.121,0.982,0.440,0.267,0.857,10.831,5.695,-0.168,-1.176,0.806,0.365,0.466,10.239,-5.298,-4.565,-1.023,none
2.452557,0.567,-0.272,-0.778,2458.97,-0.224,0.000,-0.336,-0.911,0.268,0.313,0.650,-0.456,-0.607,2469.23,0.448,0.000,0.224,-0.996,0.061,0.071,0.595,-0.162,-0.787,2453.75,0.112,0.112,0.112,-0.434,-0.291,0.853,-0.056,0.797,-0.601,2460.88,0.224,0.560,-0.112,-0.146,-0.120,0.982,0.442,0.267,0.856,10.835,5.481,0.000,-1.328,0.806,0.367,0.464,10.273,-5.420,-4.916,-0.992,none
2.472516,0.563,-0.274,-0.780,2477.00,-0.336,-0.112,-0.112,-0.910,0.285,0.300,0.649,-0.450,-0.614,2477.56,-0.224,0.336,-0.560,-0.994,0.077,0.083,0.596,-0.157,-0.787,2465.39,-0.336,0.560,0.112,-0.437,-0.288,0.852,-0.056,0.802,-0.595,2484.06,0.000,-0.224,-0.224,-0.141,-0.124,0.982,0.442,0.267,0.856,10.826,5.450,0.351,-1.863,0.805,0.366,0.467,10.223,-5.756,-4.550,-1.282,none
2.494019,0.569,-0.263,-0.779,2467.86,0.336,0.336,0.336,-0.915,0.256,0.313,0.650,-0.456,-0.607,2469.23,0.112,0.671,0.112,-0.992,0.079,0.102,0.593,-0.172,-0.787,2478.89,-0.112,0.560,0.560,-0.435,-0.288,0.853,-0.056,0.795,-0.603,2467.70,0.336,0.448,0.000,-0.142,-0.126,0.982,0.441,0.267,0.857,10.848,5.573,0.366,-1.557,0.806,0.367,0.465,10.273,-5.679,-4.397,-1.191,none
2.514743,0.566,-0.264,-0.781,2461.41,-0.112,0.224,0.112,-0.912,0.277,0.303,0.649,-0.455,-0.610,2475.32,0.448,0.112,0.448,-0.994,0.078,0.083,0.596,-0.168,-0.785,2483.13,0.671,-0.112,0.448,-0.434,-0.288,0.853,-0.055,0.796,-0.602,2487.45,0.112,0.336,-0.112,-0.138,-0.122,0.983,0.442,0.267,0.857,10.862,5.481,0.046,-1.496,0.807,0.366,0.464,10.235,-5.603,-4.885,-0.885,none
2.537174,0.564,-0.263,-0.783,2470.01,0.000,0.224,0.112,-0.916,0.278,0.290,0.652,-0.457,-0.605,2463.82,-0.336,0.112,-0.224,-0.996,0.062,0.070,0.598,-0.168,-0.784,2475.29,0.112,0.448,0.000,-0.436,-0.287,0.853,-0.051,0.800,-0.598,2488.70,-0.560,0.000,-0.112,-0.140,-0.114,0.984,0.442,0.267,0.856,10.851,5.542,0.107,-1.450,0.807,0.367,0.463,10.240,-5.466,-4.565,-1.099,none
2.559405,0.570,-0.268,-0.777,2461.96,0.336,0.112,0.000,-0.910,0.285,0.300,0.650,-0.456,-0.607,2469.23,0.448,0.112,0.336,-0.996,0.070,0.064,0.592,-0.167,-0.789,2485.07,0.448,0.560,0.336,-0.436,-0.287,0.853,-0.056,0.802,-0.595,2484.06,-0.336,0.336,0.112,-0.141,-0.125,0.982,0.440,0.268,0.857,10.855,5.786,0.305,-1.145,0.806,0.365,0.465,10.215,-5.344,-4.870,-1.084,none
2.580454,0.566,-0.267,-0.780,2464.84,-0.112,0.560,-0.224,-0.908,0.293,0.299,0.648,-0.453,-0.613,2464.30,-0.112,0.560,-0.336,-0.991,0.076,0.112,0.594,-0.164,-0.788,2476.48,-0.112,0.671,0.112,-0.437,-0.290,0.852,-0.052,0.801,-0.597,2462.34,-0.112,0.000,0.112,-0.149,-0.128,0.981,0.442,0.267,0.857,10.851,5.557,0.336,-1.282,0.805,0.367,0.466,10.207,-5.664,-4.534,-0.931,none
2.602065,0.568,-0.271,-0.778,2473.20,0.000,0.224,0.224,-0.903,0.284,0.323,0.650,-0.456,-0.607,2469.23,0.671,-0.112,0.336,-0.995,0.058,0.078,0.598,-0.168,-0.784,2475.29,0.224,-0.112,0.336,-0.436,-0.289,0.852,-0.056,0.798,-0.600,2481.24,0.336,0.000,-0.112,-0.149,-0.116,0.982,0.442,0.266,0.857,10.859,5.466,0.290,-1.389,0.807,0.367,0.464,10.224,-5.710,-4.641,-0.947,none
2.624524,0.566,-0.267,-0.780,2464.84,0.112,-0.224,0.112,-0.913,0.267,0.309,0.650,-0.452,-0.611,2470.79,0.336,0.112,0.448,-0.995,0.061,0.080,0.595,-0.168,-0.786,2469.32,0.336,-0.112,0.224,-0.436,-0.285,0.853,-0.056,0.798,-0.600,2481.24,0.336,-0.112,0.000,-0.144,-0.132,0.981,0.439,0.267,0.858,10.872,5.359,0.229,-1.511,0.805,0.366,0.466,10.240,-5.664,-4.748,-0.977,none
2.648439,0.564,-0.263,-0.783,2470.01,-0.112,0.224,0.112,-0.912,0.279,0.302,0.649,-0.455,-0.610,2475.32,-0.224,0.000,0.224,-0.989,0.078,0.130,0.594,-0.164,-0.788,2476.48,-0.224,-0.224,0.224,-0.435,-0.289,0.853,-0.056,0.802,-0.595,2484.06,0.448,-0.112,0.000,-0.146,-0.122,0.982,0.442,0.268,0.856,10.854,5.435,0.214,-1.634,0.807,0.366,0.464,10.221,-5.710,-4.565,-1.023,none
2.671767,0.566,-0.267,-0.780,2464.84,0.448,0.336,0.336,-0.918,0.281,0.280,0.650,-0.456,-0.607,2469.23,0.224,0.112,0.336,-0.996,0.070,0.064,0.596,-0.168,-0.785,2483.13,0.448,0.224,0.448,-0.436,-0.289,0.852,-0.052,0.800,-0.597,2475.52,-0.224,0.112,0.112,-0.154,-0.110,0.982,0.440,0.269,0.857,10.846,5.405,0.397,-1.634,0.805,0.368,0.465,10.211,-5.863,-4.504,-0.992,none
2.693528,0.568,-0.267,-0.778,2469.73,0.560,0.224,0.336,-0.919,0.240,0.313,0.652,-0.457,-0.605,2463.82,0.224,-0.224,0.224,-0.988,0.095,0.125,0.593,-0.172,-0.787,2478.89,0.671,-0.336,0.448,-0.437,-0.287,0.852,-0.052,0.797,-0.602,2475.12,0.448,0.224,0.000,-0.144,-0.118,0.983,0.442,0.270,0.855,10.835,5.725,0.244,-1.145,0.803,0.367,0.469,10.227,-5.496,-4.718,-0.931,none
2.720768,0.568,-0.271,-0.778,2473.20,0.000,0.000,0.000,-0.915,0.256,0.313,0.654,-0.458,-0.602,2457.14,0.112,-0.560,0.000,-0.993,0.068,0.092,0.595,-0.172,-0.785,2471.03,-0.448,-0.671,0.000,-0.435,-0.287,0.854,-0.052,0.799,-0.599,2468.32,0.895,-0.224,0.000,-0.147,-0.119,0.982,0.441,0.268,0.856,10.842,5.756,0.550,-1.099,0.806,0.365,0.466,10.236,-5.527,-4.580,-0.733,none
2.735849,0.564,-0.267,-0.782,2471.87,0.336,-0.224,0.224,-0.916,0.267,0.300,0.648,-0.458,-0.609,2480.53,0.336,-0.448,0.336,-0.994,0.077,0.083,0.593,-0.168,-0.787,2477.19,-0.224,-0.783,0.224,-0.436,-0.285,0.853,-0.055,0.799,-0.598,2489.23,0.560,-0.224,0.000,-0.146,-0.125,0.981,0.441,0.268,0.857,10.831,5.603,0.229,-1.282,0.805,0.366,0.468,10.231,-5.527,-4.931,-0.855,none
2.763883,0.565,-0.271,-0.779,2466.76,-0.224,0.224,-0.224,-0.910,0.282,0.305,0.649,-0.459,-0.606,2474.46,-0.448,-0.224,-0.224,-0.993,0.078,0.083,0.595,-0.172,-0.785,2471.03,-0.224,0.000,0.000,-0.436,-0.287,0.853,-0.056,0.800,-0.597,2476.05,0.224,-0.448,0.112,-0.145,-0.122,0.982,0.442,0.267,0.856,10.830,5.511,0.183,-1.344,0.804,0.369,0.466,10.225,-5.557,-4.794,-0.809,none
2.781134,0.563,-0.270,-0.781,2475.34,-0.112,-0.224,-0.112,-0.914,0.279,0.294,0.649,-0.455,-0.610,2475.32,-0.224,-0.224,-0.112,-0.992,0.090,0.086,0.593,-0.168,-0.787,2477.19,0.000,-0.112,-0.112,-0.437,-0.286,0.853,-0.055,0.796,-0.602,2487.45,0.224,-0.448,0.112,-0.149,-0.117,0.982,0.441,0.268,0.857,10.822,5.496,0.214,-1.603,0.805,0.367,0.467,10.232,-5.664,-4.809,-1.008,none
2.803769,0.568,-0.267,-0.778,2469.73,-0.112,-0.112,0.000,-0.910,0.267,0.317,0.650,-0.456,-0.607,2469.23,-0.336,0.000,0.000,-0.989,0.082,0.122,0.595,-0.168,-0.786,2469.32,0.224,0.224,0.112,-0.437,-0.288,0.852,-0.055,0.799,-0.598,2489.23,0.224,0.000,-0.112,-0.153,-0.115,0.982,0.440,0.269,0.857,10.833,5.511,0.305,-1.710,0.805,0.368,0.466,10.212,-5.710,-4.580,-1.099,none
2.825211,0.568,-0.267,-0.778,2469.73,0.112,0.336,0.112,-0.904,0.299,0.307,0.650,-0.456,-0.607,2469.23,0.336,0.224,0.224,-0.990,0.093,0.106,0.593,-0.172,-0.787,2478.89,0.448,0.000,0.224,-0.436,-0.286,0.853,-0.056,0.798,-0.600,2481.24,0.336,0.000,0.000,-0.137,-0.124,0.983,0.441,0.267,0.857,10.838,5.496,0.031,-1.450,0.806,0.366,0.465,10.252,-5.588,-4.763,-0.870,none
2.849184,0.568,-0.271,-0.778,2473.20,-0.560,-0.336,0.000,-0.910,0.282,0.305,0.651,-0.454,-0.608,2482.47,0.112,-0.336,0.224,-0.993,0.077,0.094,0.593,-0.168,-0.787,2477.19,0.224,-0.112,-0.112,-0.437,-0.286,0.852,-0.056,0.798,-0.600,2481.24,0.112,-0.112,0.000,-0.149,-0.113,0.982,0.442,0.268,0.856,10.827,5.481,0.046,-1.405,0.806,0.367,0.465,10.231,-5.573,-4.809,-0.885,none
2.871749,0.566,-0.267,-0.780,2464.84,0.000,0.224,0.000,-0.918,0.275,0.288,0.650,-0.456,-0.607,2469.23,0.112,-0.112,0.224,-0.994,0.077,0.073,0.593,-0.168,-0.787,2477.19,-0.112,-0.112,-0.112,-0.436,-0.287,0.853,-0.052,0.800,-0.597,2475.52,-0.224,0.336,0.224,-0.148,-0.117,0.982,0.442,0.269,0.856,10.859,5.511,0.153,-1.481,0.805,0.369,0.465,10.262,-5.603,-4.733,-0.947,none
2.893176,0.566,-0.267,-0.780,2464.84,0.112,0.224,0.112,-0.918,0.279,0.282,0.652,-0.453,-0.609,2464.69,0.224,0.000,0.336,-0.994,0.064,0.090,0.595,-0.165,-0.786,2468.61,0.000,0.000,0.112,-0.436,-0.287,0.853,-0.055,0.799,-0.598,2489.23,0.224,-0.112,0.112,-0.144,-0.123,0.982,0.441,0.268,0.857,10.829,5.511,0.183,-1.618,0.804,0.367,0.467,10.227,-5.649,-4.748,-1.099,none
2.913805,0.568,-0.267,-0.778,2469.73,-0.112,0.112,0.000,-0.914,0.284,0.291,0.650,-0.456,-0.607,2469.23,0.112,0.112,0.112,-0.992,0.066,0.110,0.593,-0.168,-0.787,2477.19,0.224,0.336,0.336,-0.437,-0.284,0.854,-0.052,0.800,-0.597,2475.52,0.560,-0.112,-0.112,-0.146,-0.125,0.981,0.442,0.267,0.856,10.854,5.527,0.305,-1.725,0.804,0.367,0.468,10.240,-5.710,-4.534,-1.160,none
2.934648,0.566,-0.267,-0.780,2464.84,0.448,0.336,0.336,-0.912,0.269,0.311,0.648,-0.457,-0.609,2462.74,0.112,0.448,0.224,-0.993,0.059,0.098,0.593,-0.168,-0.787,2477.19,0.448,0.560,0.448,-0.435,-0.289,0.853,-0.052,0.799,-0.599,2468.32,0.000,0.000,0.112,-0.140,-0.119,0.983,0.441,0.268,0.857,10.837,5.527,0.000,-1.481,0.806,0.367,0.465,10.198,-5.542,-4.870,-1.023,none
2.958272,0.568,-0.267,-0.778,2469.73,-0.448,0.112,-0.448,-0.922,0.226,0.316,0.650,-0.456,-0.607,2469.23,0.112,0.000,-0.224,-0.991,0.084,0.104,0.593,-0.168,-0.787,2477.19,-0.336,-0.112,-0.112,-0.436,-0.285,0.853,-0.052,0.797,-0.601,2460.34,-0.112,-0.224,0.112,-0.148,-0.116,0.982,0.442,0.267,0.856,10.848,5.542,0.305,-1.542,0.806,0.367,0.464,10.231,-5.725,-4.565,-0.840,none
2.976477,0.566,-0.267,-0.780,2464.84,-0.112,-0.112,0.336,-0.912,0.291,0.291,0.648,-0.457,-0.609,2462.74,0.224,0.000,0.224,-0.992,0.087,0.095,0.595,-0.172,-0.785,2471.03,0.224,-0.112,0.000,-0.436,-0.286,0.853,-0.052,0.798,-0.600,2480.71,-0.224,0.224,-0.112,-0.149,-0.116,0.982,0.441,0.269,0.856,10.853,5.466,0.198,-1.588,0.805,0.367,0.466,10.225,-5.664,-4.748,-0.916,none
2.997458,0.566,-0.267,-0.780,2464.84,0.112,-0.112,0.112,-0.913,0.292,0.285,0.649,-0.455,-0.610,2475.32,0.112,0.000,0.112,-0.991,0.088,0.104,0.595,-0.168,-0.786,2469.32,0.000,-0.112,0.000,-0.436,-0.286,0.853,-0.052,0.798,-0.600,2480.71,-0.112,0.000,0.000,-0.149,-0.116,0.982,0.441,0.267,0.857,10.874,5.557,0.168,-1.573,0.806,0.367,0.465,10.230,-5.664,-4.656,-0.977,none
3.018952,0.568,-0.267,-0.778,2469.73,-0.224,0.112,-0.112,-0.919,0.258,0.298,0.650,-0.456,-0.607,2469.23,0.336,0.112,0.224,-0.995,0.062,0.079,0.593,-0.168,-0.787,2477.19,-0.112,-0.336,0.112,-0.436,-0.287,0.853,-0.056,0.798,-0.600,2481.24,0.112,0.112,0.112,-0.145,-0.111,0.983,0.441,0.267,0.857,10.851,5.527,0.076,-1.450,0.805,0.366,0.466,10.220,-5.481,-4.901,-0.840,none
3.040596,0.568,-0.271,-0.778,2473.20,0.000,-0.224,-0.112,-0.917,0.273,0.292,0.650,-0.456,-0.607,2469.23,-0.336,0.000,-0.336,-0.996,0.070,0.063,0.595,-0.165,-0.786,2468.61,-0.448,0.112,-0.224,-0.435,-0.286,0.854,-0.056,0.800,-0.597,2476.05,-0.448,-0.112,0.000,-0.145,-0.125,0.982,0.441,0.268,0.856,10.819,5.527,0.336,-1.695,0.806,0.369,0.464,10.202,-5.649,-4.779,-0.962,none
3.064616,0.565,-0.271,-0.779,2466.76,0.112,0.112,0.112,-0.909,0.252,0.332,0.648,-0.457,-0.609,2462.74,0.224,0.112,0.112,-0.989,0.089,0.115,0.595,-0.168,-0.786,2469.32,-0.112,0.224,0.112,-0.437,-0.287,0.852,-0.056,0.798,-0.600,2481.24,0.336,0.224,-0.112,-0.141,-0.121,0.983,0.441,0.265,0.858,10.841,5.496,0.290,-1.618,0.805,0.366,0.467,10.236,-5.695,-4.702,-0.947,none
3.090051,0.566,-0.267,-0.780,2464.84,-0.336,-0.112,0.112,-0.914,0.256,0.315,0.650,-0.456,-0.607,2469.23,0.112,0.112,0.000,-0.990,0.081,0.113,0.593,-0.168,-0.787,2477.19,-0.112,0.000,0.112,-0.435,-0.287,0.853,-0.055,0.796,-0.602,2487.45,0.224,0.224,0.000,-0.134,-0.131,0.982,0.441,0.265,0.857,10.846,5.588,-0.092,-1.313,0.805,0.369,0.464,10.213,-5.481,-5.023,-0.656,none
3.113680,0.566,-0.267,-0.780,2464.84,-0.224,-0.336,-0.224,-0.904,0.295,0.310,0.650,-0.452,-0.611,2470.79,-0.224,-0.336,-0.112,-0.994,0.072,0.082,0.593,-0.168,-0.787,2477.19,-0.336,0.000,-0.336,-0.438,-0.286,0.853,-0.056,0.802,-0.595,2484.06,-0.448,0.000,0.112,-0.153,-0.113,0.982,0.442,0.268,0.856,10.847,5.573,0.046,-1.466,0.806,0.366,0.464,10.233,-5.557,-4.794,-0.916,none
3.133134,0.566,-0.267,-0.780,2464.84,0.000,0.224,0.224,-0.910,0.278,0.307,0.649,-0.455,-0.610,2475.32,-0.112,-0.112,-0.112,-0.990,0.091,0.106,0.591,-0.168,-0.789,2472.65,-0.224,0.112,0.000,-0.437,-0.289,0.852,-0.056,0.800,-0.597,2476.05,-0.112,0.336,0.000,-0.139,-0.119,0.983,0.442,0.266,0.857,10.857,5.618,0.000,-1.634,0.805,0.367,0.465,10.244,-5.435,-4.702,-1.298,none
3.155027,0.568,-0.267,-0.778,2469.73,-0.112,0.448,0.000,-0.913,0.281,0.298,0.650,-0.456,-0.607,2469.23,0.224,0.895,-0.224,-0.992,0.066,0.109,0.596,-0.168,-0.785,2483.13,-0.112,0.560,-0.112,-0.438,-0.285,0.852,-0.055,0.799,-0.598,2489.23,0.224,0.336,-0.112,-0.150,-0.114,0.982,0.442,0.268,0.856,10.844,5.634,-0.107,-1.756,0.805,0.372,0.463,10.232,-5.542,-4.824,-1.191,none
3.180310,0.583,-0.257,-0.771,2443.95,0.112,0.783,-0.224,-0.914,0.273,0.302,0.656,-0.453,-0.604,2465.16,-0.224,0.783,-0.560,-0.995,0.071,0.073,0.605,-0.177,-0.776,2462.91,2.014,1.902,0.671,-0.437,-0.286,0.853,-0.051,0.801,-0.596,2497.50,-0.224,0.336,0.000,-0.141,-0.121,0.983,0.446,0.275,0.852,10.837,7.725,1.282,-1.084,0.803,0.374,0.463,10.240,-4.748,-4.763,-2.244,none
3.203018,0.573,-0.267,-0.775,2467.68,-0.336,1.119,-0.336,-0.909,0.291,0.298,0.653,-0.455,-0.606,2476.40,-0.112,1.679,-0.224,-0.992,0.087,0.095,0.604,-0.165,-0.780,2466.51,0.783,1.567,1.343,-0.436,-0.289,0.853,-0.052,0.798,-0.600,2480.71,0.895,0.895,-0.112,-0.141,-0.128,0.982,0.438,0.265,0.859,10.852,6.595,-0.733,-0.214,0.805,0.364,0.468,10.269,-4.580,-4.947,-1.725,none
3.224983,0.566,-0.267,-0.780,2464.84,-0.448,1.119,-0.671,-0.916,0.270,0.297,0.649,-0.459,-0.606,2474.46,0.224,1.119,-0.448,-0.991,0.076,0.112,0.596,-0.171,-0.785,2484.83,1.679,1.231,0.671,-0.439,-0.285,0.852,-0.052,0.793,-0.607,2451.28,1.119,0.224,-0.336,-0.146,-0.115,0.982,0.439,0.268,0.858,10.827,6.672,-0.168,0.534,0.805,0.369,0.464,10.187,-4.168,-5.420,-0.031,none
3.248534,0.570,-0.259,-0.780,2465.25,-0.895,-0.224,-1.679,-0.913,0.275,0.300,0.654,-0.451,-0.607,2471.87,-0.671,-0.783,-1.119,-0.996,0.055,0.070,0.593,-0.168,-0.787,2477.19,-1.231,0.112,-0.895,-0.439,-0.283,0.852,-0.059,0.786,-0.615,2484.07,3.245,-2.462,-0.895,-0.138,-0.119,0.983,0.442,0.277,0.853,10.824,6.473,-0.031,0.962,0.804,0.375,0.461,10.248,-4.397,-5.542,0.336,none
3.272087,0.573,-0.267,-0.775,2467.68,0.000,-1.007,-1.231,-0.919,0.272,0.284,0.654,-0.456,-0.603,2469.70,0.000,-0.895,-0.783,-0.993,0.071,0.093,0.597,-0.169,-0.784,2461.47,-0.783,0.112,0.112,-0.439,-0.283,0.853,-0.052,0.802,-0.596,2483.53,-1.679,0.448,0.560,-0.158,-0.111,0.981,0.439,0.271,0.857,10.838,6.901,1.221,0.000,0.805,0.372,0.463,10.286,-5.099,-5.053,-0.519,none
3.293384,0.569,-0.263,-0.779,2467.86,0.112,0.112,-0.112,-0.912,0.279,0.302,0.650,-0.456,-0.607,2469.23,0.448,0.336,0.783,-0.992,0.079,0.103,0.594,-0.160,-0.788,2474.07,0.000,0.000,1.343,-0.442,-0.280,0.852,-0.055,0.799,-0.599,2502.61,0.895,-0.448,-0.112,-0.149,-0.119,0.982,0.447,0.266,0.854,10.851,6.336,0.718,-1.481,0.810,0.366,0.458,10.259,-5.710,-4.672,-1.756,none
3.315548,0.564,-0.264,-0.782,2456.32,-0.224,0.671,0.671,-0.910,0.257,0.324,0.649,-0.454,-0.610,2458.18,0.112,1.679,1.455,-0.993,0.065,0.100,0.593,-0.166,-0.788,2448.66,2.014,0.448,2.686,-0.442,-0.279,0.852,-0.059,0.795,-0.604,2481.60,1.231,-0.448,0.112,-0.145,-0.115,0.983,0.442,0.257,0.859,10.831,6.336,1.252,-2.519,0.808,0.357,0.468,10.251,-6.031,-4.321,-2.382,none
3.337454,0.562,-0.263,-0.784,2464.94,0.112,1.231,1.007,-0.919,0.272,0.284,0.641,-0.462,-0.614,2461.20,0.336,1.567,1.231,-0.993,0.078,0.093,0.588,-0.173,-0.790,2468.46,1.343,0.671,2.014,-0.443,-0.279,0.852,-0.063,0.793,-0.606,2473.48,1.343,0.336,0.112,-0.145,-0.117,0.983,0.442,0.260,0.859,10.804,5.542,0.580,-2.565,0.807,0.361,0.468,10.230,-6.061,-4.000,-2.336,none
3.360055,0.563,-0.272,-0.781,2461.68,1.007,1.119,0.895,-0.910,0.285,0.300,0.647,-0.460,-0.608,2467.98,0.448,1.343,1.119,-0.990,0.098,0.098,0.593,-0.176,-0.786,2480.62,1.231,0.560,1.007,-0.446,-0.277,0.851,-0.056,0.797,-0.601,2460.88,0.560,0.224,0.000,-0.144,-0.108,0.984,0.440,0.268,0.857,10.855,5.435,0.550,-2.412,0.804,0.369,0.465,10.235,-6.046,-4.168,-2.244,none
3.381636,0.568,-0.267,-0.778,2469.73,0.560,1.119,0.336,-0.913,0.292,0.285,0.653,-0.455,-0.606,2476.40,0.224,1.455,0.671,-0.992,0.083,0.095,0.598,-0.175,-0.782,2493.31,1.343,0.895,0.895,-0.444,-0.280,0.851,-0.052,0.797,-0.602,2475.12,-0.560,0.895,0.112,-0.147,-0.117,0.982,0.441,0.269,0.856,10.838,5.481,0.412,-1.786,0.803,0.372,0.466,10.232,-5.832,-4.641,-1.038,none
3.403602,0.570,-0.270,-0.776,2478.89,-0.336,-0.112,0.000,-0.905,0.281,0.320,0.651,-0.460,-0.604,2467.76,0.112,-0.448,-0.112,-0.994,0.067,0.092,0.599,-0.176,-0.781,2470.91,0.000,0.112,0.336,-0.447,-0.276,0.851,-0.052,0.797,-0.602,2475.12,-0.448,0.000,0.000,-0.142,-0.126,0.982,0.441,0.270,0.856,10.852,5.466,0.870,-1.466,0.803,0.371,0.466,10.228,-5.924,-4.672,-0.061,none
3.425951,0.568,-0.271,-0.778,2473.20,0.448,-0.895,0.448,-0.910,0.254,0.329,0.649,-0.459,-0.606,2474.46,0.336,-1.007,0.448,-0.990,0.077,0.121,0.597,-0.172,-0.783,2476.99,-0.336,-1.007,0.112,-0.447,-0.274,0.851,-0.052,0.797,-0.602,2475.12,0.671,-0.448,0.000,-0.130,-0.125,0.984,0.439,0.270,0.857,10.853,5.481,1.145,-1.206,0.804,0.369,0.466,10.242,-5.939,-5.069,0.397,none
3.447128,0.569,-0.265,-0.778,2483.98,-0.112,-1.231,0.336,-0.917,0.283,0.283,0.650,-0.456,-0.607,2469.23,0.336,-1.343,0.671,-0.991,0.061,0.117,0.595,-0.175,-0.784,2486.56,-0.224,-1.231,-0.448,-0.445,-0.278,0.851,-0.051,0.797,-0.602,2486.92,1.007,-0.448,-0.112,-0.141,-0.118,0.983,0.438,0.269,0.858,10.843,6.397,1.160,-1.038,0.804,0.372,0.464,10.221,-5.389,-5.374,-0.687,none
3.469802,0.562,-0.271,-0.781,2498.24,-1.119,-0.112,-0.671,-0.920,0.252,0.300,0.647,-0.454,-0.612,2482.08,-1.567,-0.671,-0.448,-0.995,0.062,0.079,0.595,-0.168,-0.786,2469.32,-1.790,-0.560,-0.112,-0.445,-0.275,0.852,-0.052,0.800,-0.597,2475.52,0.336,-0.336,0.000,-0.147,-0.119,0.982,0.439,0.272,0.856,10.843,5.695,0.061,-0.763,0.805,0.371,0.462,10.233,-5.374,-5.023,-0.489,none
3.491190,0.571,-0.260,-0.778,2457.46,-0.560,-0.448,-0.448,-0.911,0.283,0.299,0.656,-0.457,-0.601,2464.34,-0.112,-0.336,0.112,-0.993,0.073,0.092,0.589,-0.162,-0.792,2513.99,-0.783,-0.112,0.000,-0.443,-0.281,0.852,-0.051,0.797,-0.602,2486.92,-0.448,-0.112,0.224,-0.141,-0.119,0.983,0.441,0.270,0.856,10.870,5.817,-0.595,-0.687,0.804,0.369,0.466,10.226,-5.008,-5.130,-0.885,none
3.512623,0.568,-0.267,-0.778,2469.73,-0.783,0.112,-0.671,-0.916,0.280,0.286,0.652,-0.453,-0.609,2464.69,-0.895,0.336,-0.560,-0.989,0.093,0.116,0.599,-0.173,-0.782,2469.17,-0.224,0.895,0.112,-0.446,-0.276,0.852,-0.052,0.797,-0.602,2475.12,0.112,-0.112,0.112,-0.152,-0.108,0.982,0.438,0.268,0.858,10.826,5.786,-0.366,-0.962,0.807,0.368,0.462,10.221,-5.099,-4.824,-1.038,none
3.534122,0.566,-0.267,-0.780,2464.84,0.000,0.560,-0.336,-0.905,0.289,0.311,0.649,-0.459,-0.606,2474.46,0.112,0.671,-0.224,-0.991,0.083,0.104,0.590,-0.172,-0.788,2474.35,0.560,1.007,0.224,-0.445,-0.278,0.851,-0.056,0.797,-0.601,2475.66,-0.448,0.336,0.112,-0.146,-0.117,0.982,0.442,0.266,0.857,10.845,5.740,-0.046,-0.992,0.806,0.367,0.465,10.246,-5.313,-4.763,-0.824,none
3.554587,0.564,-0.263,-0.783,2470.01,0.000,0.224,-0.112,-0.908,0.304,0.289,0.648,-0.458,-0.609,2480.53,0.448,-0.112,0.336,-0.990,0.085,0.114,0.593,-0.172,-0.787,2478.89,-0.336,-0.448,0.112,-0.447,-0.275,0.851,-0.055,0.799,-0.598,2489.23,0.560,0.336,0.000,-0.152,-0.110,0.982,0.440,0.269,0.857,10.838,5.710,0.901,-1.603,0.806,0.369,0.463,10.235,-5.679,-4.565,-1.160,none
3.579486,0.567,-0.268,-0.779,2457.05,0.448,0.336,0.112,-0.905,0.289,0.311,0.650,-0.456,-0.607,2469.23,0.112,0.336,0.560,-0.994,0.075,0.084,0.597,-0.173,-0.784,2463.18,0.224,0.224,0.783,-0.447,-0.275,0.851,-0.055,0.799,-0.598,2489.23,0.560,0.000,0.000,-0.133,-0.118,0.984,0.439,0.267,0.858,10.834,5.527,0.458,-1.908,0.805,0.365,0.468,10.235,-5.832,-4.382,-1.496,none
3.602769,0.564,-0.274,-0.779,2469.99,0.671,0.336,0.560,-0.914,0.277,0.296,0.649,-0.459,-0.606,2474.46,0.448,0.560,0.560,-0.996,0.060,0.071,0.593,-0.176,-0.786,2480.62,0.560,0.000,0.671,-0.446,-0.276,0.852,-0.059,0.793,-0.606,2486.86,1.007,-0.112,-0.112,-0.144,-0.121,0.982,0.438,0.267,0.859,10.857,5.389,-0.031,-1.695,0.804,0.366,0.468,10.219,-5.649,-4.656,-1.282,none
3.623325,0.568,-0.271,-0.778,2473.20,-0.336,0.000,0.000,-0.913,0.262,0.314,0.649,-0.459,-0.606,2474.46,0.000,0.112,0.112,-0.989,0.082,0.122,0.594,-0.176,-0.785,2472.77,0.448,0.112,0.112,-0.446,-0.277,0.851,-0.052,0.798,-0.600,2480.71,0.224,-0.112,0.000,-0.144,-0.116,0.983,0.438,0.271,0.857,10.844,5.466,-0.031,-1.466,0.804,0.370,0.465,10.212,-5.527,-4.855,-1.084,none
3.645270,0.572,-0.271,-0.774,2471.14,-0.224,0.000,-0.112,-0.914,0.283,0.289,0.650,-0.456,-0.607,2469.23,-0.224,0.000,-0.224,-0.991,0.081,0.103,0.597,-0.176,-0.783,2478.73,0.000,0.000,-0.112,-0.447,-0.275,0.851,-0.052,0.796,-0.604,2467.16,-0.448,0.224,0.224,-0.132,-0.126,0.983,0.441,0.269,0.856,10.875,5.481,0.092,-1.359,0.805,0.368,0.465,10.260,-5.695,-4.565,-1.023,none
3.666925,0.568,-0.271,-0.778,2473.20,0.000,-0.336,-0.224,-0.913,0.294,0.281,0.653,-0.455,-0.606,2476.40,0.112,-0.112,0.336,-0.993,0.073,0.092,0.593,-0.172,-0.787,2478.89,0.336,-0.336,0.112,-0.448,-0.272,0.852,-0.055,0.799,-0.598,2489.23,0.000,-0.112,-0.112,-0.144,-0.123,0.982,0.441,0.268,0.856,10.824,5.527,0.061,-1.878,0.803,0.367,0.469,10.260,-5.679,-4.550,-1.710,none
3.688959,0.570,-0.268,-0.777,2461.96,0.000,0.448,0.112,-0.916,0.278,0.290,0.650,-0.456,-0.607,2469.23,0.112,0.671,0.224,-0.995,0.071,0.074,0.597,-0.172,-0.783,2476.99,0.560,0.560,0.336,-0.448,-0.273,0.851,-0.056,0.797,-0.601,2475.66,-0.224,0.224,0.224,-0.148,-0.109,0.983,0.439,0.271,0.857,10.851,5.542,-0.015,-1.985,0.803,0.370,0.467,10.214,-5.649,-4.427,-1.908,none
3.710828,0.568,-0.271,-0.778,2473.20,0.448,0.895,0.224,-0.917,0.280,0.283,0.649,-0.459,-0.606,2474.46,0.224,0.783,0.112,-0.991,0.079,0.112,0.594,-0.176,-0.785,2472.77,1.455,0.783,0.560,-0.447,-0.275,0.851,-0.052,0.796,-0.603,2452.37,0.112,0.448,0.000,-0.136,-0.123,0.983,0.440,0.269,0.857,10.856,5.481,0.351,-1.634,0.804,0.370,0.465,10.206,-5.771,-4.580,-1.069,none
3.732706,0.571,-0.266,-0.776,2475.43,0.336,-0.336,0.224,-0.910,0.296,0.289,0.654,-0.456,-0.603,2469.70,0.000,0.112,0.112,-0.992,0.078,0.104,0.595,-0.175,-0.784,2486.56,0.560,0.000,0.112,-0.447,-0.272,0.852,-0.052,0.796,-0.604,2467.16,0.224,-0.448,-0.112,-0.134,-0.123,0.983,0.441,0.270,0.856,10.826,5.511,0.260,-1.405,0.806,0.369,0.463,10.255,-5.557,-4.611,-0.580,none
3.754587,0.568,-0.271,-0.778,2473.20,-0.224,-0.448,0.112,-0.917,0.250,0.309,0.649,-0.459,-0.606,2474.46,0.336,-0.336,0.112,-0.993,0.078,0.093,0.597,-0.172,-0.783,2476.99,-0.448,-0.112,-0.112,-0.448,-0.273,0.851,-0.055,0.796,-0.603,2500.64,0.224,0.448,0.112,-0.136,-0.118,0.984,0.441,0.269,0.856,10.847,5.634,-0.275,-1.603,0.805,0.367,0.465,10.235,-5.252,-4.885,-1.237,none
3.775434,0.570,-0.268,-0.777,2461.96,-0.336,0.895,-0.336,-0.915,0.259,0.310,0.653,-0.455,-0.606,2476.40,0.112,0.448,-0.448,-0.992,0.085,0.095,0.593,-0.176,-0.786,2480.62,-0.224,0.783,-0.112,-0.446,-0.275,0.852,-0.055,0.799,-0.598,2489.23,-0.112,0.560,0.112,-0.142,-0.114,0.983,0.441,0.270,0.856,10.843,5.893,-0.565,-1.878,0.804,0.370,0.465,10.235,-4.962,-4.595,-1.969,none
3.798016,0.568,-0.271,-0.778,2473.20,0.224,1.343,0.000,-0.913,0.274,0.302,0.652,-0.457,-0.605,2463.82,0.000,1.007,-0.448,-0.990,0.070,0.119,0.597,-0.176,-0.783,2478.73,0.448,0.895,0.000,-0.446,-0.275,0.851,-0.052,0.795,-0.604,2479.75,0.783,1.231,0.112,-0.145,-0.117,0.983,0.441,0.271,0.856,10.854,5.817,-0.137,-2.305,0.804,0.372,0.464,10.247,-5.298,-4.000,-2.275,none
3.821073,0.570,-0.270,-0.776,2478.89,0.783,1.343,0.336,-0.916,0.282,0.284,0.652,-0.457,-0.605,2463.82,0.783,1.231,0.224,-0.996,0.068,0.053,0.597,-0.160,-0.786,2480.02,1.343,1.455,0.336,-0.446,-0.277,0.851,-0.056,0.797,-0.601,2475.66,1.007,0.895,-0.112,-0.147,-0.121,0.982,0.440,0.270,0.856,10.861,5.740,0.321,-2.580,0.803,0.370,0.467,10.237,-5.618,-3.863,-2.168,none
3.843068,0.572,-0.271,-0.774,2471.14,0.895,1.007,0.895,-0.909,0.288,0.303,0.652,-0.458,-0.605,2480.31,0.895,1.119,0.895,-0.992,0.087,0.096,0.592,-0.180,-0.786,2482.40,0.671,1.231,0.448,-0.448,-0.273,0.851,-0.056,0.790,-0.610,2471.30,2.574,0.448,-0.336,-0.139,-0.115,0.984,0.440,0.269,0.857,10.817,5.557,0.580,-2.214,0.804,0.370,0.466,10.193,-5.847,-3.893,-1.603,none
3.864503,0.569,-0.271,-0.776,2465.43,0.560,0.560,0.895,-0.909,0.280,0.308,0.652,-0.466,-0.597,2477.07,0.224,0.671,0.336,-0.992,0.085,0.095,0.594,-0.176,-0.785,2472.77,1.343,0.448,0.448,-0.448,-0.270,0.852,-0.052,0.789,-0.612,2462.86,-0.224,0.560,0.224,-0.142,-0.114,0.983,0.440,0.271,0.856,10.831,5.496,0.382,-1.160,0.804,0.371,0.465,10.229,-5.756,-4.870,-0.183,none
3.883899,0.571,-0.264,-0.778,2460.08,-0.671,-0.895,-0.112,-0.913,0.271,0.304,0.656,-0.453,-0.604,2465.16,-0.112,-1.007,0.112,-0.994,0.075,0.084,0.602,-0.172,-0.780,2475.95,-1.007,-1.231,-0.336,-0.449,-0.274,0.851,-0.052,0.800,-0.597,2475.52,0.000,0.000,0.000,-0.142,-0.123,0.982,0.439,0.273,0.856,10.814,5.527,1.053,-1.023,0.801,0.373,0.468,10.223,-5.939,-5.008,0.458,none
3.904295,0.571,-0.272,-0.774,2456.90,-0.224,-1.231,0.336,-0.909,0.288,0.303,0.656,-0.458,-0.600,2481.48,0.224,-1.007,0.224,-0.989,0.086,0.123,0.597,-0.180,-0.782,2480.51,-1.679,-1.119,-0.336,-0.448,-0.275,0.851,-0.052,0.795,-0.604,2479.75,0.224,-0.895,-0.112,-0.134,-0.113,0.984,0.444,0.274,0.853,10.850,6.626,1.496,-1.008,0.806,0.373,0.461,10.274,-5.588,-4.992,-0.672,none
3.923737,0.575,-0.256,-0.777,2460.61,-1.007,-0.336,-0.448,-0.910,0.289,0.297,0.656,-0.445,-0.609,2462.69,-0.112,-0.224,0.224,-0.994,0.079,0.075,0.606,-0.169,-0.777,2459.45,-1.455,-1.119,-0.112,-0.449,-0.274,0.850,-0.055,0.799,-0.598,2489.23,0.895,-1.119,0.000,-0.143,-0.111,0.984,0.441,0.271,0.855,10.822,5.710,0.198,-1.328,0.804,0.370,0.466,10.229,-5.634,-5.053,-1.328,none
3.945038,0.568,-0.271,-0.778,2473.20,-0.336,0.224,0.000,-0.909,0.292,0.297,0.650,-0.464,-0.603,2472.38,-0.336,0.671,0.112,-0.989,0.089,0.115,0.599,-0.176,-0.781,2470.91,-0.783,0.783,0.560,-0.447,-0.272,0.852,-0.056,0.787,-0.615,2469.54,-0.336,-0.895,0.000,-0.142,-0.114,0.983,0.439,0.266,0.858,10.839,5.740,0.244,-1.328,0.804,0.368,0.466,10.250,-5.634,-4.779,-1.069,none
3.967693,0.565,-0.273,-0.778,2483.42,0.000,0.336,0.000,-0.907,0.291,0.304,0.652,-0.458,-0.605,2480.31,0.560,0.112,0.000,-0.995,0.078,0.056,0.590,-0.180,-0.787,2477.87,0.224,0.112,0.336,-0.447,-0.274,0.852,-0.056,0.792,-0.608,2464.42,-0.112,0.000,-0.224,-0.142,-0.113,0.983,0.441,0.267,0.857,10.898,5.603,0.427,-0.840,0.804,0.367,0.468,10.272,-5.710,-5.267,-0.015,none
3.988919,0.569,-0.269,-0.777,2485.88,-0.560,-0.671,-0.336,-0.917,0.268,0.294,0.650,-0.453,-0.610,2441.70,-0.448,-0.895,-0.336,-0.995,0.071,0.073,0.596,-0.170,-0.785,2449.83,-1.007,-1.231,0.000,-0.450,-0.273,0.850,-0.056,0.800,-0.597,2476.05,-1.119,-0.448,0.224,-0.136,-0.118,0.984,0.439,0.268,0.857,10.886,5.099,1.802,-0.840,0.806,0.368,0.463,10.260,-6.397,-4.977,0.885,none
4.011030,0.563,-0.254,-0.787,2443.96,0.448,-1.231,0.224,-0.913,0.296,0.279,0.656,-0.442,-0.612,2434.59,-0.783,-1.455,0.224,-0.992,0.087,0.096,0.593,-0.179,-0.785,2496.18,0.671,-1.790,0.000,-0.449,-0.271,0.851,-0.066,0.793,-0.606,2522.43,-1.679,-2.126,0.112,-0.146,-0.117,0.982,0.437,0.270,0.858,10.879,5.176,1.435,-1.481,0.806,0.369,0.463,10.237,-6.153,-5.405,0.153,none
4.032124,0.567,-0.274,-0.777,2474.87,0.336,-1.007,0.448,-0.911,0.282,0.301,0.653,-0.454,-0.606,2459.27,-0.112,-0.336,0.000,-0.992,0.083,0.095,0.595,-0.191,-0.781,2486.67,1.455,0.000,0.448,-0.450,-0.271,0.851,-0.059,0.792,-0.607,2500.06,-0.895,-1.567,0.112,-0.144,-0.112,0.983,0.434,0.274,0.858,10.844,6.107,1.374,-1.756,0.803,0.371,0.466,10.268,-5.679,-4.992,-1.099,none
4.053948,0.581,-0.265,-0.769,2449.17,-0.671,0.448,0.000,-0.910,0.282,0.305,0.653,-0.459,-0.602,2474.93,0.224,-0.336,0.224,-0.992,0.069,0.110,0.592,-0.180,-0.786,2482.40,1.007,0.336,0.560,-0.447,-0.273,0.852,-0.051,0.793,-0.608,2498.22,0.336,-0.783,0.448,-0.132,-0.129,0.983,0.438,0.267,0.858,10.831,5.176,-0.061,-1.908,0.805,0.367,0.466,10.225,-5.985,-5.221,-1.176,none
4.075546,0.566,-0.275,-0.777,2462.21,-0.671,0.000,0.112,-0.911,0.292,0.289,0.648,-0.457,-0.609,2462.74,-0.336,0.336,-0.112,-0.991,0.090,0.097,0.591,-0.181,-0.786,2470.00,0.224,0.224,0.895,-0.450,-0.271,0.851,-0.056,0.795,-0.603,2467.70,0.112,-1.455,0.224,-0.143,-0.110,0.984,0.435,0.265,0.861,10.865,5.221,0.962,-2.198,0.806,0.365,0.466,10.223,-6.336,-4.458,-1.282,none
4.100150,0.567,-0.274,-0.777,2474.87,0.671,0.000,0.671,-0.912,0.289,0.290,0.652,-0.458,-0.605,2480.31,0.560,0.448,0.895,-0.993,0.076,0.094,0.597,-0.180,-0.782,2480.51,0.671,0.336,1.119,-0.449,-0.272,0.851,-0.056,0.788,-0.613,2477.41,0.224,0.000,0.000,-0.141,-0.124,0.982,0.436,0.269,0.859,10.855,5.481,0.275,-1.740,0.804,0.367,0.467,10.229,-5.664,-4.641,-1.328,none
4.121092,0.567,-0.274,-0.777,2474.87,0.224,0.336,0.112,-0.917,0.267,0.297,0.652,-0.462,-0.601,2479.54,-0.336,0.336,0.000,-0.994,0.079,0.075,0.599,-0.176,-0.781,2470.91,-0.224,0.112,0.112,-0.449,-0.273,0.851,-0.052,0.795,-0.604,2479.75,0.000,0.448,0.112,-0.149,-0.116,0.982,0.440,0.271,0.856,10.844,5.573,0.290,-1.832,0.805,0.370,0.464,10.233,-5.527,-4.595,-1.389,none
4.144636,0.568,-0.267,-0.778,2469.73,0.112,0.336,0.224,-0.911,0.276,0.307,0.650,-0.456,-0.607,2469.23,0.336,0.560,0.112,-0.989,0.086,0.123,0.597,-0.173,-0.784,2463.18,-0.448,0.336,0.000,-0.450,-0.272,0.850,-0.056,0.794,-0.606,2472.35,0.448,0.671,0.000,-0.143,-0.115,0.983,0.438,0.270,0.857,10.836,5.679,-0.153,-1.893,0.802,0.371,0.468,10.237,-5.359,-4.809,-1.695,none
4.169109,0.570,-0.268,-0.777,2461.96,-0.336,0.671,-0.224,-0.912,0.285,0.296,0.652,-0.457,-0.605,2463.82,-0.224,0.783,-0.336,-0.991,0.074,0.112,0.599,-0.176,-0.781,2470.91,0.560,0.783,0.112,-0.448,-0.272,0.851,-0.056,0.797,-0.601,2475.66,0.224,0.448,0.224,-0.143,-0.111,0.984,0.437,0.270,0.858,10.800,5.542,0.137,-2.458,0.804,0.371,0.465,10.219,-5.679,-4.168,-1.908,none
4.191264,0.569,-0.271,-0.776,2465.43,0.112,0.895,0.336,-0.914,0.283,0.289,0.652,-0.457,-0.605,2463.82,0.336,1.119,0.448,-0.994,0.083,0.076,0.594,-0.176,-0.785,2472.77,0.671,0.895,1.007,-0.448,-0.273,0.851,-0.056,0.795,-0.604,2480.29,0.336,0.671,0.224,-0.140,-0.119,0.983,0.438,0.271,0.857,10.839,5.771,-0.321,-2.565,0.802,0.372,0.467,10.242,-5.664,-4.214,-2.153,none
4.213991,0.569,-0.269,-0.777,2485.88,0.336,1.119,0.448,-0.908,0.285,0.307,0.653,-0.455,-0.606,2476.40,0.560,1.231,0.336,-0.989,0.094,0.116,0.597,-0.176,-0.783,2478.73,0.560,0.783,0.671,-0.451,-0.272,0.850,-0.056,0.795,-0.604,2480.29,0.895,0.783,0.112,-0.141,-0.115,0.983,0.438,0.270,0.857,10.835,5.725,-0.473,-2.244,0.803,0.370,0.467,10.209,-5.374,-4.229,-2.366,none
4.237359,0.570,-0.270,-0.776,2478.89,0.783,1.231,0.224,-0.915,0.275,0.295,0.655,-0.460,-0.600,2468.27,0.224,1.119,0.000,-0.993,0.067,0.092,0.599,-0.176,-0.781,2470.91,0.448,0.895,0.224,-0.451,-0.270,0.851,-0.052,0.795,-0.604,2479.75,-0.224,0.895,0.224,-0.139,-0.116,0.983,0.439,0.270,0.857,10.860,5.725,-0.305,-1.863,0.802,0.372,0.467,10.241,-5.298,-4.519,-1.802,none
4.259674,0.570,-0.270,-0.776,2478.89,0.336,0.783,0.224,-0.909,0.288,0.303,0.653,-0.461,-0.601,2462.39,0.112,0.671,-0.224,-0.994,0.083,0.076,0.597,-0.176,-0.783,2478.73,0.000,0.112,0.224,-0.450,-0.271,0.851,-0.052,0.795,-0.604,2479.75,0.224,0.224,0.112,-0.149,-0.114,0.982,0.439,0.271,0.857,10.847,5.649,0.046,-1.710,0.802,0.370,0.469,10.209,-5.527,-4.641,-1.237,none
4.281251,0.572,-0.271,-0.774,2471.14,0.336,0.671,0.112,-0.918,0.277,0.286,0.654,-0.458,-0.602,2457.14,0.112,0.112,-0.112,-0.991,0.084,0.103,0.597,-0.180,-0.782,2480.51,0.224,0.224,0.112,-0.450,-0.273,0.850,-0.052,0.796,-0.604,2467.16,-0.448,0.112,0.112,-0.140,-0.119,0.983,0.436,0.271,0.858,10.865,5.481,0.366,-1.649,0.800,0.373,0.469,10.223,-5.740,-4.595,-0.794,none
4.305793,0.572,-0.274,-0.773,2472.82,-0.224,-0.224,0.224,-0.910,0.296,0.289,0.655,-0.460,-0.600,2468.27,0.112,-0.224,0.336,-0.991,0.090,0.096,0.600,-0.181,-0.779,2467.23,0.336,-0.336,0.000,-0.450,-0.273,0.850,-0.052,0.792,-0.608,2478.67,0.336,-0.336,-0.112,-0.143,-0.118,0.983,0.438,0.271,0.857,10.825,5.527,0.183,-1.267,0.801,0.371,0.469,10.226,-5.527,-4.885,-0.351,none
4.328028,0.569,-0.271,-0.776,2465.43,0.112,-0.448,0.000,-0.916,0.280,0.286,0.652,-0.458,-0.605,2480.31,0.224,-0.560,0.112,-0.990,0.097,0.107,0.597,-0.176,-0.783,2478.73,-0.783,-0.671,-0.448,-0.449,-0.272,0.851,-0.055,0.791,-0.609,2493.21,0.112,-0.112,-0.112,-0.141,-0.121,0.983,0.440,0.271,0.856,10.847,5.618,0.153,-1.405,0.803,0.374,0.464,10.215,-5.359,-4.779,-0.931,none
4.351249,0.579,-0.268,-0.770,2457.99,0.000,-0.448,0.224,-0.917,0.293,0.271,0.657,-0.463,-0.594,2474.73,-0.336,0.112,-0.112,-0.995,0.078,0.067,0.606,-0.169,-0.777,2459.45,1.679,1.007,-0.560,-0.449,-0.272,0.851,-0.055,0.794,-0.605,2492.69,-0.448,0.560,-0.224,-0.140,-0.122,0.983,0.443,0.272,0.854,10.863,6.550,0.046,-1.634,0.802,0.373,0.467,10.225,-4.901,-5.084,-1.588,none
4.372164,0.572,-0.268,-0.775,2454.98,0.336,1.007,-0.336,-0.916,0.280,0.286,0.653,-0.455,-0.606,2476.40,-0.560,0.783,-0.560,-0.994,0.070,0.084,0.596,-0.187,-0.781,2484.77,1.567,1.679,-0.560,-0.449,-0.273,0.851,-0.051,0.798,-0.600,2494.89,-1.007,0.336,0.112,-0.146,-0.111,0.983,0.439,0.271,0.857,10.852,6.687,0.183,-1.939,0.802,0.373,0.466,10.225,-5.084,-4.550,-1.954,none
4.392636,0.568,-0.267,-0.778,2469.73,0.336,1.007,0.000,-0.913,0.285,0.292,0.651,-0.460,-0.604,2467.76,0.336,1.007,-0.336,-0.991,0.082,0.103,0.591,-0.184,-0.785,2471.83,1.231,1.343,-0.224,-0.451,-0.273,0.850,-0.056,0.799,-0.599,2468.86,0.560,0.224,-0.112,-0.144,-0.113,0.983,0.440,0.269,0.857,10.828,6.397,0.656,-2.321,0.803,0.371,0.466,10.213,-5.450,-4.305,-2.107,none
4.412951,0.569,-0.271,-0.776,2465.43,0.336,1.007,0.448,-0.911,0.282,0.301,0.652,-0.457,-0.605,2463.82,-0.112,1.231,0.336,-0.994,0.067,0.091,0.600,-0.177,-0.780,2465.45,0.895,1.119,0.112,-0.451,-0.272,0.850,-0.056,0.797,-0.601,2475.66,0.224,0.448,0.000,-0.138,-0.127,0.982,0.440,0.271,0.856,10.856,6.305,0.641,-2.519,0.803,0.373,0.466,10.232,-5.542,-4.122,-2.275,none
4.432936,0.568,-0.271,-0.778,2473.20,1.007,1.231,0.895,-0.909,0.295,0.296,0.653,-0.459,-0.602,2474.93,0.448,1.343,0.560,-0.990,0.080,0.113,0.601,-0.180,-0.779,2479.47,1.231,1.231,0.336,-0.452,-0.271,0.850,-0.051,0.797,-0.602,2486.92,0.112,0.671,0.000,-0.131,-0.124,0.984,0.438,0.272,0.857,10.852,6.489,0.366,-2.427,0.803,0.373,0.466,10.208,-5.344,-4.031,-2.458,none
4.453962,0.573,-0.275,-0.772,2465.86,0.671,1.902,0.448,-0.914,0.293,0.281,0.650,-0.464,-0.603,2472.38,0.000,1.679,0.112,-0.989,0.086,0.123,0.599,-0.180,-0.781,2472.69,2.126,1.455,-0.112,-0.450,-0.273,0.850,-0.051,0.794,-0.605,2492.16,0.224,1.231,0.224,-0.133,-0.126,0.983,0.438,0.272,0.857,10.822,6.321,0.275,-2.229,0.806,0.368,0.463,10.290,-5.099,-4.931,-1.893,none
4.474213,0.569,-0.271,-0.776,2465.43,0.560,1.231,0.224,-0.914,0.289,0.286,0.651,-0.465,-0.600,2483.71,0.112,0.783,0.000,-0.995,0.085,0.049,0.597,-0.173,-0.784,2463.18,1.902,1.231,-0.224,-0.449,-0.275,0.850,-0.052,0.787,-0.615,2469.00,2.238,0.000,0.000,-0.146,-0.109,0.983,0.437,0.273,0.857,10.865,5.802,-0.046,-2.076,0.801,0.375,0.468,10.232,-5.420,-4.473,-1.969,none
4.494345,0.575,-0.268,-0.773,2460.71,-0.560,0.560,-0.224,-0.915,0.291,0.281,0.651,-0.460,-0.604,2467.76,-0.112,0.671,-0.224,-0.990,0.075,0.120,0.596,-0.177,-0.783,2464.93,0.448,0.895,0.224,-0.451,-0.271,0.850,-0.056,0.792,-0.608,2479.21,-1.567,1.231,0.560,-0.141,-0.115,0.983,0.437,0.274,0.857,10.846,5.542,0.366,-2.275,0.802,0.373,0.466,10.238,-5.786,-4.504,-2.031,none
4.514055,0.572,-0.271,-0.774,2471.14,-0.112,1.231,0.224,-0.918,0.271,0.289,0.653,-0.459,-0.602,2474.93,0.224,1.119,0.448,-0.993,0.084,0.085,0.599,-0.180,-0.781,2472.69,1.567,0.895,1.007,-0.450,-0.274,0.850,-0.052,0.799,-0.599,2468.32,-0.112,-0.112,0.000,-0.138,-0.111,0.984,0.437,0.273,0.857,10.841,5.344,0.733,-2.519,0.802,0.373,0.467,10.240,-6.183,-4.061,-2.153,none
4.533347,0.572,-0.271,-0.774,2471.14,0.336,1.119,0.336,-0.909,0.279,0.311,0.655,-0.460,-0.600,2468.27,0.336,1.455,0.560,-0.994,0.075,0.083,0.600,-0.184,-0.778,2481.29,1.790,0.671,1.119,-0.451,-0.274,0.850,-0.056,0.792,-0.608,2479.21,1.119,-0.671,-0.224,-0.140,-0.115,0.983,0.438,0.271,0.857,10.840,5.313,0.748,-2.458,0.800,0.376,0.467,10.205,-6.275,-4.275,-1.817,none
4.552994,0.575,-0.270,-0.772,2476.10,0.448,0.671,0.448,-0.915,0.296,0.273,0.655,-0.460,-0.600,2468.27,0.112,0.895,0.783,-0.992,0.087,0.096,0.598,-0.184,-0.780,2474.52,2.014,0.671,1.231,-0.451,-0.270,0.851,-0.052,0.794,-0.606,2471.81,0.112,0.000,0.000,-0.130,-0.127,0.983,0.438,0.272,0.857,10.853,5.374,0.519,-2.214,0.800,0.374,0.469,10.236,-6.107,-4.595,-1.389,none
4.572819,0.576,-0.274,-0.770,2470.84,0.448,0.336,0.560,-0.911,0.297,0.287,0.656,-0.458,-0.600,2481.48,0.448,0.671,0.560,-0.991,0.095,0.097,0.598,-0.188,-0.780,2476.97,1.007,0.112,0.895,-0.451,-0.271,0.850,-0.051,0.792,-0.609,2492.68,0.112,0.000,-0.112,-0.139,-0.111,0.984,0.437,0.271,0.858,10.871,5.557,0.000,-1.802,0.800,0.374,0.470,10.231,-5.557,-5.282,-1.023,none
4.594306,0.572,-0.274,-0.773,2472.82,-0.112,-0.112,-0.112,-0.914,0.279,0.294,0.656,-0.458,-0.600,2481.48,-0.112,0.336,0.000,-0.994,0.062,0.091,0.599,-0.185,-0.779,2469.06,-0.112,0.336,0.112,-0.451,-0.271,0.851,-0.051,0.793,-0.606,2486.60,0.224,0.336,0.112,-0.145,-0.111,0.983,0.438,0.275,0.856,10.872,5.511,-0.168,-1.435,0.800,0.375,0.468,10.225,-5.374,-5.420,-0.870,none
4.617482,0.572,-0.274,-0.773,2472.82,-0.448,-0.224,-0.448,-0.911,0.288,0.296,0.653,-0.459,-0.602,2474.93,-0.224,0.000,-0.224,-0.995,0.064,0.072,0.599,-0.185,-0.779,2469.06,-0.560,0.224,-0.112,-0.451,-0.272,0.850,-0.052,0.797,-0.602,2475.12,-0.560,0.112,0.112,-0.142,-0.109,0.984,0.437,0.274,0.857,10.851,5.649,-0.061,-1.145,0.798,0.375,0.472,10.226,-5.344,-5.176,-0.550,none
4.640183,0.573,-0.275,-0.772,2465.86,-0.112,-0.336,-0.112,-0.917,0.296,0.268,0.657,-0.459,-0.598,2474.83,0.112,-0.224,-0.112,-0.994,0.074,0.074,0.599,-0.188,-0.778,2469.96,-0.112,-0.112,-0.336,-0.452,-0.270,0.850,-0.052,0.792,-0.608,2463.88,-0.112,-0.224,0.112,-0.147,-0.102,0.984,0.437,0.273,0.857,10.854,5.634,-0.031,-0.489,0.800,0.375,0.468,10.224,-5.328,-5.389,0.351,none
4.662508,0.575,-0.270,-0.772,2476.10,-0.783,-1.343,-0.671,-0.911,0.313,0.268,0.653,-0.459,-0.602,2474.93,-0.336,-1.343,-0.560,-0.993,0.082,0.084,0.602,-0.184,-0.777,2474.29,-1.231,-0.895,-1.007,-0.453,-0.272,0.849,-0.051,0.793,-0.606,2486.60,-0.448,-0.336,0.112,-0.140,-0.114,0.984,0.436,0.273,0.857,10.881,5.634,-0.061,-0.305,0.802,0.372,0.468,10.221,-5.221,-5.618,0.733,none
4.685549,0.572,-0.271,-0.774,2471.14,-1.231,-1.679,-0.560,-0.918,0.267,0.295,0.651,-0.460,-0.604,2467.76,-0.671,-1.455,-0.560,-0.994,0.084,0.076,0.599,-0.180,-0.781,2472.69,-1.790,-0.783,-1.343,-0.450,-0.273,0.850,-0.056,0.792,-0.608,2479.21,-0.560,-0.336,-0.112,-0.140,-0.112,0.984,0.438,0.272,0.857,10.845,5.618,-0.183,-0.183,0.803,0.372,0.465,10.244,-5.191,-5.710,0.718,none
4.708564,0.576,-0.266,-0.773,2474.19,-0.783,-1.119,-0.895,-0.910,0.274,0.312,0.656,-0.458,-0.600,2481.48,-0.671,-1.679,-0.560,-0.995,0.078,0.056,0.597,-0.180,-0.782,2480.51,-1.790,-0.783,-1.231,-0.451,-0.271,0.850,-0.052,0.797,-0.602,2475.12,-0.783,-0.336,0.000,-0.134,-0.119,0.984,0.439,0.274,0.856,10.870,5.435,0.534,-0.137,0.802,0.374,0.465,10.261,-5.542,-5.511,1.282,none
4.732494,0.573,-0.267,-0.775,2467.68,-0.895,-1.902,-0.671,-0.922,0.289,0.257,0.653,-0.459,-0.602,2474.93,-0.112,-1.679,-0.671,-0.995,0.074,0.074,0.599,-0.180,-0.781,2472.69,-1.790,-1.790,-1.231,-0.451,-0.275,0.849,-0.052,0.795,-0.604,2479.75,-0.336,-0.560,-0.224,-0.137,-0.117,0.984,0.440,0.280,0.853,10.852,6.260,1.649,0.275,0.804,0.377,0.460,10.203,-4.794,-5.221,0.595,none
4.753534,0.575,-0.270,-0.772,2476.10,-0.224,-1.231,-1.007,-0.918,0.287,0.276,0.658,-0.456,-0.599,2470.91,-0.336,-1.679,-1.007,-0.994,0.062,0.090,0.603,-0.187,-0.776,2488.97,-0.671,-0.783,-1.007,-0.451,-0.273,0.850,-0.051,0.797,-0.602,2486.92,-0.336,-0.895,-0.224,-0.140,-0.121,0.983,0.437,0.276,0.856,10.876,7.099,1.893,0.427,0.802,0.375,0.466,10.201,-4.794,-5.679,0.641,none
4.774698,0.575,-0.270,-0.772,2476.10,-0.560,-0.895,-1.231,-0.916,0.269,0.297,0.653,-0.459,-0.602,2474.93,-0.224,-1.007,-1.007,-0.990,0.083,0.114,0.599,-0.176,-0.781,2470.91,-1.455,-0.112,-0.895,-0.451,-0.273,0.850,-0.052,0.798,-0.600,2480.71,-0.895,-0.783,0.000,-0.135,-0.115,0.984,0.435,0.276,0.857,10.852,5.954,0.626,0.366,0.802,0.374,0.466,10.218,-4.931,-6.198,0.504,none
4.796139,0.568,-0.271,-0.778,2473.20,-1.343,-1.231,-1.343,-0.916,0.281,0.288,0.653,-0.454,-0.606,2459.27,-0.895,-0.895,-1.119,-0.993,0.063,0.099,0.599,-0.176,-0.781,2470.91,-1.231,0.000,-0.112,-0.451,-0.271,0.851,-0.056,0.795,-0.604,2480.29,-1.119,-1.343,0.336,-0.141,-0.121,0.983,0.437,0.271,0.858,10.839,6.336,1.359,-0.397,0.803,0.369,0.467,10.237,-5.389,-5.756,0.153,none
4.820019,0.569,-0.271,-0.776,2465.43,-0.783,-0.783,-0.895,-0.916,0.265,0.301,0.649,-0.459,-0.606,2474.46,-0.895,-0.671,-0.671,-0.994,0.072,0.082,0.598,-0.173,-0.782,2457.70,-1.231,0.000,0.336,-0.449,-0.271,0.851,-0.056,0.797,-0.601,2475.66,-0.448,-1.119,-0.112,-0.145,-0.106,0.984,0.435,0.269,0.860,10.844,5.771,1.359,-0.992,0.807,0.366,0.463,10.219,-5.832,-5.328,-0.229,none
4.841697,0.566,-0.267,-0.780,2464.84,-0.671,-0.671,-0.112,-0.914,0.300,0.274,0.647,-0.460,-0.608,2467.98,-0.671,-0.336,-0.112,-0.991,0.064,0.118,0.596,-0.174,-0.784,2451.55,-1.119,-0.560,0.448,-0.452,-0.273,0.849,-0.059,0.798,-0.600,2495.14,-1.119,-0.783,0.112,-0.138,-0.120,0.983,0.436,0.269,0.859,10.890,5.206,0.504,-1.771,0.808,0.367,0.460,10.244,-6.046,-4.962,-0.916,none
4.864044,0.566,-0.264,-0.781,2461.41,0.000,0.000,0.448,-0.908,0.281,0.310,0.650,-0.456,-0.607,2469.23,0.671,0.448,0.560,-0.994,0.075,0.084,0.599,-0.169,-0.783,2455.99,-0.112,0.000,0.671,-0.453,-0.273,0.848,-0.059,0.794,-0.605,2494.00,0.224,-0.336,0.224,-0.134,-0.123,0.983,0.437,0.272,0.858,10.805,4.992,0.840,-2.611,0.805,0.369,0.464,10.223,-6.229,-4.702,-1.756,none
4.884947,0.567,-0.268,-0.779,2457.05,-0.112,0.448,0.336,-0.912,0.263,0.314,0.654,-0.451,-0.607,2454.09,-0.448,1.231,0.112,-0.992,0.069,0.110,0.602,-0.177,-0.778,2457.65,1.343,1.231,1.343,-0.453,-0.271,0.849,-0.063,0.801,-0.596,2499.15,-0.336,-0.783,0.112,-0.147,-0.110,0.983,0.435,0.273,0.858,10.837,5.099,0.382,-2.885,0.802,0.371,0.469,10.214,-6.260,-4.351,-2.290,none
4.907224,0.572,-0.274,-0.773,2472.82,1.119,1.343,0.671,-0.919,0.269,0.289,0.653,-0.459,-0.602,2474.93,0.224,1.790,0.336,-0.994,0.064,0.090,0.599,-0.180,-0.781,2472.69,1.231,1.343,1.343,-0.454,-0.269,0.850,-0.052,0.790,-0.610,2470.76,0.224,-0.112,0.112,-0.133,-0.116,0.984,0.439,0.272,0.856,10.811,5.160,0.763,-2.427,0.803,0.372,0.466,10.214,-6.183,-4.473,-1.954,none
4.929133,0.574,-0.273,-0.772,2479.32,0.783,0.783,0.336,-0.919,0.249,0.307,0.656,-0.457,-0.601,2464.34,-0.112,1.119,0.224,-0.993,0.071,0.093,0.600,-0.177,-0.780,2465.45,1.007,0.671,0.671,-0.454,-0.269,0.849,-0.052,0.797,-0.602,2475.12,-0.895,-0.336,0.000,-0.144,-0.117,0.983,0.436,0.275,0.857,10.848,5.160,1.298,-2.168,0.803,0.372,0.466,10.227,-6.366,-4.366,-1.267,none
4.951725,0.570,-0.270,-0.776,2478.89,0.224,0.448,0.560,-0.919,0.274,0.284,0.653,-0.459,-0.602,2474.93,-0.336,0.671,0.560,-0.993,0.088,0.077,0.600,-0.184,-0.778,2481.29,1.343,-0.448,0.671,-0.454,-0.273,0.848,-0.052,0.799,-0.599,2468.32,-0.560,-0.224,0.000,-0.136,-0.123,0.983,0.437,0.273,0.857,10.866,5.130,1.359,-2.244,0.803,0.371,0.467,10.236,-6.458,-4.397,-1.160,none
4.973166,0.572,-0.271,-0.774,2471.14,0.000,0.224,0.336,-0.920,0.261,0.293,0.654,-0.456,-0.603,2469.70,-0.336,0.671,0.560,-0.990,0.079,0.113,0.598,-0.184,-0.780,2474.52,1.119,0.112,1.007,-0.453,-0.269,0.850,-0.056,0.795,-0.604,2480.29,-0.224,-0.448,0.112,-0.128,-0.125,0.984,0.434,0.274,0.858,10.874,5.282,1.099,-2.183,0.803,0.372,0.466,10.229,-6.198,-4.489,-1.145,none
4.994145,0.572,-0.271,-0.774,2471.14,0.112,0.224,0.336,-0.911,0.284,0.298,0.653,-0.459,-0.602,2474.93,-0.448,0.336,0.224,-0.994,0.056,0.090,0.599,-0.185,-0.779,2469.06,1.231,0.112,0.783,-0.455,-0.269,0.849,-0.052,0.797,-0.602,2475.12,0.448,-0.895,0.000,-0.142,-0.114,0.983,0.433,0.274,0.859,10.838,5.313,0.870,-1.878,0.803,0.372,0.466,10.243,-6.107,-4.595,-0.412,none
5.016822,0.572,-0.271,-0.774,2471.14,0.112,-0.671,0.224,-0.908,0.293,0.299,0.656,-0.458,-0.600,2481.48,0.112,-0.448,0.448,-0.994,0.075,0.083,0.603,-0.180,-0.777,2472.47,0.224,-0.448,0.448,-0.455,-0.267,0.850,-0.052,0.794,-0.606,2471.81,0.560,-0.560,-0.112,-0.137,-0.116,0.984,0.435,0.274,0.857,10.875,5.756,0.656,-1.878,0.802,0.373,0.466,10.215,-6.305,-4.901,0.229,none
5.039442,0.571,-0.272,-0.774,2456.90,0.112,-0.895,0.560,-0.909,0.273,0.315,0.654,-0.458,-0.602,2457.14,0.448,-0.671,0.560,-0.991,0.082,0.103,0.600,-0.181,-0.779,2467.23,-0.448,-0.560,0.448,-0.453,-0.266,0.851,-0.056,0.795,-0.604,2480.29,0.336,-0.112,0.224,-0.140,-0.126,0.982,0.434,0.273,0.859,10.841,5.557,0.565,-1.969,0.800,0.373,0.470,10.223,-5.939,-5.282,-1.664,none
5.061830,0.570,-0.270,-0.776,2478.89,0.224,-0.783,0.560,-0.914,0.293,0.281,0.654,-0.456,-0.603,2469.70,0.783,-0.112,0.895,-0.996,0.072,0.055,0.600,-0.184,-0.778,2481.29,0.000,-0.112,0.671,-0.455,-0.268,0.849,-0.055,0.794,-0.606,2506.68,1.343,0.000,0.112,-0.142,-0.120,0.983,0.432,0.268,0.861,10.864,5.359,-0.656,-1.939,0.805,0.365,0.467,10.245,-5.405,-4.366,-2.107,none
5.083653,0.567,-0.274,-0.777,2474.87,0.000,0.448,0.671,-0.925,0.278,0.261,0.650,-0.464,-0.603,2472.38,0.783,0.895,0.224,-0.993,0.063,0.099,0.594,-0.184,-0.783,2476.38,0.448,0.336,0.560,-0.455,-0.268,0.849,-0.059,0.791,-0.609,2492.93,1.790,0.448,0.112,-0.133,-0.126,0.983,0.436,0.273,0.858,10.830,5.771,-1.893,-1.466,0.805,0.371,0.464,10.204,-4.611,-4.977,-2.321,none
5.106556,0.569,-0.271,-0.776,2465.43,-0.895,1.343,-1.007,-0.919,0.274,0.284,0.654,-0.456,-0.603,2469.70,-0.895,0.671,-1.007,-0.993,0.063,0.099,0.599,-0.179,-0.780,2487.27,0.224,1.343,-0.224,-0.453,-0.269,0.850,-0.056,0.795,-0.604,2480.29,-0.783,1.119,0.560,-0.138,-0.125,0.982,0.438,0.275,0.856,10.873,5.695,-0.321,-2.275,0.803,0.373,0.465,10.245,-5.389,-3.710,-2.458,none
5.130924,0.573,-0.267,-0.775,2467.68,1.119,1.231,0.448,-0.923,0.259,0.285,0.651,-0.460,-0.604,2467.76,0.895,1.679,0.895,-0.991,0.093,0.097,0.599,-0.176,-0.781,2470.91,2.014,0.336,1.231,-0.457,-0.266,0.849,-0.056,0.800,-0.597,2476.05,1.343,0.895,-0.112,-0.144,-0.122,0.982,0.435,0.273,0.858,10.859,5.557,0.580,-3.298,0.803,0.373,0.465,10.240,-6.229,-2.855,-3.176,none
5.152977,0.573,-0.275,-0.772,2465.86,1.119,2.014,1.007,-0.913,0.306,0.269,0.653,-0.459,-0.602,2474.93,1.231,2.574,1.790,-0.996,0.051,0.077,0.598,-0.188,-0.780,2476.97,3.357,0.783,1.790,-0.456,-0.267,0.849,-0.055,0.793,-0.606,2487.13,2.462,0.224,0.000,-0.148,-0.113,0.983,0.431,0.275,0.859,10.828,5.603,0.122,-3.313,0.800,0.372,0.471,10.206,-6.137,-3.176,-3.160,none
5.174068,0.573,-0.275,-0.772,2465.86,1.343,1.902,1.007,-0.909,0.279,0.311,0.657,-0.463,-0.594,2474.73,0.448,1.567,1.007,-0.990,0.079,0.113,0.601,-0.192,-0.776,2478.64,2.686,0.560,1.455,-0.454,-0.265,0.851,-0.052,0.791,-0.610,2455.96,1.679,0.000,0.336,-0.137,-0.116,0.984,0.435,0.277,0.857,10.821,5.618,0.214,-2.015,0.800,0.374,0.468,10.228,-5.725,-4.336,-1.679,none
5.195537,0.574,-0.273,-0.772,2479.32,-0.112,0.224,0.112,-0.918,0.281,0.280,0.662,-0.455,-0.595,2472.14,-0.112,0.112,-0.112,-0.994,0.070,0.082,0.606,-0.188,-0.773,2474.26,-0.112,-0.783,0.000,-0.456,-0.266,0.850,-0.052,0.790,-0.610,2470.76,1.231,-0.671,0.000,-0.134,-0.121,0.984,0.433,0.274,0.859,10.853,5.649,0.260,-0.901,0.801,0.374,0.467,10.214,-5.450,-4.870,0.397,none
5.216829,0.572,-0.274,-0.773,2472.82,0.000,-1.567,0.000,-0.919,0.261,0.296,0.657,-0.459,-0.598,2474.83,0.560,-1.455,0.224,-0.994,0.083,0.076,0.600,-0.191,-0.777,2484.07,-1.231,-1.567,-1.119,-0.455,-0.267,0.850,-0.052,0.786,-0.616,2482.23,1.119,-0.336,-0.112,-0.147,-0.112,0.983,0.431,0.273,0.860,10.830,5.878,-0.519,0.519,0.801,0.373,0.469,10.205,-4.626,-5.786,1.557,none
5.245308,0.572,-0.274,-0.773,2472.82,-1.567,-2.126,-1.007,-0.914,0.293,0.281,0.656,-0.462,-0.597,2479.43,0.112,-2.910,-0.560,-0.992,0.094,0.079,0.598,-0.184,-0.780,2474.52,-2.910,-1.790,-2.574,-0.455,-0.267,0.849,-0.056,0.790,-0.611,2485.30,0.112,-0.112,0.000,-0.145,-0.115,0.983,0.435,0.274,0.858,10.831,6.229,-1.069,1.176,0.803,0.373,0.464,10.214,-4.107,-6.290,1.939,none
5.269419,0.572,-0.271,-0.774,2471.14,-1.679,-2.462,-1.902,-0.914,0.289,0.286,0.657,-0.459,-0.598,2474.83,-0.448,-3.133,-1.343,-0.993,0.080,0.085,0.600,-0.181,-0.779,2467.23,-3.693,-1.790,-2.686,-0.455,-0.269,0.849,-0.052,0.796,-0.604,2467.16,-1.119,0.448,0.112,-0.136,-0.123,0.983,0.436,0.287,0.853,10.831,6.931,1.267,1.145,0.797,0.388,0.463,10.244,-4.565,-5.542,1.542,none
5.283067,0.570,-0.268,-0.777,2499.34,-2.238,-1.902,-1.679,-0.916,0.281,0.288,0.667,-0.454,-0.591,2455.73,-0.224,-3.469,-0.336,-0.994,0.070,0.083,0.610,-0.176,-0.773,2475.84,-4.141,-3.021,-1.231,-0.454,-0.269,0.849,-0.048,0.802,-0.596,2483.03,0.783,-1.343,0.112,-0.133,-0.118,0.984,0.431,0.291,0.854,10.843,6.580,1.603,0.611,0.797,0.389,0.461,10.242,-5.466,-5.252,0.733,none
5.306619,0.584,-0.267,-0.766,2469.05,-0.895,-1.455,0.000,-0.914,0.277,0.296,0.662,-0.455,-0.595,2472.14,0.224,-0.671,1.902,-0.991,0.074,0.111,0.606,-0.172,-0.777,2475.76,-1.679,-1.007,3.357,-0.452,-0.268,0.851,-0.047,0.798,-0.601,2508.38,1.007,-1.567,0.224,-0.128,-0.125,0.984,0.439,0.286,0.852,10.838,5.328,-0.168,-1.221,0.802,0.380,0.462,10.253,-6.260,-5.450,-1.267,none
5.330371,0.572,-0.259,-0.778,2470.96,-0.560,0.448,0.895,-0.913,0.278,0.299,0.650,-0.456,-0.607,2469.23,-0.448,1.679,2.126,-0.994,0.075,0.083,0.598,-0.168,-0.784,2475.29,0.448,0.112,4.700,-0.456,-0.265,0.850,-0.056,0.802,-0.595,2470.09,1.119,-1.231,0.560,-0.131,-0.122,0.984,0.442,0.265,0.857,10.872,5.817,1.298,-3.084,0.808,0.364,0.463,10.238,-7.115,-3.725,-3.008,none
5.351885,0.561,-0.267,-0.783,2466.81,1.119,1.679,2.798,-0.921,0.286,0.264,0.647,-0.460,-0.608,2467.98,1.119,2.462,3.581,-0.993,0.080,0.084,0.588,-0.185,-0.787,2465.93,2.910,-0.448,4.924,-0.460,-0.262,0.849,-0.063,0.782,-0.620,2482.23,2.910,-1.455,0.224,-0.125,-0.119,0.985,0.444,0.259,0.858,10.851,5.511,0.672,-3.420,0.809,0.358,0.467,10.240,-6.855,-4.137,-3.115,none
5.372930,0.558,-0.271,-0.784,2464.69,0.448,1.679,2.126,-0.914,0.298,0.276,0.641,-0.467,-0.610,2475.79,-0.336,1.679,1.902,-0.993,0.075,0.094,0.584,-0.191,-0.789,2484.48,2.350,0.671,3.469,-0.461,-0.262,0.848,-0.064,0.776,-0.627,2451.84,1.790,-1.455,0.224,-0.130,-0.116,0.985,0.433,0.252,0.865,10.843,5.450,0.473,-2.489,0.811,0.350,0.470,10.261,-6.366,-4.336,-2.031,none
5.394587,0.551,-0.280,-0.786,2458.83,0.112,0.560,0.895,-0.905,0.300,0.302,0.634,-0.473,-0.612,2484.91,0.000,0.895,0.671,-0.991,0.072,0.112,0.576,-0.195,-0.793,2482.72,1.231,0.448,1.790,-0.459,-0.260,0.849,-0.063,0.791,-0.608,2480.34,0.000,0.224,0.224,-0.130,-0.130,0.983,0.430,0.262,0.864,10.839,5.405,-0.107,-1.389,0.805,0.360,0.472,10.211,-5.359,-4.672,-2.153,none
5.416637,0.566,-0.275,-0.777,2462.21,-0.448,0.671,-0.783,-0.915,0.283,0.288,0.650,-0.464,-0.603,2472.38,-1.007,0.448,-0.783,-0.994,0.076,0.074,0.595,-0.169,-0.786,2456.90,2.238,1.455,-0.224,-0.461,-0.259,0.849,-0.055,0.796,-0.603,2500.64,-1.343,-0.112,0.336,-0.125,-0.119,0.985,0.438,0.273,0.856,10.866,5.313,-0.275,-2.840,0.805,0.370,0.463,10.260,-5.527,-4.687,-4.412,none
5.439498,0.568,-0.267,-0.778,2469.73,0.224,2.686,-0.448,-0.919,0.276,0.281,0.649,-0.455,-0.610,2475.32,-1.679,2.798,-1.231,-0.990,0.091,0.106,0.595,-0.172,-0.785,2471.03,3.245,2.574,1.790,-0.460,-0.259,0.849,-0.056,0.807,-0.588,2466.32,-4.700,2.350,1.007,-0.128,-0.125,0.984,0.435,0.275,0.858,10.857,5.069,0.718,-4.626,0.804,0.374,0.463,10.241,-6.473,-2.595,-6.031,none
5.460568,0.573,-0.267,-0.775,2467.68,1.902,3.581,1.343,-0.921,0.277,0.275,0.651,-0.460,-0.604,2467.76,0.448,3.357,1.567,-0.993,0.076,0.094,0.599,-0.185,-0.779,2469.06,4.364,1.119,2.686,-0.462,-0.262,0.847,-0.056,0.794,-0.606,2472.35,1.790,0.000,0.112,-0.128,-0.123,0.984,0.433,0.274,0.859,10.834,5.069,1.542,-5.634,0.800,0.377,0.467,10.226,-7.145,-1.450,-6.611,none
5.482826,0.575,-0.268,-0.773,2460.71,1.902,3.917,2.126,-0.916,0.300,0.267,0.655,-0.459,-0.600,2452.38,1.455,3.469,3.357,-0.991,0.088,0.097,0.598,-0.188,-0.780,2476.97,4.364,0.224,2.798,-0.461,-0.260,0.848,-0.055,0.794,-0.605,2492.69,2.910,1.567,0.336,-0.133,-0.119,0.984,0.427,0.277,0.861,10.800,4.947,0.550,-5.374,0.799,0.375,0.471,10.220,-7.328,-1.542,-6.763,none
5.506197,0.571,-0.278,-0.773,2476.35,3.021,4.029,3.021,-0.918,0.275,0.288,0.659,-0.460,-0.596,2470.11,0.000,3.581,2.462,-0.989,0.091,0.114,0.598,-0.196,-0.777,2474.58,3.357,0.895,2.462,-0.460,-0.262,0.848,-0.056,0.784,-0.619,2453.83,3.021,0.448,-0.448,-0.136,-0.128,0.982,0.432,0.272,0.860,10.875,5.847,1.099,-5.221,0.796,0.375,0.474,10.221,-6.702,-2.565,-5.267,none
5.529801,0.579,-0.272,-0.769,2461.46,1.343,2.574,2.126,-0.907,0.322,0.271,0.660,-0.461,-0.593,2464.17,-0.336,2.126,1.119,-0.992,0.093,0.087,0.596,-0.203,-0.777,2484.79,1.902,0.448,0.783,-0.459,-0.264,0.849,-0.052,0.780,-0.624,2479.13,1.902,0.448,0.000,-0.137,-0.120,0.983,0.431,0.280,0.858,10.847,6.153,0.947,-3.740,0.792,0.383,0.476,10.220,-5.878,-3.893,-2.931,none
5.552521,0.578,-0.277,-0.767,2480.14,0.336,1.343,0.783,-0.928,0.270,0.257,0.657,-0.468,-0.591,2490.15,-1.119,-0.112,-1.119,-0.993,0.088,0.078,0.598,-0.209,-0.774,2458.19,0.560,0.448,-0.671,-0.459,-0.264,0.848,-0.052,0.780,-0.623,2450.90,0.671,0.895,0.000,-0.132,-0.124,0.983,0.431,0.280,0.858,10.860,5.634,0.321,-1.267,0.799,0.380,0.466,10.266,-5.344,-5.985,-0.397,none
5.575471,0.580,-0.260,-0.772,2453.48,-0.336,-0.560,-0.448,-0.916,0.287,0.279,0.663,-0.452,-0.596,2467.60,-1.007,-0.783,-1.119,-0.991,0.095,0.098,0.602,-0.195,-0.774,2492.01,-4.141,0.560,-1.343,-0.460,-0.265,0.848,-0.049,0.786,-0.616,2431.80,0.112,0.224,0.112,-0.138,-0.114,0.984,0.431,0.277,0.859,10.819,5.511,0.672,-0.229,0.797,0.377,0.473,10.252,-5.511,-5.588,1.710,none
5.598146,0.573,-0.279,-0.771,2467.86,-0.783,-2.350,-0.448,-0.909,0.295,0.296,0.659,-0.460,-0.596,2470.11,-0.224,-2.686,-0.112,-0.996,0.072,0.055,0.599,-0.188,-0.778,2469.96,-2.126,-1.902,-1.567,-0.458,-0.263,0.849,-0.056,0.790,-0.611,2485.30,-0.336,-1.343,-0.112,-0.141,-0.116,0.983,0.433,0.278,0.857,10.809,5.573,0.672,0.031,0.796,0.379,0.472,10.221,-5.344,-5.802,2.107,none
5.620913,0.576,-0.274,-0.770,2470.84,-0.783,-2.238,-0.448,-0.920,0.287,0.268,0.653,-0.463,-0.598,2472.89,0.000,-2.574,-0.336,-0.994,0.080,0.076,0.600,-0.191,-0.777,2484.07,-3.133,-1.567,-1.455,-0.458,-0.266,0.848,-0.055,0.786,-0.616,2496.78,-0.112,-1.007,0.000,-0.132,-0.121,0.984,0.429,0.277,0.860,10.828,5.710,0.092,0.183,0.796,0.376,0.474,10.229,-5.023,-5.924,1.985,none
5.642271,0.570,-0.279,-0.772,2462.15,-0.671,-2.238,-0.560,-0.917,0.293,0.270,0.653,-0.463,-0.598,2472.89,0.448,-2.126,-0.560,-0.991,0.085,0.104,0.599,-0.192,-0.778,2471.86,-3.469,-1.567,-1.679,-0.459,-0.265,0.848,-0.055,0.788,-0.613,2490.64,0.336,-0.112,-0.112,-0.136,-0.115,0.984,0.431,0.276,0.859,10.844,5.985,-1.145,0.275,0.799,0.373,0.471,10.221,-4.458,-6.000,0.885,none
5.666382,0.571,-0.276,-0.774,2460.14,-1.343,-1.231,-1.455,-0.921,0.273,0.280,0.651,-0.460,-0.604,2467.76,0.112,-1.343,-1.679,-0.993,0.084,0.085,0.595,-0.185,-0.782,2468.55,-3.245,-0.560,-1.902,-0.457,-0.266,0.849,-0.055,0.793,-0.606,2487.13,-0.224,-0.112,-0.112,-0.138,-0.111,0.984,0.433,0.274,0.859,10.865,5.893,-0.840,-0.809,0.800,0.376,0.468,10.233,-4.885,-4.824,-0.748,none
5.689672,0.569,-0.275,-0.775,2467.11,0.336,0.000,-0.224,-0.913,0.278,0.297,0.650,-0.464,-0.603,2472.38,0.671,0.000,-0.224,-0.990,0.091,0.106,0.593,-0.188,-0.783,2478.83,0.448,0.224,-0.112,-0.456,-0.267,0.849,-0.056,0.797,-0.601,2475.66,-0.895,1.679,0.112,-0.133,-0.121,0.984,0.435,0.275,0.857,10.864,5.634,-0.229,-1.756,0.802,0.376,0.465,10.249,-5.557,-4.000,-1.893,none
5.711112,0.574,-0.272,-0.772,2462.63,0.448,0.671,0.112,-0.915,0.300,0.270,0.655,-0.460,-0.600,2468.27,0.224,0.671,0.336,-0.993,0.078,0.084,0.595,-0.185,-0.782,2468.55,1.119,0.112,0.560,-0.458,-0.267,0.848,-0.055,0.796,-0.602,2487.45,2.574,0.000,-0.560,-0.120,-0.135,0.984,0.433,0.277,0.858,10.863,5.573,0.137,-2.550,0.798,0.377,0.469,10.228,-5.847,-3.405,-2.748,none
5.733206,0.573,-0.279,-0.771,2467.86,1.007,1.902,0.895,-0.912,0.304,0.274,0.652,-0.462,-0.601,2479.54,0.895,1.902,0.783,-0.994,0.075,0.083,0.598,-0.188,-0.780,2476.97,2.238,0.560,1.119,-0.457,-0.265,0.849,-0.055,0.789,-0.612,2498.52,1.790,0.671,-0.112,-0.136,-0.116,0.984,0.434,0.274,0.858,10.875,5.664,0.137,-2.321,0.797,0.378,0.471,10.221,-5.557,-4.092,-2.458,none
5.756074,0.575,-0.278,-0.769,2474.37,0.000,1.007,0.000,-0.912,0.289,0.290,0.657,-0.453,-0.602,2442.60,-0.224,1.119,0.336,-0.993,0.071,0.093,0.598,-0.196,-0.777,2474.58,1.567,0.895,0.671,-0.457,-0.267,0.849,-0.055,0.783,-0.620,2494.51,0.895,0.224,0.000,-0.130,-0.119,0.984,0.430,0.279,0.859,10.853,5.969,-0.687,-1.588,0.797,0.376,0.472,10.230,-5.008,-4.809,-1.328,none
5.778713,0.573,-0.267,-0.775,2467.68,-1.231,-0.112,-0.671,-0.910,0.289,0.297,0.651,-0.465,-0.600,2467.02,-0.448,0.112,-0.560,-0.996,0.075,0.056,0.597,-0.196,-0.778,2480.03,-0.783,0.000,-0.671,-0.457,-0.265,0.849,-0.052,0.788,-0.613,2476.88,1.007,-0.224,0.112,-0.134,-0.118,0.984,0.432,0.278,0.858,10.835,5.573,-0.183,-1.115,0.798,0.377,0.471,10.191,-5.282,-5.069,-0.275,none
5.801641,0.574,-0.272,-0.772,2462.63,-0.671,-0.783,-0.224,-0.918,0.285,0.275,0.654,-0.467,-0.595,2455.01,0.112,-0.448,-0.112,-0.995,0.076,0.065,0.591,-0.196,-0.782,2419.31,-0.224,-0.336,-0.448,-0.457,-0.269,0.848,-0.052,0.782,-0.621,2445.46,0.448,-0.224,0.000,-0.136,-0.120,0.983,0.489,0.288,0.824,11.478,3.634,-2.489,2.458,0.774,0.416,0.476,10.321,-6.824,-11.740,8.718,none
5.822285,0.595,-0.290,-0.750,2707.54,-1.790,0.448,-2.798,-0.916,0.296,0.271,0.648,-0.513,-0.563,2614.92,-12.645,-11.191,1.007,-0.994,0.075,0.083,0.653,-0.127,-0.746,2654.96,-0.560,0.560,-2.350,-0.456,-0.268,0.848,0.014,0.832,-0.554,2792.08,-15.331,-13.541,1.231,-0.143,-0.111,0.983,0.443,0.285,0.850,10.642,7.282,-2.260,-5.176,0.753,0.391,0.530,9.480,-5.130,8.214,-8.244,none
5.843911,0.598,-0.343,-0.725,2464.46,22.941,4.700,15.443,-0.915,0.296,0.273,0.642,-0.607,-0.469,2761.73,-5.931,9.848,-14.436,-0.990,0.099,0.099,0.612,-0.225,-0.758,2289.11,11.638,2.462,6.602,-0.456,-0.267,0.849,0.163,0.713,-0.682,1678.96,-15.331,-0.671,3.469,-0.133,-0.114,0.985,0.443,0.269,0.855,10.988,7.023,-6.885,5.008,0.823,0.366,0.435,10.676,-1.985,-6.901,1.588,none
5.866744,0.566,-0.107,-0.818,2412.88,6.938,-3.133,-0.783,-0.920,0.278,0.275,0.671,-0.384,-0.635,2424.98,2.350,-5.819,1.567,-0.992,0.067,0.109,0.650,0.039,-0.759,2413.88,1.007,-10.967,-4.141,-0.458,-0.268,0.848,0.012,0.840,-0.543,2453.30,3.133,15.443,0.671,-0.133,-0.121,0.984,0.425,0.281,0.860,10.703,4.962,3.893,-2.901,0.792,0.376,0.481,10.104,-6.198,-7.664,0.824,none
5.889986,0.562,-0.321,-0.762,2446.00,0.112,-1.007,0.783,-0.907,0.296,0.299,0.664,-0.420,-0.618,2331.16,-7.162,1.007,-5.260,-0.993,0.067,0.100,0.593,-0.108,-0.798,2397.17,-16.226,5.707,-0.336,-0.454,-0.270,0.849,-0.037,0.799,-0.601,2381.27,-9.736,-1.567,0.895,-0.124,-0.127,0.984,0.432,0.276,0.859,10.770,5.740,0.443,-2.305,0.803,0.376,0.463,10.264,-5.985,-2.137,-2.550,none
5.912216,0.573,-0.247,-0.782,2434.06,-0.112,0.000,0.783,-0.918,0.287,0.276,0.655,-0.479,-0.585,2515.17,3.805,2.350,1.455,-0.992,0.068,0.109,0.584,-0.207,-0.785,2485.16,5.595,-2.126,1.455,-0.457,-0.269,0.848,-0.017,0.780,-0.626,2315.00,-2.350,4.029,0.895,-0.134,-0.115,0.984,0.423,0.268,0.866,10.782,5.405,0.763,-2.092,0.808,0.363,0.464,10.311,-6.214,-3.618,-1.573,none
5.936700,0.566,-0.231,-0.791,2429.67,3.021,1.007,1.567,-0.909,0.307,0.283,0.650,-0.471,-0.596,2516.74,3.469,0.671,2.686,-0.987,0.081,0.140,0.597,-0.172,-0.783,2476.99,-1.567,0.448,0.112,-0.458,-0.266,0.848,-0.029,0.771,-0.636,2340.15,7.162,1.790,-0.895,-0.128,-0.120,0.985,0.428,0.273,0.862,10.762,5.374,1.313,-2.397,0.808,0.369,0.459,10.258,-6.290,-2.519,-2.275,none
5.960399,0.559,-0.233,-0.795,2404.85,0.783,-1.119,1.007,-0.913,0.283,0.294,0.655,-0.462,-0.599,2439.84,-0.560,0.000,1.343,-0.995,0.073,0.064,0.596,-0.176,-0.783,2416.90,-1.007,0.112,1.119,-0.457,-0.265,0.849,-0.039,0.758,-0.651,2302.27,-1.231,2.798,-0.224,-0.125,-0.134,0.983,0.432,0.275,0.859,10.940,5.618,-1.389,0.519,0.807,0.373,0.457,10.456,-4.565,-7.481,0.198,none
5.982917,0.568,-0.234,-0.789,2473.44,-6.938,-1.902,-4.476,-0.918,0.298,0.261,0.659,-0.432,-0.616,2469.01,-0.112,-1.790,0.448,-0.991,0.085,0.104,0.617,-0.132,-0.776,2477.80,-6.491,0.000,-3.581,-0.457,-0.266,0.849,-0.053,0.811,-0.583,2587.41,1.231,3.021,-0.448,-0.122,-0.132,0.984,0.433,0.273,0.859,10.852,5.328,1.176,-2.336,0.797,0.374,0.474,10.165,-5.908,-5.206,-0.733,none
6.003522,0.572,-0.283,-0.770,2470.67,3.469,1.567,2.126,-0.911,0.304,0.278,0.650,-0.463,-0.603,2455.87,-1.343,0.448,-1.119,-0.993,0.076,0.092,0.600,-0.168,-0.782,2418.82,1.231,1.007,1.567,-0.458,-0.265,0.849,-0.059,0.802,-0.594,2505.76,-2.350,-1.790,0.448,-0.120,-0.130,0.984,0.435,0.275,0.857,10.870,5.649,0.000,-1.954,0.801,0.379,0.464,10.215,-5.725,-3.771,-1.802,none
6.026709,0.570,-0.268,-0.777,2461.96,1.455,1.007,0.895,-0.914,0.293,0.281,0.654,-0.467,-0.595,2472.36,0.895,1.007,1.007,-0.992,0.073,0.101,0.595,-0.202,-0.778,2505.52,3.581,-0.895,0.560,-0.456,-0.266,0.849,-0.052,0.786,-0.616,2447.12,0.448,1.567,0.000,-0.136,-0.112,0.984,0.429,0.275,0.860,10.823,5.450,-0.061,-1.679,0.798,0.375,0.472,10.201,-5.557,-5.313,-0.962,none
6.047315,0.575,-0.270,-0.772,2476.10,-1.231,-0.336,-0.560,-0.917,0.271,0.293,0.655,-0.460,-0.600,2468.27,-1.119,0.000,-1.007,-0.995,0.073,0.064,0.604,-0.191,-0.774,2483.89,0.783,-0.224,-0.448,-0.457,-0.267,0.849,-0.052,0.792,-0.608,2463.88,0.895,-1.455,0.000,-0.132,-0.127,0.983,0.435,0.276,0.857,10.818,5.588,0.031,-1.328,0.798,0.377,0.470,10.178,-5.435,-4.901,-0.183,none
6.069565,0.573,-0.279,-0.771,2467.86,1.231,-0.671,0.671,-0.915,0.301,0.269,0.652,-0.466,-0.597,2477.07,1.007,-0.560,0.448,-0.993,0.078,0.085,0.594,-0.196,-0.780,2474.07,-1.679,-0.112,-0.448,-0.459,-0.267,0.847,-0.052,0.784,-0.619,2453.29,-0.336,0.895,-0.224,-0.133,-0.116,0.984,0.436,0.274,0.857,10.890,5.863,-1.145,-0.183,0.801,0.377,0.466,10.294,-4.779,-5.679,0.107,none
6.092020,0.572,-0.265,-0.776,2488.91,-1.679,-1.119,-1.343,-0.920,0.285,0.267,0.653,-0.460,-0.602,2491.42,0.000,-1.007,-0.448,-0.995,0.068,0.073,0.597,-0.185,-0.781,2512.32,-1.902,-0.783,-1.679,-0.457,-0.268,0.848,-0.051,0.796,-0.603,2500.11,-1.007,0.560,-0.224,-0.124,-0.125,0.984,0.436,0.274,0.857,10.858,5.740,-0.153,-1.557,0.801,0.374,0.468,10.252,-5.237,-4.916,-0.794,none
6.118315,0.572,-0.274,-0.773,2472.82,-0.560,-0.112,0.000,-0.917,0.286,0.278,0.653,-0.463,-0.598,2472.89,0.336,0.448,-0.336,-0.989,0.083,0.122,0.587,-0.183,-0.788,2487.56,-1.790,1.343,-0.336,-0.457,-0.270,0.847,-0.052,0.792,-0.608,2463.88,0.336,0.671,-0.112,-0.133,-0.123,0.984,0.431,0.276,0.859,10.798,5.740,-0.336,-1.969,0.800,0.375,0.468,10.206,-5.313,-4.473,-1.588,none
6.139309,0.574,-0.269,-0.774,2447.23,0.895,0.783,0.112,-0.907,0.289,0.307,0.653,-0.466,-0.598,2460.97,0.783,0.895,-0.560,-0.995,0.080,0.057,0.598,-0.189,-0.778,2456.19,0.895,1.119,0.448,-0.457,-0.267,0.848,-0.053,0.791,-0.609,2428.56,-0.224,1.231,0.224,-0.144,-0.113,0.983,0.433,0.275,0.858,10.829,5.420,0.427,-1.847,0.801,0.376,0.466,10.228,-5.985,-4.336,-1.130,none
6.161955,0.573,-0.267,-0.775,2467.68,-0.448,-0.224,0.112,-0.912,0.301,0.279,0.655,-0.460,-0.600,2468.27,1.119,0.448,1.455,-0.994,0.078,0.076,0.598,-0.184,-0.780,2474.52,-0.448,-0.560,0.224,-0.457,-0.268,0.848,-0.055,0.784,-0.618,2488.93,1.567,0.560,-0.336,-0.126,-0.121,0.985,0.433,0.275,0.858,10.830,5.634,-0.244,-1.313,0.799,0.374,0.470,10.223,-5.221,-5.191,-0.870,none
6.183921,0.572,-0.274,-0.773,2472.82,0.783,0.671,0.448,-0.918,0.289,0.272,0.656,-0.458,-0.600,2481.48,-0.448,-0.336,-0.895,-0.987,0.092,0.132,0.600,-0.191,-0.777,2484.07,-0.895,0.336,-0.448,-0.456,-0.269,0.848,-0.051,0.794,-0.606,2506.15,-1.567,0.671,0.336,-0.132,-0.117,0.984,0.436,0.277,0.856,10.871,5.817,-0.870,-1.099,0.801,0.378,0.464,10.242,-4.992,-4.947,-1.023,none
6.207909,0.576,-0.266,-0.773,2474.19,-0.112,0.448,-0.336,-0.912,0.301,0.279,0.661,-0.454,-0.598,2460.32,-0.112,0.112,-0.448,-0.995,0.069,0.073,0.594,-0.183,-0.783,2490.15,-0.224,0.671,-0.895,-0.458,-0.267,0.848,-0.052,0.795,-0.604,2479.75,-0.671,0.671,-0.112,-0.129,-0.122,0.984,0.434,0.277,0.857,10.832,5.802,-0.947,-0.901,0.800,0.378,0.466,10.208,-4.916,-5.206,-0.656,none
6.227235,0.573,-0.279,-0.771,2467.86,0.448,-0.336,-0.448,-0.916,0.287,0.279,0.651,-0.465,-0.600,2467.02,0.112,-0.112,-1.007,-0.996,0.066,0.064,0.597,-0.185,-0.781,2463.08,-0.336,0.560,-0.895,-0.456,-0.267,0.849,-0.052,0.791,-0.610,2455.96,-0.448,0.560,0.112,-0.125,-0.127,0.984,0.437,0.276,0.856,10.847,5.511,0.092,-1.069,0.800,0.376,0.467,10.236,-5.466,-5.160,-0.489,none
6.249925,0.572,-0.271,-0.774,2471.14,-0.112,-0.671,-0.224,-0.914,0.304,0.268,0.654,-0.458,-0.602,2457.14,-0.560,-0.560,-0.448,-0.989,0.091,0.115,0.600,-0.181,-0.779,2467.23,-0.671,-0.336,-0.224,-0.455,-0.269,0.849,-0.052,0.797,-0.602,2475.12,-1.119,-0.224,0.112,-0.136,-0.111,0.985,0.435,0.276,0.857,10.815,5.405,0.977,-1.817,0.799,0.376,0.468,10.195,-5.893,-4.565,-0.794,none
6.271653,0.572,-0.274,-0.773,2472.82,0.336,0.000,0.336,-0.915,0.287,0.283,0.655,-0.460,-0.600,2468.27,-0.224,0.448,0.336,-0.991,0.077,0.111,0.601,-0.189,-0.777,2462.19,0.000,-0.112,0.336,-0.458,-0.268,0.848,-0.056,0.786,-0.615,2482.77,1.119,-0.671,-0.112,-0.129,-0.126,0.984,0.435,0.274,0.858,10.852,5.359,0.626,-1.908,0.801,0.375,0.468,10.221,-5.863,-4.718,-1.191,none
6.292948,0.577,-0.271,-0.771,2469.16,-0.560,0.448,-0.112,-0.915,0.292,0.278,0.653,-0.459,-0.602,2474.93,-0.112,0.448,0.112,-0.989,0.075,0.129,0.600,-0.187,-0.778,2482.18,0.783,0.448,0.560,-0.457,-0.268,0.848,-0.051,0.789,-0.612,2497.99,-0.224,-0.112,0.000,-0.126,-0.116,0.985,0.434,0.276,0.857,10.864,5.557,0.260,-1.832,0.800,0.374,0.469,10.210,-5.618,-4.565,-1.450,none
6.314886,0.574,-0.273,-0.772,2479.32,0.112,0.000,0.224,-0.911,0.300,0.283,0.653,-0.459,-0.602,2474.93,-0.112,0.560,0.000,-0.994,0.079,0.076,0.599,-0.192,-0.778,2471.86,0.671,0.112,0.448,-0.459,-0.268,0.847,-0.056,0.788,-0.613,2477.41,-0.224,-0.336,-0.112,-0.130,-0.118,0.984,0.437,0.277,0.856,10.853,5.679,-0.366,-1.359,0.801,0.376,0.465,10.264,-5.282,-4.901,-1.374,none
6.336447,0.572,-0.271,-0.774,2471.14,0.112,0.112,-0.336,-0.911,0.289,0.295,0.654,-0.456,-0.603,2469.70,-0.112,0.112,-0.224,-0.994,0.062,0.089,0.600,-0.184,-0.778,2481.29,0.224,0.112,0.112,-0.457,-0.268,0.848,-0.055,0.794,-0.605,2492.69,-1.567,0.895,0.000,-0.126,-0.123,0.984,0.434,0.274,0.858,10.820,5.542,0.229,-1.969,0.800,0.376,0.468,10.222,-5.664,-4.458,-1.664,none
6.358315,0.573,-0.275,-0.772,2465.86,0.224,0.895,0.224,-0.920,0.281,0.272,0.655,-0.460,-0.600,2468.27,0.448,0.895,0.336,-0.992,0.085,0.096,0.599,-0.188,-0.778,2469.96,1.007,0.671,0.560,-0.456,-0.269,0.848,-0.052,0.790,-0.610,2470.76,0.783,0.000,0.000,-0.138,-0.115,0.984,0.433,0.276,0.858,10.822,5.389,0.748,-2.092,0.799,0.377,0.469,10.213,-6.076,-4.290,-1.176,none
6.380079,0.574,-0.272,-0.772,2462.63,0.448,0.336,0.224,-0.914,0.295,0.278,0.657,-0.463,-0.594,2474.73,0.560,0.560,0.448,-0.993,0.067,0.100,0.598,-0.188,-0.780,2476.97,0.671,0.112,0.560,-0.457,-0.266,0.849,-0.052,0.787,-0.614,2454.19,0.783,-0.448,-0.224,-0.123,-0.129,0.984,0.435,0.275,0.858,10.849,5.328,0.794,-1.649,0.799,0.377,0.469,10.220,-6.076,-4.580,-0.366,none
6.401356,0.572,-0.274,-0.773,2472.82,0.783,-0.448,0.448,-0.921,0.259,0.292,0.657,-0.459,-0.598,2474.83,0.560,-0.560,0.783,-0.990,0.082,0.112,0.601,-0.192,-0.776,2478.64,0.112,-0.895,0.224,-0.457,-0.269,0.848,-0.052,0.792,-0.608,2478.67,0.448,-0.336,-0.224,-0.132,-0.124,0.983,0.432,0.274,0.859,10.845,5.481,0.260,-1.160,0.800,0.376,0.469,10.231,-5.542,-4.992,-0.321,none
6.423281,0.577,-0.271,-0.771,2469.16,-0.224,-0.671,0.000,-0.916,0.267,0.300,0.652,-0.462,-0.601,2479.54,-0.448,-0.783,-0.336,-0.993,0.084,0.085,0.598,-0.188,-0.780,2476.97,-0.671,-0.448,-0.336,-0.457,-0.268,0.848,-0.055,0.788,-0.613,2490.64,-0.448,-0.112,0.000,-0.130,-0.117,0.985,0.433,0.276,0.858,10.886,5.618,-0.290,-0.931,0.800,0.375,0.469,10.255,-5.267,-5.206,-0.641,none
6.444851,0.570,-0.270,-0.776,2478.89,-1.007,-0.336,-0.783,-0.922,0.274,0.273,0.653,-0.459,-0.602,2474.93,-0.224,-0.224,-0.671,-0.988,0.081,0.130,0.599,-0.183,-0.780,2489.08,-0.895,0.112,-0.560,-0.458,-0.267,0.848,-0.051,0.793,-0.606,2486.60,-1.119,0.336,0.224,-0.135,-0.117,0.984,0.434,0.275,0.858,10.877,5.496,0.214,-1.527,0.800,0.376,0.468,10.230,-5.557,-4.824,-0.840,none
6.467264,0.573,-0.275,-0.772,2465.86,0.336,0.000,0.112,-0.912,0.283,0.295,0.653,-0.461,-0.601,2462.39,0.224,-0.112,-0.112,-0.988,0.097,0.116,0.598,-0.188,-0.780,2476.97,-0.224,0.112,0.000,-0.457,-0.269,0.848,-0.052,0.794,-0.606,2471.81,0.112,-0.112,0.000,-0.133,-0.120,0.984,0.434,0.276,0.858,10.853,5.450,0.718,-1.847,0.798,0.378,0.469,10.233,-5.939,-4.412,-0.916,none
6.490165,0.573,-0.275,-0.772,2465.86,0.783,-0.112,0.560,-0.912,0.279,0.301,0.653,-0.463,-0.598,2472.89,0.336,0.336,0.560,-0.995,0.073,0.064,0.599,-0.188,-0.778,2469.96,0.783,-0.224,0.560,-0.458,-0.268,0.848,-0.052,0.790,-0.610,2470.76,0.448,0.112,-0.112,-0.132,-0.122,0.984,0.434,0.275,0.858,10.843,5.374,0.885,-1.832,0.800,0.376,0.468,10.208,-6.061,-4.550,-0.733,none
6.512995,0.573,-0.275,-0.772,2465.86,0.560,-0.224,0.448,-0.917,0.280,0.286,0.656,-0.461,-0.597,2463.54,0.336,-0.112,0.448,-0.993,0.071,0.093,0.600,-0.187,-0.778,2482.18,0.224,-0.336,0.448,-0.459,-0.269,0.847,-0.052,0.786,-0.616,2482.23,0.224,-0.224,-0.112,-0.128,-0.125,0.984,0.432,0.276,0.859,10.836,5.527,0.275,-1.313,0.800,0.375,0.469,10.243,-5.603,-4.901,-0.519,none
6.536667,0.574,-0.272,-0.772,2462.63,0.000,-0.448,0.112,-0.907,0.315,0.279,0.655,-0.460,-0.600,2468.27,-0.112,-0.336,-0.336,-0.991,0.077,0.111,0.600,-0.184,-0.778,2481.29,-0.560,-0.560,-0.112,-0.458,-0.267,0.848,-0.056,0.790,-0.611,2485.30,-0.560,0.000,0.000,-0.123,-0.132,0.984,0.434,0.276,0.858,10.860,5.603,0.137,-1.267,0.802,0.374,0.466,10.243,-5.527,-4.901,-0.519,none
6.561130,0.572,-0.271,-0.774,2471.14,0.000,-0.224,0.000,-0.915,0.278,0.293,0.653,-0.459,-0.602,2474.93,-0.112,-0.224,0.000,-0.995,0.072,0.074,0.598,-0.184,-0.780,2474.52,-0.224,-0.112,-0.224,-0.457,-0.266,0.849,-0.056,0.792,-0.608,2479.21,-0.448,0.112,-0.112,-0.138,-0.120,0.983,0.436,0.275,0.857,10.843,5.496,0.412,-1.389,0.802,0.374,0.465,10.245,-5.695,-4.748,-0.489,none
6.583558,0.569,-0.271,-0.776,2465.43,-0.112,-0.336,0.000,-0.920,0.287,0.268,0.655,-0.460,-0.600,2468.27,0.448,-0.224,0.336,-0.990,0.082,0.112,0.598,-0.184,-0.780,2474.52,-0.224,-0.671,-0.112,-0.458,-0.268,0.848,-0.052,0.792,-0.608,2478.67,0.336,0.000,0.000,-0.129,-0.115,0.985,0.432,0.276,0.858,10.839,5.466,0.687,-1.634,0.799,0.375,0.470,10.223,-5.908,-4.641,-0.626,none
6.606111,0.574,-0.272,-0.772,2462.63,0.112,-0.224,0.224,-0.922,0.271,0.276,0.653,-0.463,-0.598,2472.89,0.112,0.112,0.224,-0.990,0.086,0.113,0.599,-0.188,-0.778,2469.96,0.224,-0.224,0.224,-0.456,-0.268,0.849,-0.052,0.790,-0.610,2470.76,0.336,-0.112,0.000,-0.124,-0.120,0.985,0.433,0.276,0.858,10.834,5.389,0.672,-1.557,0.801,0.375,0.467,10.227,-5.985,-4.916,-0.519,none
6.629549,0.575,-0.270,-0.772,2476.10,0.000,-0.224,0.000,-0.909,0.302,0.288,0.654,-0.462,-0.599,2456.33,-0.336,-0.112,0.224,-0.995,0.078,0.065,0.599,-0.188,-0.778,2469.96,0.224,-0.560,0.224,-0.456,-0.266,0.849,-0.052,0.792,-0.608,2478.67,0.000,-0.448,0.000,-0.139,-0.117,0.983,0.429,0.276,0.860,10.850,5.328,0.733,-1.435,0.800,0.375,0.468,10.242,-5.954,-5.023,-0.382,none
6.652084,0.573,-0.273,-0.773,2487.04,0.112,-0.671,0.112,-0.923,0.283,0.263,0.655,-0.460,-0.600,2468.27,0.000,-0.448,0.560,-0.991,0.074,0.110,0.596,-0.187,-0.781,2484.77,-0.224,-0.560,0.000,-0.457,-0.268,0.848,-0.056,0.788,-0.613,2477.41,-0.783,-0.336,0.000,-0.137,-0.113,0.984,0.436,0.275,0.857,10.881,5.405,0.504,-1.298,0.801,0.373,0.468,10.227,-5.695,-4.916,-0.412,none
6.675326,0.572,-0.274,-0.773,2472.82,0.560,-0.336,-0.112,-0.916,0.278,0.289,0.655,-0.460,-0.600,2468.27,-0.448,-0.560,-0.112,-0.991,0.093,0.097,0.598,-0.184,-0.780,2474.52,-0.560,0.000,-0.224,-0.457,-0.269,0.848,-0.055,0.792,-0.608,2498.75,-1.007,-0.224,0.000,-0.130,-0.124,0.984,0.436,0.274,0.857,10.908,5.527,0.229,-1.603,0.803,0.372,0.465,10.274,-5.771,-4.672,-0.931,none
6.698112,0.572,-0.271,-0.774,2471.14,-0.224,0.112,0.000,-0.914,0.289,0.286,0.653,-0.460,-0.602,2491.42,0.112,0.112,0.224,-0.991,0.072,0.110,0.594,-0.183,-0.783,2490.15,0.448,0.224,0.336,-0.457,-0.268,0.848,-0.055,0.793,-0.606,2487.13,-0.336,0.000,0.112,-0.135,-0.121,0.983,0.428,0.275,0.861,10.797,5.405,0.656,-2.000,0.801,0.376,0.466,10.214,-5.863,-4.321,-1.313,none
6.722198,0.572,-0.268,-0.775,2454.98,0.000,0.560,0.224,-0.916,0.294,0.271,0.655,-0.459,-0.600,2452.38,-0.336,0.448,0.112,-0.992,0.085,0.095,0.598,-0.188,-0.780,2476.97,0.560,0.336,0.560,-0.457,-0.267,0.849,-0.056,0.792,-0.608,2464.42,0.336,-0.448,0.112,-0.135,-0.121,0.983,0.433,0.277,0.858,10.839,5.344,0.580,-1.817,0.798,0.376,0.471,10.220,-6.031,-4.412,-1.130,none
6.741540,0.575,-0.268,-0.773,2460.71,0.000,0.112,0.336,-0.918,0.301,0.256,0.654,-0.467,-0.595,2472.36,-0.112,0.112,0.560,-0.992,0.073,0.101,0.603,-0.188,-0.775,2468.99,0.560,0.000,0.560,-0.457,-0.266,0.848,-0.052,0.788,-0.613,2476.88,-0.448,-0.336,0.000,-0.122,-0.129,0.984,0.431,0.275,0.859,10.829,5.344,0.855,-1.817,0.801,0.373,0.468,10.221,-5.985,-4.611,-0.763,none
6.764519,0.573,-0.279,-0.771,2467.86,0.671,-0.112,0.448,-0.915,0.299,0.272,0.653,-0.461,-0.601,2462.39,0.112,0.000,0.560,-0.992,0.085,0.096,0.598,-0.188,-0.780,2476.97,0.112,-0.112,0.448,-0.459,-0.265,0.848,-0.055,0.793,-0.606,2487.13,0.224,-0.112,-0.224,-0.131,-0.116,0.985,0.432,0.276,0.859,10.851,5.573,-0.153,-1.374,0.801,0.375,0.467,10.264,-5.450,-4.992,-0.885,none
6.789174,0.570,-0.270,-0.776,2478.89,-0.671,0.112,-0.336,-0.902,0.308,0.301,0.653,-0.464,-0.598,2490.23,-0.224,0.000,-0.112,-0.995,0.069,0.073,0.600,-0.187,-0.778,2482.18,-0.560,0.224,-0.224,-0.458,-0.267,0.848,-0.055,0.784,-0.618,2488.93,0.000,0.000,-0.112,-0.132,-0.115,0.984,0.434,0.273,0.858,10.865,5.557,0.046,-1.496,0.801,0.374,0.467,10.249,-5.527,-4.916,-1.038,none
6.809715,0.575,-0.268,-0.773,2460.71,0.112,0.112,0.000,-0.912,0.283,0.296,0.655,-0.460,-0.600,2468.27,-0.112,-0.112,-0.224,-0.994,0.081,0.076,0.600,-0.181,-0.779,2467.23,-0.560,0.112,-0.112,-0.457,-0.267,0.848,-0.052,0.798,-0.600,2480.71,-0.560,0.224,0.000,-0.131,-0.119,0.984,0.433,0.276,0.858,10.843,5.420,0.641,-1.832,0.801,0.373,0.468,10.250,-5.939,-4.458,-1.084,none
6.831542,0.573,-0.275,-0.772,2465.86,0.560,-0.224,0.448,-0.914,0.299,0.273,0.655,-0.460,-0.600,2468.27,0.224,0.448,0.336,-0.993,0.070,0.093,0.595,-0.185,-0.782,2468.55,0.224,-0.112,0.560,-0.457,-0.269,0.848,-0.052,0.792,-0.608,2478.67,0.336,0.000,-0.112,-0.130,-0.124,0.984,0.440,0.280,0.853,11.039,5.191,-0.489,-1.573,0.796,0.378,0.473,10.321,-5.954,-5.313,-1.069,none
6.853490,0.579,-0.279,-0.766,2574.95,0.671,1.007,0.336,-0.916,0.291,0.276,0.651,-0.469,-0.597,2546.38,-0.895,-0.112,-0.224,-0.991,0.082,0.104,0.613,-0.185,-0.768,2463.27,1.007,1.007,0.448,-0.460,-0.265,0.847,-0.064,0.816,-0.575,2621.64,-2.574,-1.343,0.783,-0.126,-0.127,0.984,0.430,0.272,0.861,10.715,5.893,1.420,-2.809,0.800,0.373,0.470,10.096,-5.985,-2.824,-1.618,none
6.874119,0.571,-0.290,-0.768,2477.16,3.021,0.895,2.014,-0.918,0.285,0.275,0.655,-0.449,-0.607,2421.57,0.671,0.783,1.455,-0.988,0.086,0.131,0.595,-0.204,-0.777,2421.45,2.686,-1.902,1.679,-0.458,-0.265,0.849,-0.060,0.800,-0.598,2441.43,3.469,0.560,-0.671,-0.130,-0.125,0.984,0.434,0.271,0.860,10.866,5.740,-1.817,-0.656,0.812,0.368,0.454,10.388,-5.023,-5.695,-0.870,none
6.896772,0.562,-0.251,-0.788,2427.15,-3.357,-0.336,-1.567,-0.916,0.270,0.297,0.643,-0.467,-0.608,2516.58,-1.231,-1.343,-0.895,-0.992,0.093,0.087,0.594,-0.199,-0.779,2541.55,3.917,-0.448,1.007,-0.461,-0.264,0.847,-0.082,0.763,-0.641,2520.28,2.910,-0.895,-0.560,-0.131,-0.119,0.984,0.431,0.278,0.858,10.832,5.298,1.038,-1.603,0.799,0.374,0.470,10.229,-5.649,-6.550,-0.412,none
6.918455,0.576,-0.273,-0.771,2454.92,-3.805,-0.783,-1.790,-0.909,0.302,0.288,0.660,-0.432,-0.615,2405.50,-1.790,0.336,-1.455,-0.992,0.080,0.095,0.605,-0.177,-0.776,2462.91,-1.455,0.671,-0.224,-0.457,-0.266,0.849,-0.068,0.813,-0.578,2592.92,-3.133,-3.469,0.671,-0.130,-0.125,0.984,0.427,0.281,0.860,10.817,5.405,1.145,-2.305,0.797,0.378,0.472,10.126,-6.122,-4.076,-1.221,none
6.941180,0.573,-0.281,-0.770,2449.04,1.567,0.560,1.567,-0.914,0.302,0.270,0.658,-0.462,-0.594,2457.58,1.567,1.007,2.126,-0.992,0.080,0.095,0.594,-0.196,-0.780,2474.07,0.560,0.000,0.783,-0.458,-0.265,0.849,-0.063,0.780,-0.622,2501.84,0.560,-1.455,-0.112,-0.129,-0.113,0.985,0.426,0.276,0.861,10.814,5.435,0.809,-1.802,0.799,0.373,0.471,10.242,-6.153,-3.832,-0.855,none
6.963774,0.572,-0.274,-0.773,2472.82,0.336,-0.560,0.783,-0.918,0.304,0.253,0.656,-0.461,-0.597,2463.54,2.126,0.000,1.902,-0.989,0.099,0.108,0.594,-0.203,-0.779,2492.57,1.343,-1.231,0.560,-0.458,-0.267,0.848,-0.055,0.772,-0.633,2489.99,1.567,0.336,-0.112,-0.125,-0.114,0.986,0.427,0.276,0.861,10.817,5.511,0.733,-1.435,0.801,0.370,0.470,10.250,-5.695,-5.420,-0.137,none
6.989324,0.573,-0.265,-0.776,2451.53,-0.112,-0.671,0.112,-0.916,0.294,0.274,0.657,-0.456,-0.601,2447.80,-0.112,-0.671,-0.336,-0.990,0.087,0.113,0.599,-0.185,-0.779,2469.06,-1.567,0.112,-0.560,-0.458,-0.268,0.848,-0.058,0.792,-0.608,2528.05,-0.112,0.000,0.000,-0.130,-0.119,0.984,0.432,0.278,0.858,10.902,5.527,-0.137,-0.809,0.798,0.376,0.471,10.266,-5.206,-6.229,-0.076,none
7.006275,0.575,-0.282,-0.768,2477.17,-2.238,-1.007,-1.567,-0.916,0.291,0.276,0.656,-0.453,-0.604,2465.16,-2.126,-1.007,-1.790,-0.990,0.078,0.121,0.604,-0.179,-0.777,2484.72,-1.007,0.671,-0.783,-0.459,-0.267,0.847,-0.055,0.799,-0.599,2517.39,-3.133,-1.567,0.336,-0.142,-0.114,0.983,0.437,0.275,0.857,10.876,5.527,0.153,-1.542,0.799,0.375,0.471,10.224,-5.557,-4.870,-0.901,none
7.028364,0.573,-0.281,-0.770,2484.09,0.895,0.336,0.560,-0.913,0.300,0.277,0.651,-0.465,-0.600,2467.02,0.560,0.336,0.336,-0.995,0.081,0.067,0.588,-0.198,-0.784,2499.50,-0.895,0.560,0.000,-0.457,-0.266,0.849,-0.056,0.788,-0.613,2477.41,0.783,0.000,-0.448,-0.122,-0.128,0.984,0.433,0.276,0.858,10.833,5.649,-0.107,-1.771,0.800,0.374,0.469,10.222,-5.481,-4.229,-1.924,none
7.049314,0.572,-0.285,-0.769,2487.69,1.007,1.119,0.224,-0.911,0.293,0.291,0.653,-0.470,-0.594,2476.39,0.560,0.560,0.560,-0.992,0.081,0.093,0.597,-0.196,-0.778,2480.03,1.790,0.448,0.671,-0.459,-0.267,0.848,-0.052,0.791,-0.610,2455.96,1.007,1.343,0.224,-0.132,-0.121,0.984,0.427,0.276,0.861,10.851,5.420,0.870,-2.565,0.800,0.374,0.469,10.213,-6.122,-3.679,-2.107,none
7.071277,0.577,-0.279,-0.767,2466.69,0.783,0.560,0.783,-0.920,0.285,0.267,0.656,-0.466,-0.593,2478.91,0.560,1.119,1.007,-0.993,0.076,0.094,0.599,-0.186,-0.779,2455.28,1.679,0.224,1.119,-0.459,-0.264,0.848,-0.052,0.791,-0.610,2455.96,2.126,-0.224,-0.224,-0.133,-0.114,0.985,0.431,0.276,0.859,10.826,5.405,0.916,-2.107,0.801,0.375,0.466,10.215,-6.092,-4.305,-0.916,none
7.093251,0.572,-0.276,-0.772,2452.42,-0.112,-0.112,0.224,-0.909,0.314,0.275,0.656,-0.461,-0.597,2463.54,0.783,0.336,0.895,-0.991,0.082,0.104,0.601,-0.185,-0.777,2461.28,-0.448,-0.224,0.448,-0.458,-0.263,0.849,-0.055,0.791,-0.609,2493.21,0.783,1.007,-0.336,-0.130,-0.118,0.984,0.430,0.276,0.860,10.873,5.435,0.382,-1.405,0.799,0.373,0.471,10.255,-5.664,-5.191,-0.366,none
7.114839,0.572,-0.276,-0.772,2489.02,0.448,0.224,0.336,-0.909,0.310,0.280,0.653,-0.459,-0.602,2474.93,-0.336,-0.783,-0.336,-0.992,0.098,0.079,0.600,-0.184,-0.778,2481.29,-0.895,0.000,-0.112,-0.459,-0.265,0.848,-0.055,0.795,-0.603,2515.43,-1.455,-0.224,0.112,-0.135,-0.120,0.984,0.432,0.277,0.858,10.877,5.603,-0.015,-1.313,0.800,0.375,0.468,10.229,-5.450,-5.053,-0.656,none
