time,BNO0_UnitAccX,BNO0_UnitAccY,BNO0_UnitAccZ,BNO0_RawAccMag,BNO0_GyrX,BNO0_GyrY,BNO0_GyrZ,BNO0_MagX,BNO0_MagY,BNO0_MagZ,BNO1_UnitAccX,BNO1_UnitAccY,BNO1_UnitAccZ,BNO1_RawAccMag,BNO1_GyrX,BNO1_GyrY,BNO1_GyrZ,BNO1_MagX,BNO1_MagY,BNO1_MagZ,BNO2_UnitAccX,BNO2_UnitAccY,BNO2_UnitAccZ,BNO2_RawAccMag,BNO2_GyrX,BNO2_GyrY,BNO2_GyrZ,BNO2_MagX,BNO2_MagY,BNO2_MagZ,BNO3_UnitAccX,BNO3_UnitAccY,BNO3_UnitAccZ,BNO3_RawAccMag,BNO3_GyrX,BNO3_GyrY,BNO3_GyrZ,BNO3_MagX,BNO3_MagY,BNO3_MagZ,MPU0_UnitAccX,MPU0_UnitAccY,MPU0_UnitAccZ,MPU0_RawAccMag,MPU0_GyrX,MPU0_GyrY,MPU0_GyrZ,MPU1_UnitAccX,MPU1_UnitAccY,MPU1_UnitAccZ,MPU1_RawAccMag,MPU1_GyrX,MPU1_GyrY,MPU1_GyrZ,label
0.047959,0.502,-0.184,-0.845,2522.41,0.224,-0.783,0.336,-0.477,0.089,0.874,0.634,-0.121,-0.764,2519.86,0.224,-0.336,0.224,-0.925,-0.213,0.314,-0.032,-0.693,-0.720,2508.45,-0.448,-0.895,0.560,-0.100,0.200,-0.975,0.269,-0.136,-0.954,2499.17,0.336,0.224,0.000,-0.860,0.485,0.159,0.274,0.188,0.943,10.966,5.679,0.489,-1.740,0.565,0.336,0.753,9.981,-5.511,-4.611,-1.176,none
0.048403,0.501,-0.187,-0.845,2525.11,0.224,0.448,0.224,-0.531,0.048,0.846,0.636,-0.122,-0.762,2511.46,-0.224,0.336,0.224,-0.949,-0.222,0.222,-0.032,-0.697,-0.716,2508.24,0.336,0.448,-0.336,-0.100,0.243,-0.965,0.270,-0.137,-0.953,2489.64,-0.224,-0.112,-0.112,-0.877,0.472,0.094,0.274,0.187,0.944,10.980,5.786,0.580,-1.817,0.566,0.335,0.753,10.018,-5.511,-4.565,-1.496,none
0.059190,0.504,-0.184,-0.844,2513.96,0.112,0.336,0.112,-0.510,0.094,0.855,0.636,-0.122,-0.762,2511.46,-0.224,0.560,0.336,-0.927,-0.185,0.326,-0.032,-0.697,-0.716,2508.24,0.560,0.224,-0.448,-0.106,0.226,-0.968,0.269,-0.140,-0.953,2500.41,-0.671,0.000,-0.448,-0.876,0.476,0.081,0.274,0.188,0.943,10.978,5.847,0.580,-1.832,0.567,0.335,0.753,9.982,-5.344,-4.702,-1.542,none
0.081718,0.506,-0.184,-0.843,2519.86,0.224,0.671,0.224,-0.544,0.078,0.836,0.638,-0.122,-0.761,2517.95,-0.224,0.336,0.336,-0.918,-0.205,0.340,-0.028,-0.697,-0.716,2507.22,0.224,0.224,-0.560,-0.118,0.198,-0.973,0.271,-0.141,-0.952,2480.41,-0.448,0.112,-0.112,-0.835,0.527,0.156,0.274,0.188,0.943,10.970,5.908,0.656,-1.893,0.564,0.335,0.755,9.995,-5.374,-4.519,-1.618,none
0.103641,0.504,-0.187,-0.843,2529.29,0.000,0.560,0.112,-0.488,0.100,0.867,0.638,-0.122,-0.761,2517.95,0.000,0.336,0.336,-0.946,-0.194,0.260,-0.028,-0.699,-0.714,2514.20,0.560,0.560,-0.560,-0.125,0.244,-0.962,0.271,-0.145,-0.952,2481.84,0.224,-0.112,0.000,-0.883,0.456,0.112,0.272,0.187,0.944,10.977,5.786,0.443,-1.802,0.565,0.338,0.753,9.993,-5.405,-4.702,-1.374,none
0.126180,0.501,-0.187,-0.845,2525.11,0.112,0.336,0.112,-0.511,0.114,0.852,0.638,-0.125,-0.760,2518.43,-0.448,0.112,0.000,-0.958,-0.200,0.207,-0.028,-0.697,-0.716,2507.22,0.336,0.560,-0.224,-0.116,0.214,-0.970,0.270,-0.140,-0.953,2490.89,-0.336,-0.112,-0.112,-0.881,0.460,0.112,0.274,0.189,0.943,10.966,5.725,0.076,-1.527,0.563,0.339,0.754,10.015,-5.313,-5.038,-1.038,none
0.149756,0.509,-0.183,-0.841,2524.43,-0.224,0.224,-0.336,-0.504,0.128,0.854,0.638,-0.122,-0.760,2503.85,-0.336,-0.112,-0.224,-0.947,-0.159,0.278,-0.028,-0.697,-0.716,2507.22,-0.112,0.112,-0.224,-0.093,0.200,-0.975,0.274,-0.141,-0.951,2482.86,-0.224,-0.224,-0.224,-0.866,0.481,0.135,0.273,0.191,0.943,10.980,5.618,0.015,-1.481,0.565,0.338,0.753,9.981,-5.435,-4.901,-0.748,none
0.172680,0.504,-0.184,-0.844,2513.96,-0.112,-0.224,-0.224,-0.521,0.077,0.850,0.638,-0.122,-0.761,2517.95,0.000,0.000,0.000,-0.934,-0.140,0.328,-0.028,-0.701,-0.713,2507.78,-0.448,0.000,0.112,-0.093,0.214,-0.972,0.274,-0.141,-0.951,2482.86,-0.112,0.112,0.112,-0.853,0.502,0.141,0.274,0.187,0.943,10.984,5.542,-0.015,-1.405,0.563,0.337,0.755,9.992,-5.466,-4.901,-0.534,none
0.193632,0.501,-0.187,-0.845,2525.11,0.336,-0.224,-0.112,-0.498,0.091,0.862,0.638,-0.122,-0.761,2517.95,0.336,-0.112,-0.224,-0.939,-0.188,0.287,-0.032,-0.697,-0.716,2508.24,-0.560,-0.336,0.224,-0.093,0.214,-0.972,0.271,-0.141,-0.952,2480.41,0.112,0.000,0.112,-0.852,0.493,0.176,0.274,0.189,0.943,10.974,5.649,0.122,-1.542,0.566,0.336,0.753,9.999,-5.481,-4.672,-0.718,none
0.215961,0.502,-0.184,-0.845,2522.41,0.000,-0.112,-0.112,-0.524,0.109,0.845,0.638,-0.122,-0.760,2503.85,0.000,-0.112,-0.112,-0.944,-0.180,0.278,-0.028,-0.695,-0.718,2501.67,-0.112,0.112,0.112,-0.091,0.230,-0.969,0.274,-0.141,-0.951,2482.86,0.560,-0.112,0.224,-0.870,0.488,0.073,0.274,0.188,0.943,10.966,5.679,0.489,-1.679,0.566,0.336,0.753,9.963,-5.603,-4.321,-0.748,none
0.238654,0.505,-0.183,-0.844,2528.29,0.112,0.336,0.336,-0.507,0.070,0.859,0.640,-0.126,-0.758,2510.84,0.224,-0.224,0.000,-0.929,-0.174,0.327,-0.032,-0.699,-0.714,2515.22,0.224,-0.224,0.112,-0.099,0.199,-0.975,0.271,-0.145,-0.952,2481.84,0.671,-0.112,0.224,-0.861,0.493,0.126,0.273,0.189,0.943,10.975,5.573,0.183,-1.389,0.565,0.337,0.753,9.991,-5.573,-4.534,-0.504,none
0.261441,0.504,-0.187,-0.843,2529.29,-0.112,-0.336,0.000,-0.520,0.113,0.847,0.638,-0.122,-0.761,2517.95,0.448,-0.112,-0.112,-0.908,-0.164,0.385,-0.032,-0.699,-0.714,2515.22,-0.560,-0.336,0.336,-0.122,0.194,-0.973,0.273,-0.140,-0.952,2493.33,0.336,0.224,-0.112,-0.847,0.502,0.174,0.275,0.191,0.942,10.967,5.557,-0.183,-1.206,0.564,0.338,0.754,10.001,-5.450,-4.992,-0.412,none
0.284023,0.506,-0.184,-0.843,2519.86,-0.560,-0.448,-0.224,-0.532,0.094,0.842,0.638,-0.122,-0.761,2517.95,0.112,-0.336,-0.336,-0.953,-0.185,0.241,-0.032,-0.695,-0.718,2515.42,-0.783,-0.112,0.224,-0.105,0.229,-0.968,0.273,-0.140,-0.952,2493.33,-0.224,0.000,-0.224,-0.855,0.502,0.133,0.275,0.191,0.942,10.943,5.588,0.183,-1.496,0.563,0.336,0.755,10.008,-5.573,-4.763,-0.595,none
0.308841,0.504,-0.187,-0.843,2529.29,0.000,-0.112,-0.112,-0.520,0.092,0.849,0.635,-0.126,-0.762,2513.46,0.112,-0.112,0.000,-0.946,-0.202,0.254,-0.032,-0.697,-0.716,2522.37,-0.336,-0.224,0.112,-0.116,0.217,-0.969,0.274,-0.145,-0.951,2484.29,0.000,0.112,0.112,-0.835,0.530,0.149,0.274,0.189,0.943,10.971,5.496,0.260,-1.527,0.565,0.338,0.753,10.018,-5.649,-4.687,-0.580,none
0.328485,0.501,-0.187,-0.845,2525.11,0.112,0.000,0.112,-0.495,0.101,0.863,0.634,-0.121,-0.764,2519.86,0.224,-0.224,0.336,-0.930,-0.224,0.290,-0.032,-0.697,-0.716,2508.24,-0.112,0.000,0.224,-0.084,0.225,-0.971,0.273,-0.140,-0.952,2493.33,1.007,-0.112,0.224,-0.857,0.493,0.146,0.273,0.189,0.943,10.949,5.588,0.168,-1.481,0.565,0.337,0.753,9.991,-5.557,-4.794,-0.718,none
0.351343,0.501,-0.187,-0.845,2525.11,0.112,-0.336,0.000,-0.524,0.076,0.849,0.636,-0.122,-0.762,2511.46,-0.224,0.000,-0.224,-0.938,-0.197,0.286,-0.032,-0.697,-0.716,2508.24,0.000,0.000,0.112,-0.093,0.222,-0.971,0.270,-0.144,-0.952,2492.31,0.224,-0.224,0.000,-0.853,0.493,0.173,0.273,0.189,0.943,10.970,5.603,0.122,-1.450,0.565,0.335,0.754,10.005,-5.511,-4.916,-0.748,none
0.372774,0.504,-0.184,-0.844,2513.96,0.112,0.000,-0.112,-0.513,0.071,0.855,0.638,-0.122,-0.761,2517.95,-0.112,-0.112,-0.224,-0.937,-0.206,0.282,-0.032,-0.697,-0.716,2508.24,-0.112,0.000,0.112,-0.083,0.236,-0.968,0.270,-0.140,-0.953,2490.89,-0.895,0.336,-0.224,-0.836,0.529,0.147,0.273,0.188,0.944,10.995,5.649,0.275,-1.573,0.564,0.338,0.753,10.003,-5.511,-4.672,-0.824,none
0.394925,0.506,-0.188,-0.842,2520.87,0.112,0.336,0.112,-0.534,0.080,0.842,0.636,-0.122,-0.762,2511.46,0.000,0.112,0.224,-0.941,-0.177,0.290,-0.032,-0.699,-0.714,2515.22,-0.336,-0.224,0.224,-0.102,0.193,-0.976,0.274,-0.141,-0.951,2482.86,-0.112,0.112,-0.112,-0.845,0.519,0.128,0.275,0.188,0.943,10.989,5.527,0.168,-1.481,0.564,0.336,0.754,10.003,-5.603,-4.672,-0.626,none
0.417507,0.502,-0.184,-0.845,2522.41,-0.112,-0.336,0.112,-0.499,0.078,0.863,0.636,-0.122,-0.762,2511.46,-0.224,-0.112,-0.224,-0.927,-0.194,0.320,-0.032,-0.695,-0.718,2515.42,-0.560,-0.224,0.224,-0.108,0.209,-0.972,0.270,-0.140,-0.953,2490.89,0.448,-0.224,0.224,-0.813,0.557,0.168,0.276,0.188,0.943,10.970,5.527,0.275,-1.588,0.564,0.335,0.755,9.992,-5.664,-4.595,-0.733,none
0.440517,0.501,-0.187,-0.845,2525.11,-0.112,-0.560,-0.112,-0.518,0.080,0.852,0.635,-0.126,-0.762,2513.46,0.224,0.000,0.112,-0.946,-0.202,0.254,-0.032,-0.697,-0.716,2508.24,0.000,-0.224,0.000,-0.100,0.207,-0.973,0.270,-0.140,-0.953,2490.89,0.448,0.000,0.000,-0.851,0.511,0.123,0.274,0.187,0.943,10.960,5.557,0.183,-1.557,0.565,0.334,0.755,10.019,-5.542,-4.840,-0.794,none
0.462063,0.502,-0.184,-0.845,2522.41,-0.224,-0.224,0.000,-0.508,0.083,0.857,0.636,-0.122,-0.762,2511.46,-0.112,-0.224,0.000,-0.948,-0.210,0.239,-0.032,-0.695,-0.718,2515.42,0.000,-0.224,-0.224,-0.110,0.196,-0.975,0.270,-0.140,-0.953,2490.89,-0.671,0.000,-0.112,-0.826,0.529,0.192,0.276,0.188,0.943,10.974,5.725,0.290,-1.588,0.565,0.336,0.754,10.030,-5.450,-4.824,-1.069,none
0.484951,0.502,-0.180,-0.846,2520.59,0.224,0.336,0.112,-0.555,0.123,0.822,0.638,-0.122,-0.760,2503.85,-0.112,0.000,-0.112,-0.948,-0.227,0.224,-0.032,-0.697,-0.716,2508.24,0.000,0.112,-0.336,-0.099,0.221,-0.970,0.273,-0.140,-0.952,2493.33,0.000,0.000,-0.112,-0.832,0.504,0.231,0.275,0.190,0.942,10.970,5.664,0.427,-1.664,0.565,0.336,0.754,10.015,-5.542,-4.687,-1.053,none
0.507743,0.505,-0.183,-0.844,2528.29,0.112,0.000,0.112,-0.520,0.113,0.847,0.638,-0.125,-0.760,2518.43,0.224,0.112,0.224,-0.945,-0.171,0.279,-0.028,-0.699,-0.714,2514.20,0.112,0.112,-0.112,-0.113,0.254,-0.961,0.272,-0.139,-0.952,2502.85,0.224,0.000,-0.112,-0.862,0.493,0.118,0.272,0.188,0.944,10.990,5.664,0.290,-1.603,0.565,0.337,0.754,9.996,-5.450,-4.794,-0.947,none
0.529407,0.502,-0.184,-0.845,2522.41,0.112,0.336,0.000,-0.545,0.083,0.834,0.635,-0.126,-0.762,2513.46,-0.112,0.000,-0.112,-0.926,-0.171,0.337,-0.032,-0.695,-0.718,2515.42,-0.112,0.000,-0.112,-0.114,0.221,-0.969,0.274,-0.137,-0.952,2481.61,0.000,0.000,0.112,-0.869,0.489,0.075,0.275,0.190,0.943,10.972,5.695,0.260,-1.588,0.562,0.335,0.756,10.010,-5.405,-4.718,-1.008,none
0.551878,0.502,-0.184,-0.845,2522.41,0.112,0.112,0.000,-0.502,0.082,0.861,0.636,-0.122,-0.762,2511.46,-0.112,0.112,0.000,-0.912,-0.192,0.362,-0.028,-0.697,-0.716,2507.22,-0.112,-0.224,-0.112,-0.083,0.224,-0.971,0.270,-0.137,-0.953,2489.64,-0.448,0.224,-0.112,-0.868,0.475,0.146,0.274,0.190,0.943,10.969,5.695,0.351,-1.664,0.564,0.336,0.754,9.999,-5.481,-4.672,-1.023,none
0.573328,0.502,-0.184,-0.845,2522.41,0.000,0.112,0.112,-0.501,0.049,0.864,0.636,-0.122,-0.762,2511.46,-0.448,-0.112,0.224,-0.939,-0.230,0.257,-0.028,-0.695,-0.718,2501.67,0.336,0.336,-0.112,-0.077,0.230,-0.970,0.274,-0.141,-0.951,2482.86,0.000,0.000,0.224,-0.855,0.493,0.158,0.274,0.188,0.943,10.991,5.756,0.412,-1.710,0.564,0.338,0.753,10.003,-5.466,-4.580,-1.206,none
0.596455,0.501,-0.187,-0.845,2525.11,0.112,0.000,0.000,-0.487,0.070,0.870,0.637,-0.126,-0.760,2505.85,0.112,0.112,0.000,-0.960,-0.188,0.207,-0.032,-0.695,-0.718,2515.42,0.336,0.336,-0.224,-0.101,0.215,-0.971,0.271,-0.141,-0.952,2480.41,0.560,-0.112,0.112,-0.835,0.514,0.197,0.272,0.188,0.944,10.965,5.756,0.870,-1.832,0.563,0.334,0.756,10.008,-5.679,-4.015,-1.053,none
0.616966,0.503,-0.188,-0.844,2516.67,0.224,0.000,0.448,-0.484,0.075,0.872,0.635,-0.126,-0.762,2513.46,0.448,0.000,0.336,-0.940,-0.210,0.269,-0.032,-0.699,-0.714,2515.22,-0.112,0.112,0.224,-0.085,0.226,-0.971,0.271,-0.153,-0.950,2476.25,0.448,0.000,0.112,-0.834,0.520,0.184,0.272,0.188,0.944,10.989,5.618,0.137,-1.466,0.564,0.334,0.755,10.006,-5.405,-4.840,-0.763,none
0.641237,0.500,-0.192,-0.845,2513.36,0.224,0.336,-0.224,-0.567,0.098,0.818,0.634,-0.125,-0.763,2520.33,-0.224,0.000,-0.112,-0.933,-0.187,0.307,-0.033,-0.697,-0.716,2480.67,-0.560,0.112,0.224,-0.099,0.229,-0.968,0.270,-0.140,-0.953,2490.89,0.112,-0.224,0.000,-0.861,0.484,0.157,0.275,0.188,0.943,10.983,5.710,0.183,-1.466,0.564,0.334,0.755,10.028,-5.359,-4.824,-0.901,none
0.660545,0.502,-0.184,-0.845,2522.41,0.000,-0.112,-0.224,-0.510,0.089,0.856,0.636,-0.118,-0.763,2511.03,-0.112,-0.112,0.000,-0.934,-0.184,0.306,-0.033,-0.695,-0.718,2487.84,-0.448,0.000,-0.112,-0.119,0.233,-0.965,0.273,-0.140,-0.952,2493.33,-0.224,0.112,-0.448,-0.855,0.502,0.133,0.275,0.191,0.942,10.983,5.740,0.229,-1.542,0.564,0.338,0.753,10.048,-5.359,-4.885,-1.008,none
0.682650,0.507,-0.180,-0.843,2518.04,-0.224,0.000,-0.112,-0.510,0.100,0.854,0.638,-0.118,-0.761,2516.00,-0.224,-0.112,-0.112,-0.942,-0.168,0.292,-0.028,-0.699,-0.714,2514.20,-0.336,0.336,-0.448,-0.100,0.230,-0.968,0.275,-0.133,-0.952,2480.26,-0.112,0.000,-0.224,-0.856,0.493,0.155,0.274,0.193,0.942,10.972,5.817,0.595,-1.893,0.564,0.340,0.752,9.993,-5.466,-4.626,-1.450,none
0.704349,0.509,-0.183,-0.841,2524.43,0.224,0.336,0.224,-0.498,0.059,0.865,0.640,-0.122,-0.759,2510.36,0.000,0.336,0.224,-0.939,-0.212,0.272,-0.025,-0.695,-0.718,2514.16,0.671,0.448,-0.560,-0.114,0.221,-0.969,0.277,-0.136,-0.951,2493.89,0.224,-0.224,0.000,-0.849,0.511,0.131,0.272,0.190,0.943,10.981,5.771,0.473,-1.847,0.562,0.342,0.753,9.987,-5.542,-4.641,-1.252,none
0.726945,0.505,-0.183,-0.844,2528.29,-0.224,0.224,0.112,-0.506,0.110,0.855,0.638,-0.122,-0.761,2517.95,-0.112,0.224,0.336,-0.920,-0.202,0.336,-0.028,-0.697,-0.716,2507.22,0.112,0.112,0.000,-0.099,0.225,-0.969,0.274,-0.141,-0.951,2482.86,0.000,0.000,0.224,-0.844,0.520,0.130,0.274,0.190,0.943,10.960,5.542,0.244,-1.634,0.565,0.337,0.753,9.997,-5.634,-4.733,-0.977,none
0.748861,0.504,-0.187,-0.843,2529.29,0.448,0.000,0.112,-0.516,0.088,0.852,0.636,-0.122,-0.762,2511.46,0.000,-0.112,0.112,-0.916,-0.214,0.340,-0.032,-0.699,-0.714,2500.37,0.112,-0.112,0.112,-0.100,0.207,-0.973,0.273,-0.140,-0.952,2493.33,-0.112,-0.112,-0.112,-0.819,0.523,0.238,0.273,0.191,0.943,10.955,5.481,0.168,-1.557,0.563,0.338,0.754,10.008,-5.725,-4.748,-0.718,none
0.770239,0.502,-0.184,-0.845,2522.41,0.112,0.112,0.112,-0.516,0.095,0.851,0.635,-0.126,-0.762,2513.46,-0.224,-0.224,-0.112,-0.956,-0.162,0.243,-0.028,-0.697,-0.716,2521.36,0.112,-0.112,0.224,-0.084,0.222,-0.971,0.273,-0.140,-0.952,2493.33,-0.112,-0.112,0.112,-0.809,0.532,0.251,0.274,0.187,0.943,10.958,5.420,0.031,-1.496,0.563,0.336,0.755,10.013,-5.786,-4.733,-0.504,none
0.793019,0.501,-0.187,-0.845,2525.11,0.000,-0.336,0.112,-0.533,0.095,0.841,0.634,-0.125,-0.763,2520.33,-0.112,-0.336,-0.112,-0.953,-0.191,0.236,-0.032,-0.699,-0.714,2515.22,-0.448,-0.224,0.560,-0.092,0.231,-0.968,0.270,-0.137,-0.953,2489.64,0.000,0.000,0.000,-0.865,0.481,0.144,0.274,0.187,0.943,10.968,5.435,0.168,-1.542,0.563,0.335,0.756,9.996,-5.771,-4.611,-0.519,none
0.818133,0.500,-0.187,-0.846,2533.56,0.112,-0.224,0.224,-0.490,0.093,0.867,0.633,-0.126,-0.764,2506.36,0.224,-0.112,0.000,-0.945,-0.178,0.273,-0.032,-0.699,-0.714,2515.22,0.000,0.112,0.224,-0.086,0.198,-0.976,0.269,-0.140,-0.953,2500.41,0.224,-0.336,0.336,-0.842,0.512,0.171,0.273,0.186,0.944,10.964,5.527,0.168,-1.527,0.563,0.335,0.756,10.026,-5.527,-4.824,-0.626,none
0.837178,0.501,-0.187,-0.845,2525.11,0.000,-0.112,-0.224,-0.521,0.060,0.852,0.634,-0.121,-0.764,2519.86,-0.112,-0.112,0.000,-0.946,-0.218,0.240,-0.032,-0.699,-0.714,2500.37,-0.112,-0.112,0.000,-0.099,0.236,-0.967,0.270,-0.140,-0.953,2490.89,-0.224,0.000,0.224,-0.852,0.510,0.118,0.276,0.191,0.942,10.940,5.588,0.122,-1.496,0.563,0.337,0.754,10.026,-5.450,-5.023,-0.809,none
0.860082,0.504,-0.184,-0.844,2513.96,-0.448,-0.336,-0.224,-0.521,0.111,0.846,0.636,-0.122,-0.762,2511.46,-0.224,0.000,0.000,-0.914,-0.174,0.366,-0.028,-0.699,-0.715,2500.78,-0.112,-0.112,0.000,-0.099,0.221,-0.970,0.274,-0.141,-0.951,2482.86,-0.336,-0.112,0.112,-0.846,0.519,0.122,0.275,0.190,0.943,10.962,5.511,0.305,-1.634,0.563,0.339,0.754,10.021,-5.664,-4.656,-0.763,none
0.879638,0.504,-0.187,-0.843,2529.29,0.000,0.000,0.112,-0.496,0.113,0.861,0.636,-0.122,-0.762,2511.46,-0.336,-0.112,0.336,-0.937,-0.216,0.275,-0.028,-0.699,-0.714,2514.20,0.000,-0.112,0.112,-0.091,0.225,-0.970,0.273,-0.140,-0.952,2493.33,0.000,0.000,-0.112,-0.842,0.513,0.166,0.274,0.189,0.943,10.962,5.527,0.214,-1.634,0.563,0.338,0.754,10.005,-5.649,-4.733,-0.794,none
0.901791,0.503,-0.188,-0.844,2516.67,0.112,-0.112,0.112,-0.515,0.063,0.855,0.638,-0.125,-0.760,2518.43,0.000,0.112,0.000,-0.939,-0.179,0.293,-0.028,-0.697,-0.716,2507.22,-0.112,-0.224,0.112,-0.092,0.207,-0.974,0.274,-0.145,-0.951,2484.29,0.448,-0.112,0.112,-0.830,0.530,0.172,0.272,0.191,0.943,10.971,5.450,0.214,-1.573,0.563,0.338,0.754,10.015,-5.664,-4.626,-0.611,none
0.924073,0.503,-0.188,-0.844,2516.67,0.224,-0.112,0.112,-0.535,0.079,0.841,0.638,-0.122,-0.761,2517.95,0.000,-0.336,0.000,-0.940,-0.186,0.286,-0.028,-0.699,-0.714,2514.20,0.112,-0.112,0.112,-0.116,0.201,-0.973,0.274,-0.141,-0.951,2482.86,0.336,0.112,0.112,-0.842,0.519,0.145,0.273,0.189,0.943,10.971,5.374,0.107,-1.420,0.563,0.336,0.755,10.012,-5.756,-4.595,-0.336,none
0.946287,0.501,-0.191,-0.844,2525.97,0.000,-0.448,-0.112,-0.510,0.100,0.854,0.635,-0.126,-0.762,2513.46,0.336,-0.336,0.000,-0.954,-0.201,0.224,-0.032,-0.701,-0.712,2522.22,-0.448,-0.448,0.224,-0.109,0.226,-0.968,0.270,-0.144,-0.952,2492.31,-0.224,-0.112,0.112,-0.830,0.539,0.147,0.274,0.187,0.943,10.974,5.374,0.031,-1.344,0.565,0.335,0.754,9.998,-5.664,-4.855,-0.351,none
0.968092,0.501,-0.191,-0.844,2525.97,0.224,-0.224,-0.112,-0.493,0.090,0.866,0.634,-0.121,-0.764,2519.86,0.112,-0.336,-0.112,-0.939,-0.194,0.283,-0.032,-0.699,-0.714,2515.22,-0.448,-0.224,0.112,-0.091,0.229,-0.969,0.269,-0.140,-0.953,2500.41,0.224,-0.112,0.000,-0.841,0.519,0.154,0.274,0.187,0.943,10.967,5.573,0.244,-1.527,0.566,0.334,0.754,10.012,-5.542,-4.824,-0.779,none
0.993791,0.501,-0.187,-0.845,2525.11,0.112,-0.112,0.000,-0.536,0.092,0.839,0.635,-0.126,-0.762,2513.46,-0.112,-0.112,-0.224,-0.921,-0.201,0.333,-0.032,-0.699,-0.714,2515.22,0.224,0.224,-0.224,-0.083,0.243,-0.967,0.273,-0.140,-0.952,2493.33,0.112,0.000,0.000,-0.866,0.484,0.127,0.274,0.189,0.943,10.986,5.557,0.198,-1.511,0.564,0.337,0.754,10.024,-5.496,-4.870,-0.855,none
1.018049,0.503,-0.183,-0.845,2536.73,0.000,-0.112,-0.112,-0.499,0.087,0.862,0.636,-0.122,-0.762,2511.46,-0.224,0.112,0.000,-0.916,-0.200,0.349,-0.028,-0.699,-0.714,2514.20,-0.224,-0.112,-0.112,-0.094,0.213,-0.973,0.270,-0.137,-0.953,2489.64,-0.671,0.000,-0.224,-0.864,0.497,0.082,0.277,0.190,0.942,10.976,5.603,0.305,-1.542,0.565,0.337,0.753,10.019,-5.542,-4.748,-0.947,none
1.038646,0.503,-0.183,-0.845,2536.73,0.000,0.336,0.112,-0.520,0.099,0.848,0.638,-0.122,-0.761,2517.95,0.112,0.000,0.000,-0.936,-0.164,0.311,-0.025,-0.693,-0.720,2508.63,0.336,0.336,0.000,-0.122,0.202,-0.972,0.273,-0.132,-0.953,2490.74,-0.112,-0.112,0.000,-0.849,0.502,0.166,0.271,0.190,0.944,10.981,5.496,0.382,-1.679,0.564,0.338,0.753,10.009,-5.725,-4.504,-0.794,none
1.060046,0.505,-0.183,-0.844,2528.29,0.112,-0.112,0.112,-0.523,0.117,0.844,0.640,-0.122,-0.759,2510.36,0.112,-0.112,0.336,-0.925,-0.171,0.339,-0.028,-0.699,-0.714,2514.20,0.336,-0.224,0.112,-0.101,0.212,-0.972,0.273,-0.140,-0.952,2493.33,0.000,0.000,0.112,-0.851,0.511,0.123,0.273,0.187,0.944,10.951,5.420,0.305,-1.603,0.563,0.338,0.755,9.998,-5.756,-4.595,-0.626,none
1.084069,0.501,-0.187,-0.845,2525.11,0.112,-0.112,0.336,-0.520,0.122,0.846,0.635,-0.126,-0.762,2513.46,0.224,-0.112,0.112,-0.941,-0.201,0.271,-0.032,-0.699,-0.714,2515.22,0.000,0.112,0.112,-0.130,0.197,-0.972,0.269,-0.140,-0.953,2500.41,0.224,-0.224,0.224,-0.849,0.484,0.211,0.272,0.187,0.944,10.978,5.496,0.092,-1.511,0.564,0.335,0.755,10.018,-5.603,-4.855,-0.687,none
1.105835,0.501,-0.187,-0.845,2525.11,0.000,-0.112,-0.112,-0.522,0.091,0.848,0.634,-0.125,-0.763,2520.33,-0.112,-0.112,-0.112,-0.928,-0.203,0.313,-0.032,-0.699,-0.714,2515.22,0.000,0.000,0.000,-0.116,0.214,-0.970,0.270,-0.144,-0.952,2492.31,-0.224,0.000,0.000,-0.858,0.508,0.077,0.274,0.186,0.944,11.004,5.527,0.107,-1.511,0.564,0.333,0.756,10.012,-5.618,-4.824,-0.656,none
1.128630,0.501,-0.187,-0.845,2525.11,0.000,-0.224,0.000,-0.508,0.109,0.854,0.636,-0.122,-0.762,2511.46,0.112,-0.112,-0.112,-0.928,-0.174,0.329,-0.032,-0.699,-0.714,2500.37,-0.112,0.112,0.000,-0.107,0.232,-0.967,0.266,-0.140,-0.954,2488.21,-0.224,0.000,-0.224,-0.843,0.527,0.113,0.274,0.183,0.944,10.941,5.481,0.122,-1.466,0.564,0.332,0.756,10.003,-5.573,-4.809,-0.534,none
1.171155,0.499,-0.188,-0.846,2519.26,-0.112,-0.224,-0.224,-0.531,0.077,0.844,0.635,-0.126,-0.762,2513.46,0.112,-0.112,-0.224,-0.923,-0.206,0.324,-0.036,-0.697,-0.716,2508.58,-0.224,-0.336,0.224,-0.099,0.219,-0.971,0.270,-0.140,-0.953,2490.89,-0.224,0.000,0.000,-0.835,0.527,0.156,0.274,0.187,0.943,10.938,5.542,0.198,-1.374,0.564,0.331,0.756,10.006,-5.481,-4.580,-0.565,none
1.223100,0.503,-0.188,-0.844,2516.67,0.224,-0.112,-0.224,-0.504,0.106,0.857,0.633,-0.126,-0.764,2506.36,0.336,0.000,0.000,-0.943,-0.190,0.274,-0.036,-0.697,-0.716,2508.58,-0.112,-0.224,-0.112,-0.116,0.211,-0.971,0.270,-0.140,-0.953,2490.89,0.336,0.224,-0.112,-0.834,0.520,0.184,0.276,0.184,0.944,10.980,5.634,0.198,-1.420,0.566,0.331,0.755,9.986,-5.588,-4.351,-0.473,none
1.223802,0.500,-0.188,-0.845,2510.81,0.112,-0.112,0.112,-0.490,0.060,0.869,0.635,-0.126,-0.762,2513.46,0.000,-0.112,0.000,-0.943,-0.214,0.255,-0.028,-0.695,-0.718,2501.67,-0.112,-0.448,0.112,-0.085,0.211,-0.974,0.270,-0.144,-0.952,2492.31,0.224,-0.112,-0.112,-0.842,0.527,0.115,0.274,0.188,0.943,10.955,5.618,0.443,-1.298,0.564,0.334,0.755,10.012,-5.450,-4.565,-0.504,none
1.226007,0.503,-0.188,-0.844,2516.67,0.000,-0.224,-0.336,-0.487,0.077,0.870,0.634,-0.125,-0.763,2520.33,0.000,-0.224,-0.336,-0.924,-0.214,0.318,-0.032,-0.697,-0.716,2508.24,-0.448,-0.560,0.000,-0.077,0.208,-0.975,0.270,-0.140,-0.953,2490.89,0.000,0.112,-0.112,-0.859,0.506,0.075,0.272,0.193,0.943,10.978,5.847,-0.137,-1.191,0.562,0.340,0.754,10.031,-5.038,-5.282,-0.779,none
1.241948,0.509,-0.180,-0.842,2522.61,0.000,0.000,0.000,-0.530,0.097,0.842,0.640,-0.114,-0.760,2508.11,-0.560,0.112,-0.448,-0.939,-0.188,0.287,-0.028,-0.693,-0.720,2522.31,-0.448,0.224,-0.224,-0.091,0.219,-0.971,0.282,-0.133,-0.950,2485.83,-0.448,0.000,-0.112,-0.847,0.494,0.198,0.274,0.197,0.942,10.955,5.863,0.443,-1.511,0.565,0.344,0.750,10.001,-5.176,-4.855,-1.298,none
1.266139,0.512,-0.183,-0.839,2529.53,0.000,0.336,0.000,-0.495,0.101,0.863,0.643,-0.114,-0.757,2513.77,-0.448,0.112,0.000,-0.927,-0.224,0.301,-0.025,-0.689,-0.724,2494.81,-0.224,0.112,-0.336,-0.122,0.225,-0.967,0.280,-0.136,-0.950,2507.13,-0.671,0.112,-0.560,-0.818,0.532,0.217,0.275,0.195,0.941,10.962,5.802,0.382,-1.832,0.563,0.344,0.751,10.033,-5.389,-4.687,-1.374,none
1.288063,0.509,-0.183,-0.841,2524.43,0.224,0.448,0.112,-0.533,0.095,0.841,0.640,-0.118,-0.759,2508.40,-0.336,0.112,0.000,-0.923,-0.206,0.324,-0.025,-0.691,-0.722,2515.12,0.000,0.000,0.000,-0.091,0.243,-0.966,0.279,-0.137,-0.950,2475.82,0.000,0.000,0.000,-0.856,0.494,0.155,0.274,0.192,0.942,10.952,5.710,0.473,-1.908,0.562,0.341,0.754,10.016,-5.618,-4.473,-1.344,none
1.310037,0.506,-0.188,-0.842,2520.87,0.112,0.000,0.336,-0.545,0.111,0.831,0.640,-0.122,-0.759,2510.36,0.112,0.000,0.448,-0.939,-0.188,0.287,-0.028,-0.693,-0.720,2508.87,0.000,0.000,0.000,-0.124,0.181,-0.976,0.274,-0.145,-0.951,2484.29,0.000,0.000,0.000,-0.852,0.502,0.148,0.275,0.188,0.943,10.968,5.481,0.260,-1.725,0.564,0.335,0.755,10.010,-5.725,-4.534,-0.901,none
1.330506,0.502,-0.184,-0.845,2522.41,0.000,-0.112,0.224,-0.466,0.099,0.879,0.636,-0.122,-0.762,2511.46,0.000,0.000,0.224,-0.918,-0.205,0.340,-0.032,-0.697,-0.716,2508.24,0.000,0.000,0.000,-0.101,0.202,-0.974,0.271,-0.145,-0.952,2481.84,0.000,0.000,0.000,-0.839,0.503,0.210,0.275,0.183,0.944,10.953,5.450,0.092,-1.588,0.567,0.330,0.755,9.991,-5.786,-4.580,-0.565,none
1.353021,0.499,-0.184,-0.847,2518.25,0.000,-0.671,0.224,-0.517,0.057,0.854,0.633,-0.126,-0.764,2506.36,0.000,0.000,0.000,-0.946,-0.226,0.233,-0.036,-0.699,-0.714,2515.56,0.000,0.000,0.000,-0.108,0.207,-0.972,0.266,-0.144,-0.953,2489.63,0.000,0.000,0.000,-0.857,0.493,0.150,0.275,0.182,0.944,10.955,5.389,0.122,-1.496,0.565,0.327,0.757,10.035,-5.756,-4.534,-0.427,none
1.373920,0.497,-0.187,-0.847,2527.73,-0.112,-0.671,0.224,-0.486,0.116,0.866,0.629,-0.125,-0.767,2522.43,0.000,0.000,0.000,-0.948,-0.210,0.239,-0.036,-0.699,-0.714,2500.72,0.000,0.000,0.000,-0.099,0.222,-0.970,0.265,-0.140,-0.954,2497.75,0.000,0.000,0.000,-0.857,0.493,0.150,0.276,0.182,0.944,10.970,5.389,0.015,-1.435,0.567,0.331,0.754,10.021,-5.695,-4.794,-0.229,none
1.396391,0.499,-0.184,-0.847,2518.25,0.112,-0.671,0.112,-0.510,0.075,0.857,0.634,-0.121,-0.764,2519.86,0.000,0.000,0.000,-0.957,-0.208,0.203,-0.036,-0.699,-0.714,2500.72,0.000,0.000,0.000,-0.086,0.197,-0.977,0.269,-0.136,-0.954,2499.17,0.000,0.000,0.000,-0.849,0.502,0.166,0.274,0.183,0.944,10.987,5.450,0.076,-1.389,0.565,0.331,0.756,9.985,-5.618,-4.794,-0.458,none
1.418637,0.499,-0.188,-0.846,2519.26,-0.112,-0.224,-0.224,-0.512,0.093,0.854,0.633,-0.126,-0.764,2506.36,0.000,0.000,0.000,-0.919,-0.148,0.366,-0.032,-0.697,-0.716,2494.80,0.000,0.000,0.000,-0.100,0.211,-0.972,0.271,-0.145,-0.952,2481.84,0.000,0.000,0.000,-0.824,0.524,0.216,0.275,0.187,0.943,10.966,5.588,-0.092,-1.313,0.565,0.337,0.753,10.005,-5.344,-5.130,-0.733,none
1.439354,0.506,-0.184,-0.843,2519.86,-0.671,-0.112,-0.336,-0.537,0.078,0.840,0.636,-0.122,-0.762,2511.46,0.000,0.000,0.000,-0.940,-0.186,0.286,-0.028,-0.693,-0.720,2494.73,0.000,0.000,0.000,-0.115,0.228,-0.967,0.272,-0.132,-0.953,2500.27,0.000,0.000,0.000,-0.808,0.549,0.213,0.274,0.191,0.942,10.973,5.740,0.198,-1.542,0.564,0.340,0.753,10.006,-5.313,-5.008,-1.145,none
1.461340,0.506,-0.184,-0.843,2519.86,-0.224,0.224,-0.224,-0.488,0.106,0.866,0.638,-0.122,-0.760,2503.85,0.000,0.000,0.000,-0.943,-0.175,0.283,-0.025,-0.693,-0.720,2508.63,0.000,0.000,0.000,-0.130,0.215,-0.968,0.277,-0.136,-0.951,2493.89,0.000,0.000,0.000,-0.832,0.514,0.207,0.273,0.191,0.943,10.958,5.771,0.473,-1.679,0.566,0.338,0.752,10.008,-5.405,-4.779,-1.405,none
1.483207,0.506,-0.184,-0.843,2519.86,-0.112,0.336,-0.112,-0.505,0.092,0.858,0.638,-0.122,-0.761,2517.95,0.000,0.000,0.000,-0.924,-0.220,0.314,-0.028,-0.697,-0.716,2507.22,0.000,0.000,0.000,-0.118,0.188,-0.975,0.274,-0.145,-0.951,2484.29,-0.112,-0.112,-0.112,-0.853,0.475,0.215,0.274,0.192,0.942,10.975,5.817,0.321,-1.725,0.563,0.339,0.754,10.005,-5.328,-4.885,-1.405,none
1.513311,0.509,-0.187,-0.840,2525.44,-0.112,0.336,0.112,-0.513,0.098,0.853,0.640,-0.122,-0.759,2510.36,0.000,0.000,0.000,-0.915,-0.217,0.340,-0.028,-0.699,-0.715,2500.78,0.000,0.000,0.000,-0.100,0.243,-0.965,0.278,-0.140,-0.950,2486.57,0.224,-0.112,-0.112,-0.849,0.510,0.136,0.272,0.189,0.943,10.958,5.679,0.122,-1.496,0.563,0.336,0.755,10.012,-5.420,-4.947,-0.962,none
1.531905,0.504,-0.184,-0.844,2513.96,-0.336,0.000,0.000,-0.498,0.091,0.862,0.637,-0.126,-0.760,2505.85,0.000,0.000,0.000,-0.934,-0.185,0.305,-0.028,-0.699,-0.715,2500.78,0.000,0.000,0.000,-0.114,0.214,-0.970,0.271,-0.141,-0.952,2480.41,-0.336,0.112,-0.224,-0.846,0.494,0.201,0.275,0.187,0.943,10.962,5.420,-0.122,-1.405,0.566,0.336,0.753,9.985,-5.634,-4.901,-0.366,none
1.553898,0.501,-0.187,-0.845,2525.11,-0.336,-0.224,-0.112,-0.533,0.074,0.843,0.635,-0.126,-0.762,2513.46,0.000,0.000,0.000,-0.937,-0.216,0.275,-0.028,-0.697,-0.716,2507.22,0.000,0.000,0.000,-0.098,0.243,-0.965,0.271,-0.141,-0.952,2480.41,-0.224,0.112,-0.112,-0.846,0.511,0.155,0.277,0.188,0.942,10.958,5.344,-0.137,-1.359,0.565,0.334,0.754,10.017,-5.710,-4.794,-0.168,none
1.574819,0.499,-0.184,-0.847,2518.25,-0.224,-0.448,-0.112,-0.488,0.100,0.867,0.636,-0.122,-0.762,2511.46,0.000,0.000,0.000,-0.944,-0.227,0.239,-0.032,-0.693,-0.720,2508.45,0.000,0.000,0.000,-0.115,0.222,-0.968,0.269,-0.140,-0.953,2500.41,0.560,0.000,0.224,-0.826,0.538,0.169,0.273,0.187,0.944,10.972,5.389,0.046,-1.435,0.565,0.333,0.755,10.008,-5.786,-4.458,-0.275,none
1.597223,0.500,-0.183,-0.846,2530.87,-0.112,-0.448,0.336,-0.496,0.087,0.864,0.636,-0.122,-0.762,2511.46,0.000,0.000,0.000,-0.943,-0.190,0.274,-0.032,-0.695,-0.718,2515.42,0.000,0.000,0.000,-0.101,0.210,-0.972,0.271,-0.137,-0.953,2479.16,0.448,0.224,0.112,-0.840,0.528,0.127,0.274,0.188,0.943,10.949,5.450,0.183,-1.435,0.565,0.334,0.754,9.996,-5.740,-4.580,-0.397,none
1.619616,0.502,-0.184,-0.845,2522.41,0.448,-0.112,0.000,-0.501,0.071,0.863,0.635,-0.126,-0.762,2513.46,0.000,0.000,0.000,-0.924,-0.181,0.337,-0.032,-0.695,-0.718,2515.42,0.000,0.000,0.000,-0.101,0.212,-0.972,0.270,-0.140,-0.953,2490.89,0.336,0.112,0.000,-0.839,0.511,0.186,0.273,0.189,0.943,10.949,5.603,0.198,-1.481,0.565,0.334,0.754,10.018,-5.527,-4.595,-0.763,none
1.641290,0.500,-0.188,-0.845,2510.81,0.336,-0.224,0.112,-0.516,0.095,0.851,0.634,-0.125,-0.763,2520.33,0.000,0.000,0.000,-0.923,-0.191,0.333,-0.032,-0.695,-0.718,2501.26,0.000,0.000,0.000,-0.108,0.198,-0.974,0.274,-0.145,-0.951,2484.29,0.560,-0.112,0.112,-0.844,0.493,0.208,0.275,0.187,0.943,10.964,5.664,0.229,-1.481,0.566,0.334,0.754,10.015,-5.496,-4.718,-0.794,none
1.663366,0.503,-0.188,-0.844,2516.67,-0.448,-0.224,-0.112,-0.520,0.080,0.851,0.636,-0.122,-0.762,2511.46,0.000,0.000,0.000,-0.934,-0.166,0.315,-0.032,-0.697,-0.716,2508.24,0.000,0.000,0.000,-0.109,0.218,-0.970,0.270,-0.140,-0.953,2490.89,0.448,0.224,0.112,-0.853,0.500,0.150,0.274,0.187,0.943,10.963,5.511,0.198,-1.450,0.563,0.333,0.756,9.990,-5.649,-4.519,-0.534,none
1.685296,0.503,-0.188,-0.844,2516.67,0.000,-0.448,0.000,-0.490,0.115,0.864,0.638,-0.125,-0.760,2518.43,0.000,0.000,0.000,-0.940,-0.201,0.274,-0.028,-0.697,-0.716,2507.22,0.000,0.000,0.000,-0.109,0.206,-0.972,0.270,-0.144,-0.952,2492.31,0.783,-0.224,0.112,-0.856,0.508,0.100,0.274,0.186,0.944,10.952,5.435,-0.076,-1.237,0.564,0.333,0.756,10.004,-5.542,-4.885,-0.321,none
1.707173,0.501,-0.187,-0.845,2525.11,-0.448,-0.448,-0.224,-0.516,0.095,0.851,0.636,-0.122,-0.762,2511.46,0.000,0.000,0.000,-0.933,-0.187,0.307,-0.032,-0.695,-0.718,2501.26,0.000,0.000,0.000,-0.107,0.230,-0.967,0.274,-0.145,-0.951,2484.29,0.000,-0.112,0.112,-0.855,0.502,0.133,0.274,0.187,0.943,10.991,5.573,0.031,-1.298,0.564,0.334,0.755,9.997,-5.405,-4.931,-0.626,none
1.729511,0.499,-0.184,-0.847,2518.25,0.000,-0.112,-0.224,-0.505,0.085,0.859,0.635,-0.126,-0.762,2513.46,0.000,0.000,0.000,-0.905,-0.186,0.383,-0.032,-0.695,-0.718,2501.26,0.000,0.000,0.000,-0.116,0.208,-0.971,0.270,-0.140,-0.953,2490.89,-0.448,0.000,-0.112,-0.829,0.538,0.150,0.277,0.187,0.942,10.944,5.710,0.336,-1.618,0.565,0.333,0.755,9.996,-5.496,-4.733,-1.053,none
1.752096,0.502,-0.184,-0.845,2522.41,0.224,0.224,-0.112,-0.507,0.080,0.858,0.635,-0.126,-0.762,2513.46,0.000,0.000,0.000,-0.941,-0.193,0.279,-0.032,-0.697,-0.716,2508.24,0.000,0.000,0.000,-0.086,0.202,-0.976,0.271,-0.141,-0.952,2480.41,-0.224,-0.112,-0.224,-0.827,0.545,0.137,0.273,0.188,0.943,11.005,5.863,0.443,-1.740,0.565,0.334,0.755,9.995,-5.221,-5.069,-1.634,none
1.773360,0.501,-0.187,-0.845,2525.11,0.000,0.448,0.000,-0.499,0.087,0.862,0.636,-0.122,-0.762,2511.46,0.000,0.000,0.000,-0.939,-0.204,0.275,-0.032,-0.695,-0.718,2528.83,0.000,0.000,0.000,-0.101,0.215,-0.971,0.271,-0.132,-0.953,2508.85,-0.112,-0.112,-0.112,-0.854,0.510,0.107,0.279,0.187,0.942,10.918,5.954,0.626,-1.863,0.566,0.334,0.754,10.007,-5.145,-4.870,-1.878,none
1.795031,0.502,-0.184,-0.845,2522.41,-0.448,0.783,0.000,-0.476,0.097,0.874,0.636,-0.122,-0.762,2511.46,0.000,0.000,0.000,-0.935,-0.175,0.310,-0.032,-0.695,-0.718,2515.42,0.000,0.000,0.000,-0.091,0.219,-0.971,0.273,-0.144,-0.951,2494.75,-0.448,0.224,-0.224,-0.874,0.458,0.161,0.275,0.190,0.942,10.968,6.092,0.763,-1.985,0.563,0.335,0.756,10.027,-5.130,-4.763,-1.786,none
1.816591,0.505,-0.183,-0.844,2528.29,0.112,0.895,0.224,-0.537,0.078,0.840,0.638,-0.118,-0.761,2516.00,0.000,0.000,0.000,-0.928,-0.192,0.319,-0.028,-0.695,-0.718,2501.67,0.000,0.000,0.000,-0.099,0.225,-0.969,0.275,-0.141,-0.951,2473.35,-0.560,0.224,-0.448,-0.842,0.511,0.173,0.274,0.191,0.943,10.988,6.015,0.611,-1.863,0.565,0.338,0.753,9.996,-5.344,-4.550,-1.481,none
1.838306,0.509,-0.187,-0.840,2525.44,-0.112,0.671,0.112,-0.556,0.087,0.827,0.636,-0.117,-0.763,2524.38,0.000,0.000,0.000,-0.918,-0.169,0.359,-0.028,-0.695,-0.718,2501.67,0.000,0.000,0.000,-0.115,0.235,-0.965,0.274,-0.141,-0.951,2482.86,0.000,0.112,0.000,-0.830,0.532,0.168,0.273,0.193,0.942,10.961,5.588,0.336,-1.649,0.563,0.338,0.754,10.014,-5.664,-4.473,-0.718,none
1.865027,0.506,-0.188,-0.842,2520.87,0.000,-0.112,0.224,-0.546,0.096,0.833,0.636,-0.125,-0.762,2526.80,0.000,0.000,0.000,-0.933,-0.152,0.327,-0.028,-0.695,-0.718,2514.39,0.000,0.000,0.000,-0.107,0.235,-0.966,0.277,-0.140,-0.951,2495.13,0.224,0.112,0.000,-0.868,0.457,0.191,0.275,0.190,0.942,10.960,5.435,0.076,-1.542,0.565,0.337,0.754,9.979,-5.847,-4.443,-0.122,none
1.881338,0.506,-0.184,-0.843,2519.86,0.000,-0.671,0.112,-0.535,0.092,0.840,0.636,-0.122,-0.762,2511.46,0.000,0.000,0.000,-0.934,-0.203,0.293,-0.032,-0.697,-0.716,2508.24,0.000,0.000,0.000,-0.109,0.214,-0.971,0.271,-0.141,-0.952,2480.41,0.224,0.112,0.224,-0.847,0.511,0.143,0.274,0.186,0.943,10.983,5.344,-0.031,-1.313,0.565,0.333,0.755,10.012,-5.863,-4.550,-0.015,none
1.903399,0.499,-0.184,-0.847,2518.25,0.224,-0.560,0.224,-0.517,0.095,0.851,0.635,-0.126,-0.762,2513.46,0.000,0.000,0.000,-0.945,-0.171,0.279,-0.036,-0.695,-0.718,2515.76,0.000,0.000,0.000,-0.116,0.214,-0.970,0.270,-0.140,-0.953,2490.89,0.560,0.000,0.224,-0.833,0.538,0.129,0.274,0.185,0.944,10.961,5.557,0.321,-1.542,0.566,0.332,0.755,10.000,-5.786,-4.305,-0.504,none
1.924824,0.501,-0.187,-0.845,2525.11,0.224,-0.448,0.224,-0.515,0.070,0.854,0.634,-0.125,-0.763,2520.33,0.000,0.000,0.000,-0.936,-0.176,0.306,-0.036,-0.699,-0.714,2500.72,0.000,0.000,0.000,-0.123,0.231,-0.965,0.270,-0.140,-0.953,2490.89,0.336,0.224,0.000,-0.854,0.510,0.103,0.274,0.187,0.944,10.997,5.695,0.550,-1.679,0.565,0.333,0.755,9.999,-5.588,-4.366,-0.947,none
1.947202,0.501,-0.187,-0.845,2525.11,0.336,0.224,0.224,-0.518,0.107,0.849,0.633,-0.126,-0.764,2506.36,0.000,0.000,0.000,-0.939,-0.170,0.298,-0.032,-0.699,-0.714,2500.37,0.000,0.000,0.000,-0.084,0.217,-0.973,0.271,-0.149,-0.951,2484.25,0.560,0.224,0.000,-0.825,0.522,0.218,0.276,0.189,0.942,10.947,5.756,0.107,-1.389,0.566,0.337,0.752,9.976,-5.313,-5.130,-0.916,none
1.968805,0.502,-0.184,-0.845,2522.41,-0.112,-0.112,-0.336,-0.489,0.099,0.867,0.638,-0.122,-0.761,2517.95,0.000,0.000,0.000,-0.938,-0.197,0.286,-0.032,-0.695,-0.718,2501.26,0.000,0.000,0.000,-0.093,0.203,-0.975,0.273,-0.136,-0.952,2492.09,-0.224,-0.224,-0.112,-0.852,0.485,0.200,0.276,0.190,0.942,10.943,5.649,0.198,-1.466,0.564,0.337,0.754,10.015,-5.405,-4.885,-0.840,none
1.992627,0.505,-0.183,-0.844,2528.29,0.000,0.000,0.112,-0.508,0.103,0.855,0.640,-0.122,-0.759,2510.36,0.000,0.000,0.000,-0.948,-0.158,0.276,-0.032,-0.693,-0.720,2508.45,0.000,0.000,0.000,-0.099,0.229,-0.968,0.274,-0.141,-0.951,2482.86,-0.560,0.000,0.000,-0.857,0.475,0.202,0.275,0.189,0.943,10.959,5.786,0.534,-1.771,0.566,0.337,0.752,10.008,-5.511,-4.550,-1.298,none
2.024810,0.505,-0.183,-0.844,2528.29,-0.112,0.224,0.112,-0.512,0.111,0.852,0.636,-0.122,-0.762,2511.46,0.000,0.000,0.000,-0.944,-0.180,0.276,-0.032,-0.693,-0.720,2508.45,0.000,0.000,0.000,-0.093,0.214,-0.972,0.274,-0.141,-0.951,2482.86,0.224,-0.112,0.224,-0.860,0.490,0.143,0.274,0.188,0.943,10.969,5.969,0.641,-1.924,0.565,0.337,0.753,9.981,-5.221,-4.840,-1.954,none
2.042575,0.506,-0.184,-0.843,2519.86,-0.112,0.560,0.112,-0.474,0.104,0.874,0.638,-0.122,-0.761,2517.95,0.000,0.000,0.000,-0.934,-0.143,0.328,-0.028,-0.695,-0.718,2501.67,0.000,0.000,0.000,-0.098,0.217,-0.971,0.273,-0.140,-0.952,2493.33,0.560,-0.336,0.112,-0.849,0.502,0.163,0.274,0.189,0.943,10.985,6.214,0.733,-2.092,0.564,0.337,0.754,9.997,-5.053,-4.916,-2.473,none
2.062633,0.504,-0.187,-0.843,2529.29,-0.112,1.007,0.000,-0.502,0.114,0.857,0.640,-0.122,-0.759,2510.36,0.000,0.000,0.000,-0.930,-0.183,0.320,-0.028,-0.695,-0.718,2514.39,0.000,0.000,0.000,-0.099,0.225,-0.969,0.271,-0.145,-0.952,2481.84,-0.895,0.000,-0.448,-0.850,0.493,0.186,0.274,0.189,0.943,10.970,5.969,0.443,-1.893,0.563,0.335,0.755,9.994,-5.115,-5.008,-1.725,none
2.085114,0.501,-0.187,-0.845,2525.11,-0.112,0.895,0.112,-0.516,0.095,0.851,0.640,-0.126,-0.758,2510.84,0.000,0.000,0.000,-0.939,-0.212,0.272,-0.028,-0.701,-0.712,2521.21,0.000,0.000,0.000,-0.094,0.214,-0.972,0.273,-0.144,-0.951,2494.75,-0.783,0.000,-0.224,-0.867,0.496,0.049,0.273,0.188,0.943,10.992,5.481,-0.137,-1.344,0.564,0.335,0.755,10.013,-5.573,-4.916,-0.214,none
2.106318,0.503,-0.188,-0.844,2516.67,-0.448,-0.783,-0.112,-0.510,0.082,0.856,0.636,-0.122,-0.762,2511.46,0.000,0.000,0.000,-0.934,-0.175,0.312,-0.028,-0.699,-0.714,2514.20,0.000,0.000,0.000,-0.101,0.204,-0.974,0.273,-0.140,-0.952,2493.33,0.000,0.224,0.000,-0.848,0.518,0.109,0.275,0.189,0.943,10.973,5.084,-0.305,-1.099,0.565,0.335,0.754,9.995,-6.000,-4.580,0.702,none
2.128323,0.502,-0.184,-0.845,2522.41,0.000,-1.119,0.112,-0.521,0.060,0.852,0.636,-0.122,-0.762,2511.46,0.000,0.000,0.000,-0.938,-0.188,0.292,-0.032,-0.697,-0.716,2508.24,0.000,0.000,0.000,-0.094,0.214,-0.972,0.270,-0.137,-0.953,2489.64,0.560,0.448,0.224,-0.857,0.502,0.117,0.276,0.189,0.942,10.929,4.916,-0.092,-1.038,0.564,0.333,0.756,9.993,-6.321,-4.000,1.069,none
2.149840,0.499,-0.188,-0.846,2519.26,0.448,-1.231,0.224,-0.535,0.105,0.838,0.634,-0.125,-0.763,2520.33,0.000,0.000,0.000,-0.911,-0.217,0.349,-0.032,-0.697,-0.716,2508.24,0.000,0.000,0.000,-0.107,0.230,-0.967,0.270,-0.140,-0.953,2490.89,1.119,0.224,0.336,-0.871,0.468,0.151,0.275,0.188,0.943,10.963,5.115,-0.046,-1.069,0.565,0.333,0.755,10.023,-6.015,-4.260,0.504,none
2.172817,0.502,-0.184,-0.845,2522.41,0.560,-0.783,0.000,-0.502,0.068,0.862,0.635,-0.126,-0.762,2513.46,0.000,0.000,0.000,-0.933,-0.187,0.307,-0.032,-0.695,-0.718,2501.26,0.000,0.000,0.000,-0.090,0.236,-0.968,0.273,-0.140,-0.952,2493.33,1.007,0.112,0.448,-0.832,0.514,0.207,0.274,0.189,0.943,10.983,5.481,0.122,-1.237,0.566,0.334,0.754,9.986,-5.496,-4.779,-0.489,none
2.194146,0.501,-0.187,-0.845,2525.11,0.671,0.112,-0.112,-0.492,0.117,0.863,0.638,-0.122,-0.760,2503.85,0.000,0.000,0.000,-0.947,-0.184,0.264,-0.032,-0.697,-0.716,2508.24,0.000,0.000,0.000,-0.093,0.222,-0.971,0.274,-0.145,-0.951,2484.29,0.336,-0.112,0.000,-0.866,0.485,0.120,0.275,0.192,0.942,10.989,5.588,-0.137,-1.221,0.566,0.336,0.753,9.989,-5.420,-5.176,-0.504,none
2.217374,0.506,-0.184,-0.843,2519.86,-0.112,-0.112,-0.224,-0.503,0.120,0.856,0.640,-0.122,-0.759,2510.36,0.000,0.000,0.000,-0.937,-0.206,0.282,-0.028,-0.693,-0.720,2508.87,0.000,0.000,0.000,-0.083,0.236,-0.968,0.274,-0.137,-0.952,2481.61,-0.671,0.224,-0.224,-0.870,0.481,0.107,0.276,0.189,0.942,10.970,5.435,0.061,-1.389,0.565,0.338,0.753,9.998,-5.664,-4.885,-0.611,none
2.239477,0.506,-0.188,-0.842,2520.87,0.000,-0.112,-0.112,-0.510,0.089,0.856,0.638,-0.122,-0.761,2517.95,0.000,0.000,0.000,-0.921,-0.215,0.324,-0.032,-0.693,-0.720,2508.45,0.000,0.000,0.000,-0.116,0.201,-0.973,0.273,-0.140,-0.952,2493.33,0.224,-0.224,0.224,-0.871,0.472,0.137,0.275,0.188,0.943,10.953,5.511,0.183,-1.573,0.565,0.333,0.755,9.992,-5.527,-4.840,-1.008,none
2.262205,0.501,-0.187,-0.845,2525.11,0.000,0.336,0.000,-0.528,0.104,0.843,0.635,-0.126,-0.762,2513.46,0.000,0.000,0.000,-0.939,-0.188,0.287,-0.032,-0.693,-0.720,2508.45,0.000,0.000,0.000,-0.124,0.203,-0.971,0.271,-0.145,-0.952,2481.84,0.560,-0.448,0.448,-0.844,0.502,0.188,0.276,0.184,0.944,10.934,5.954,0.595,-1.893,0.563,0.332,0.756,10.009,-5.237,-4.855,-1.863,none
2.283657,0.498,-0.191,-0.846,2521.81,-0.112,0.448,-0.112,-0.494,0.070,0.867,0.635,-0.126,-0.762,2513.46,0.000,0.000,0.000,-0.946,-0.169,0.277,-0.032,-0.695,-0.718,2501.26,0.000,0.000,0.000,-0.109,0.210,-0.972,0.266,-0.140,-0.954,2488.21,-0.448,-0.224,0.112,-0.871,0.483,0.090,0.275,0.186,0.943,10.957,6.382,0.931,-2.198,0.566,0.333,0.754,10.016,-4.840,-4.962,-2.794,none
2.305348,0.502,-0.184,-0.845,2522.41,0.112,1.231,0.112,-0.481,0.114,0.869,0.636,-0.118,-0.763,2511.03,0.000,0.000,0.000,-0.942,-0.166,0.291,-0.032,-0.697,-0.716,2508.24,0.000,0.000,0.000,-0.068,0.236,-0.969,0.272,-0.143,-0.952,2504.26,-1.119,0.000,-0.448,-0.855,0.514,0.065,0.273,0.188,0.943,10.956,6.351,0.870,-2.229,0.563,0.337,0.754,10.011,-4.916,-4.931,-2.427,none
2.326612,0.504,-0.184,-0.844,2513.96,0.000,1.007,-0.112,-0.525,0.067,0.848,0.638,-0.122,-0.761,2517.95,0.000,0.000,0.000,-0.923,-0.191,0.333,-0.032,-0.697,-0.716,2522.37,0.000,0.000,0.000,-0.110,0.190,-0.976,0.274,-0.145,-0.951,2484.29,-1.007,0.336,-0.560,-0.863,0.485,0.144,0.274,0.190,0.943,10.985,5.740,0.244,-1.618,0.564,0.337,0.754,10.010,-5.511,-4.702,-0.718,none
2.348962,0.505,-0.183,-0.844,2528.29,-0.448,-0.224,0.112,-0.487,0.075,0.870,0.638,-0.122,-0.761,2517.95,0.000,0.000,0.000,-0.927,-0.194,0.320,-0.028,-0.699,-0.714,2514.20,0.000,0.000,0.000,-0.107,0.232,-0.967,0.273,-0.140,-0.952,2493.33,0.000,0.224,-0.112,-0.849,0.504,0.159,0.275,0.192,0.942,10.958,5.176,-0.290,-1.115,0.564,0.338,0.754,10.014,-5.969,-4.672,0.595,none
2.371561,0.504,-0.187,-0.843,2529.29,0.336,-1.119,0.112,-0.537,0.078,0.840,0.638,-0.122,-0.761,2517.95,0.000,0.000,0.000,-0.940,-0.177,0.291,-0.032,-0.695,-0.718,2515.42,0.000,0.000,0.000,-0.077,0.216,-0.973,0.273,-0.136,-0.952,2492.09,0.336,0.336,0.112,-0.849,0.494,0.187,0.275,0.190,0.942,10.964,4.992,-0.092,-1.145,0.566,0.335,0.753,9.994,-6.198,-4.122,0.794,none
2.674237,0.505,-0.183,-0.844,2528.29,0.112,-1.343,0.224,-0.526,0.087,0.846,0.634,-0.121,-0.764,2519.86,0.000,0.000,0.000,-0.933,-0.159,0.321,-0.032,-0.695,-0.718,2501.26,0.000,0.000,0.000,-0.107,0.219,-0.970,0.270,-0.137,-0.953,2489.64,0.671,0.000,0.000,-0.864,0.493,0.105,0.274,0.188,0.943,10.982,5.282,0.214,-1.328,0.565,0.334,0.755,9.989,-5.939,-4.046,-0.015,none
2.674910,0.499,-0.188,-0.846,2519.26,0.560,-0.224,0.112,-0.478,0.123,0.870,0.635,-0.126,-0.762,2513.46,0.000,0.000,0.000,-0.947,-0.193,0.258,-0.036,-0.695,-0.718,2501.60,0.000,0.000,0.000,-0.083,0.229,-0.970,0.270,-0.140,-0.953,2490.89,1.119,0.000,0.448,-0.849,0.511,0.131,0.275,0.188,0.943,10.963,5.679,0.412,-1.634,0.564,0.334,0.755,10.004,-5.481,-4.626,-1.038,none
2.675624,0.502,-0.184,-0.845,2522.41,0.448,0.224,0.224,-0.508,0.103,0.855,0.635,-0.126,-0.762,2513.46,0.000,0.000,0.000,-0.925,-0.179,0.336,-0.032,-0.693,-0.720,2508.45,0.000,0.000,0.000,-0.100,0.226,-0.969,0.274,-0.145,-0.951,2484.29,0.224,0.112,0.112,-0.847,0.494,0.198,0.275,0.189,0.943,10.976,5.832,0.351,-1.557,0.564,0.336,0.754,9.995,-5.282,-4.947,-1.282,none
2.676245,0.506,-0.184,-0.843,2519.86,0.112,0.560,0.000,-0.526,0.122,0.842,0.638,-0.122,-0.761,2517.95,0.000,0.000,0.000,-0.943,-0.157,0.294,-0.032,-0.697,-0.716,2508.24,0.000,0.000,0.000,-0.124,0.196,-0.973,0.274,-0.141,-0.951,2482.86,-1.119,0.000,-0.448,-0.851,0.502,0.157,0.273,0.187,0.944,10.975,5.634,0.046,-1.405,0.563,0.337,0.755,10.010,-5.374,-5.115,-0.885,none
2.676757,0.500,-0.188,-0.845,2510.81,-0.112,-0.112,-0.224,-0.515,0.090,0.852,0.635,-0.126,-0.762,2513.46,0.000,0.000,0.000,-0.926,-0.186,0.328,-0.032,-0.697,-0.716,2494.80,0.000,0.000,0.000,-0.116,0.214,-0.970,0.273,-0.140,-0.952,2493.33,-0.783,-0.224,-0.336,-0.872,0.478,0.107,0.275,0.187,0.943,10.955,5.679,0.183,-1.603,0.566,0.336,0.753,9.976,-5.374,-5.099,-1.206,none
2.677119,0.503,-0.188,-0.844,2516.67,-0.671,0.000,-0.112,-0.490,0.049,0.870,0.631,-0.126,-0.765,2514.77,0.000,0.000,0.000,-0.924,-0.254,0.285,-0.032,-0.695,-0.718,2501.26,0.000,0.000,0.000,-0.100,0.234,-0.967,0.270,-0.140,-0.953,2490.89,0.000,0.000,0.000,-0.851,0.516,0.099,0.274,0.189,0.943,10.958,5.832,0.687,-2.076,0.564,0.333,0.756,9.996,-5.328,-4.687,-2.000,none
2.677479,0.501,-0.187,-0.845,2525.11,-0.560,0.448,0.112,-0.522,0.044,0.852,0.633,-0.126,-0.764,2506.36,0.000,0.000,0.000,-0.939,-0.179,0.293,-0.032,-0.697,-0.716,2508.24,0.000,0.000,0.000,-0.107,0.238,-0.965,0.266,-0.144,-0.953,2489.63,0.000,0.000,0.000,-0.841,0.514,0.170,0.273,0.187,0.944,10.969,6.214,1.023,-2.351,0.565,0.332,0.755,9.995,-5.130,-4.656,-2.611,none
2.678165,0.502,-0.184,-0.845,2522.41,0.000,1.119,0.336,-0.522,0.083,0.849,0.635,-0.126,-0.762,2513.46,0.000,0.000,0.000,-0.943,-0.198,0.267,-0.032,-0.697,-0.716,2508.24,0.000,0.000,0.000,-0.092,0.219,-0.971,0.273,-0.144,-0.951,2494.75,0.000,0.000,0.000,-0.842,0.513,0.166,0.273,0.187,0.944,10.976,6.458,0.992,-2.305,0.565,0.336,0.754,10.004,-4.840,-4.962,-2.779,none
2.678650,0.505,-0.183,-0.844,2528.29,0.000,1.455,0.224,-0.493,0.095,0.865,0.640,-0.122,-0.759,2510.36,0.000,0.000,0.000,-0.919,-0.169,0.357,-0.028,-0.699,-0.714,2514.20,0.000,0.000,0.000,-0.083,0.229,-0.970,0.273,-0.144,-0.951,2494.75,0.000,0.000,0.000,-0.840,0.485,0.244,0.276,0.191,0.942,10.962,6.061,0.412,-1.802,0.565,0.339,0.752,9.998,-5.084,-4.916,-1.481,none
2.679029,0.509,-0.183,-0.841,2524.43,-0.112,0.000,-0.112,-0.512,0.111,0.852,0.640,-0.122,-0.759,2510.36,0.000,0.000,0.000,-0.925,-0.213,0.314,-0.028,-0.697,-0.716,2521.36,0.000,0.000,0.000,-0.100,0.207,-0.973,0.279,-0.141,-0.950,2477.07,0.000,0.000,0.000,-0.872,0.466,0.151,0.275,0.191,0.942,10.980,5.374,-0.137,-1.298,0.562,0.338,0.755,10.038,-5.771,-4.626,0.046,none
2.679377,0.506,-0.184,-0.843,2519.86,-0.224,-0.895,0.112,-0.543,0.099,0.834,0.638,-0.122,-0.761,2517.95,0.000,0.000,0.000,-0.947,-0.190,0.257,-0.028,-0.699,-0.714,2514.20,0.000,0.000,0.000,-0.107,0.224,-0.969,0.273,-0.136,-0.952,2492.09,0.000,0.000,0.000,-0.831,0.530,0.171,0.275,0.193,0.942,10.959,5.145,-0.092,-1.176,0.566,0.338,0.752,10.018,-6.107,-4.412,0.626,none
2.679760,0.506,-0.184,-0.843,2519.86,0.000,-1.343,0.112,-0.538,0.109,0.836,0.638,-0.122,-0.760,2503.85,0.000,0.000,0.000,-0.924,-0.152,0.350,-0.028,-0.695,-0.718,2501.67,0.000,0.000,0.000,-0.122,0.200,-0.972,0.273,-0.132,-0.953,2490.74,0.000,0.000,0.000,-0.844,0.511,0.164,0.274,0.190,0.943,10.975,5.176,0.458,-1.573,0.564,0.338,0.754,9.986,-6.214,-3.771,0.168,none
2.680099,0.501,-0.187,-0.845,2525.11,0.448,-0.448,0.448,-0.524,0.107,0.845,0.638,-0.125,-0.760,2518.43,0.000,0.000,0.000,-0.939,-0.204,0.275,-0.032,-0.697,-0.716,2508.24,0.000,0.000,0.000,-0.077,0.220,-0.973,0.274,-0.141,-0.951,2482.86,0.000,0.000,0.000,-0.839,0.503,0.210,0.274,0.189,0.943,10.954,5.252,0.336,-1.573,0.562,0.334,0.757,9.984,-6.076,-4.107,-0.183,none
2.680459,0.501,-0.187,-0.845,2525.11,0.671,-0.448,0.448,-0.509,0.083,0.857,0.635,-0.126,-0.762,2513.46,0.000,0.000,0.000,-0.947,-0.193,0.258,-0.032,-0.697,-0.716,2508.24,0.000,0.000,0.000,-0.094,0.205,-0.974,0.271,-0.141,-0.952,2480.41,0.000,0.000,0.000,-0.866,0.492,0.095,0.273,0.188,0.943,10.978,5.313,0.168,-1.450,0.562,0.336,0.756,9.971,-5.802,-4.504,-0.427,none
2.696618,0.501,-0.187,-0.845,2525.11,0.448,-0.112,0.000,-0.492,0.104,0.864,0.635,-0.126,-0.762,2513.46,0.000,0.000,0.000,-0.942,-0.166,0.291,-0.032,-0.697,-0.716,2508.24,0.000,0.000,0.000,-0.083,0.224,-0.971,0.273,-0.148,-0.951,2495.26,0.000,0.000,0.000,-0.855,0.493,0.158,0.275,0.187,0.943,10.962,5.450,-0.061,-1.313,0.564,0.335,0.755,9.987,-5.450,-5.176,-0.733,none
2.724516,0.499,-0.188,-0.846,2519.26,-0.336,-0.112,-0.336,-0.480,0.085,0.873,0.636,-0.122,-0.762,2511.46,0.000,0.000,0.000,-0.941,-0.201,0.271,-0.032,-0.697,-0.716,2508.24,0.000,0.000,0.000,-0.075,0.240,-0.968,0.270,-0.140,-0.953,2490.89,0.000,0.000,0.000,-0.824,0.524,0.216,0.277,0.186,0.943,10.955,5.634,0.168,-1.481,0.566,0.335,0.753,9.998,-5.374,-4.992,-1.038,none
2.742830,0.499,-0.188,-0.846,2519.26,-0.112,0.224,-0.336,-0.549,0.087,0.831,0.633,-0.126,-0.764,2506.36,0.000,0.000,0.000,-0.921,-0.193,0.339,-0.032,-0.695,-0.718,2501.26,0.000,0.000,0.000,-0.124,0.189,-0.974,0.270,-0.140,-0.953,2490.89,0.000,0.000,0.000,-0.855,0.493,0.158,0.277,0.186,0.943,10.965,5.817,0.489,-1.756,0.565,0.334,0.754,10.019,-5.313,-4.870,-1.679,none
2.764237,0.501,-0.187,-0.845,2525.11,-0.560,0.336,-0.224,-0.535,0.113,0.837,0.635,-0.126,-0.762,2513.46,0.000,0.000,0.000,-0.939,-0.204,0.275,-0.032,-0.693,-0.720,2508.45,0.000,0.000,0.000,-0.118,0.198,-0.973,0.274,-0.141,-0.951,2482.86,0.000,0.000,0.000,-0.824,0.547,0.146,0.275,0.188,0.943,10.959,6.031,0.916,-2.168,0.565,0.336,0.754,10.003,-5.282,-4.733,-2.153,none
2.786136,0.504,-0.184,-0.844,2513.96,-0.448,0.895,0.224,-0.534,0.080,0.842,0.636,-0.122,-0.762,2511.46,0.000,0.000,0.000,-0.936,-0.230,0.268,-0.028,-0.697,-0.716,2507.22,0.000,0.000,0.000,-0.100,0.223,-0.970,0.272,-0.136,-0.953,2501.61,0.000,0.000,0.000,-0.849,0.511,0.131,0.275,0.187,0.943,10.989,6.015,0.855,-2.122,0.564,0.336,0.754,10.006,-5.267,-4.718,-2.061,none
2.806655,0.504,-0.187,-0.843,2529.29,0.112,0.560,0.000,-0.503,0.093,0.859,0.638,-0.125,-0.760,2518.43,0.000,0.000,0.000,-0.925,-0.188,0.330,-0.028,-0.699,-0.714,2514.20,0.000,0.000,0.000,-0.124,0.213,-0.969,0.273,-0.144,-0.951,2494.75,0.000,0.000,0.000,-0.836,0.502,0.221,0.272,0.192,0.943,10.941,5.893,0.443,-1.802,0.561,0.338,0.756,9.991,-5.252,-4.992,-1.466,none
2.828505,0.506,-0.188,-0.842,2520.87,0.112,0.448,0.112,-0.478,0.102,0.872,0.640,-0.126,-0.758,2510.84,0.000,0.000,0.000,-0.922,-0.223,0.317,-0.028,-0.699,-0.714,2514.20,0.000,0.000,0.000,-0.117,0.209,-0.971,0.278,-0.140,-0.950,2486.57,0.000,0.000,0.000,-0.827,0.523,0.205,0.271,0.192,0.943,10.982,5.496,0.046,-1.527,0.562,0.340,0.754,10.016,-5.649,-4.672,-0.336,none
2.851514,0.508,-0.188,-0.841,2512.46,0.783,-0.112,0.112,-0.484,0.110,0.868,0.640,-0.126,-0.758,2510.84,0.000,0.000,0.000,-0.935,-0.208,0.286,-0.028,-0.697,-0.716,2521.36,0.000,0.000,0.000,-0.093,0.203,-0.975,0.271,-0.141,-0.952,2480.41,0.000,0.000,0.000,-0.842,0.505,0.189,0.274,0.188,0.943,10.958,5.099,-0.168,-1.237,0.565,0.337,0.753,9.994,-6.061,-4.427,0.412,none
2.874859,0.502,-0.184,-0.845,2522.41,0.000,-1.119,0.224,-0.514,0.111,0.850,0.637,-0.126,-0.760,2505.85,0.000,0.000,0.000,-0.921,-0.193,0.339,-0.032,-0.695,-0.718,2515.42,0.000,0.000,0.000,-0.092,0.219,-0.971,0.273,-0.136,-0.952,2492.09,0.000,0.000,0.000,-0.846,0.511,0.152,0.273,0.187,0.944,10.977,5.053,0.000,-1.328,0.562,0.334,0.757,10.021,-6.168,-4.290,0.336,none
2.895812,0.503,-0.188,-0.844,2516.67,0.671,-0.671,0.336,-0.498,0.078,0.864,0.636,-0.122,-0.762,2511.46,0.000,0.000,0.000,-0.936,-0.200,0.289,-0.032,-0.693,-0.720,2508.45,0.000,0.000,0.000,-0.077,0.209,-0.975,0.273,-0.140,-0.952,2493.33,0.000,0.000,0.000,-0.862,0.493,0.118,0.273,0.187,0.944,10.969,5.344,0.351,-1.557,0.565,0.336,0.753,9.999,-5.908,-4.229,-0.366,none
2.917588,0.501,-0.187,-0.845,2525.11,0.560,0.000,0.224,-0.514,0.050,0.857,0.638,-0.125,-0.760,2518.43,0.000,0.000,0.000,-0.920,-0.184,0.347,-0.032,-0.695,-0.718,2515.42,0.000,0.000,0.000,-0.107,0.235,-0.966,0.270,-0.144,-0.952,2492.31,0.000,0.000,0.000,-0.855,0.496,0.149,0.273,0.187,0.944,10.966,5.298,0.015,-1.389,0.564,0.333,0.756,10.006,-5.771,-4.855,-0.427,none
2.941875,0.501,-0.187,-0.845,2525.11,0.000,-0.448,-0.112,-0.521,0.077,0.850,0.635,-0.126,-0.762,2513.46,0.000,0.000,0.000,-0.938,-0.188,0.292,-0.032,-0.697,-0.716,2508.24,0.000,0.000,0.000,-0.109,0.214,-0.971,0.272,-0.143,-0.952,2504.26,0.000,0.000,0.000,-0.839,0.511,0.186,0.273,0.190,0.943,10.978,5.542,-0.061,-1.359,0.565,0.335,0.754,9.991,-5.313,-5.527,-0.931,none
2.964844,0.500,-0.187,-0.846,2533.56,0.224,0.224,-0.336,-0.540,0.100,0.836,0.638,-0.122,-0.760,2503.85,0.000,0.000,0.000,-0.932,-0.161,0.324,-0.032,-0.697,-0.716,2508.24,0.000,0.000,0.000,-0.124,0.195,-0.973,0.273,-0.136,-0.952,2492.09,0.000,0.000,0.000,-0.849,0.502,0.163,0.275,0.187,0.943,10.971,5.710,0.412,-1.802,0.563,0.335,0.755,9.989,-5.435,-5.099,-1.557,none
2.987951,0.503,-0.188,-0.844,2516.67,-0.448,0.224,-0.224,-0.488,0.109,0.866,0.636,-0.122,-0.762,2511.46,0.000,0.000,0.000,-0.945,-0.171,0.279,-0.032,-0.695,-0.718,2515.42,0.000,0.000,0.000,-0.099,0.221,-0.970,0.270,-0.140,-0.953,2490.89,0.000,0.000,0.000,-0.853,0.511,0.110,0.273,0.188,0.943,10.973,5.756,0.366,-1.817,0.564,0.333,0.756,9.999,-5.267,-5.282,-1.756,none
3.012225,0.502,-0.184,-0.845,2522.41,-0.895,0.560,-0.112,-0.505,0.088,0.858,0.636,-0.122,-0.762,2511.46,0.000,0.000,0.000,-0.920,-0.202,0.336,-0.032,-0.697,-0.716,2508.24,0.000,0.000,0.000,-0.093,0.222,-0.971,0.269,-0.136,-0.954,2499.17,0.000,0.000,0.000,-0.840,0.511,0.182,0.275,0.188,0.943,10.949,6.122,0.702,-2.275,0.564,0.336,0.754,10.004,-5.023,-5.145,-2.504,none
3.033771,0.502,-0.184,-0.845,2522.41,-0.112,1.007,-0.224,-0.543,0.090,0.835,0.638,-0.122,-0.761,2517.95,0.000,0.000,0.000,-0.932,-0.195,0.305,-0.028,-0.697,-0.716,2507.22,0.000,0.000,0.000,-0.108,0.229,-0.967,0.273,-0.140,-0.952,2493.33,0.000,0.000,0.000,-0.869,0.478,0.130,0.274,0.189,0.943,10.975,6.061,0.748,-2.183,0.562,0.339,0.754,10.025,-5.160,-4.794,-2.061,none
3.056017,0.504,-0.187,-0.843,2529.29,-0.224,0.560,0.448,-0.495,0.076,0.866,0.640,-0.126,-0.758,2510.84,0.000,0.000,0.000,-0.947,-0.193,0.258,-0.028,-0.701,-0.712,2521.21,0.000,0.000,0.000,-0.115,0.232,-0.966,0.274,-0.145,-0.951,2484.29,0.000,0.000,0.000,-0.861,0.484,0.153,0.274,0.190,0.943,10.978,5.603,-0.015,-1.450,0.562,0.337,0.755,10.009,-5.450,-5.053,-0.672,none
3.077952,0.504,-0.187,-0.843,2529.29,0.224,-0.224,-0.112,-0.526,0.100,0.845,0.638,-0.122,-0.761,2517.95,0.000,0.000,0.000,-0.920,-0.167,0.355,-0.028,-0.699,-0.714,2514.20,0.000,0.000,0.000,-0.099,0.236,-0.967,0.277,-0.136,-0.951,2493.89,0.000,0.000,0.000,-0.842,0.513,0.166,0.274,0.192,0.942,10.964,5.206,-0.137,-1.313,0.564,0.340,0.752,10.007,-5.832,-4.748,0.137,none
3.108475,0.504,-0.187,-0.843,2529.29,0.112,-0.783,0.224,-0.494,0.076,0.866,0.638,-0.122,-0.760,2503.85,0.000,0.000,0.000,-0.916,-0.222,0.333,-0.032,-0.695,-0.718,2501.26,0.000,0.000,0.000,-0.094,0.183,-0.979,0.273,-0.132,-0.953,2490.74,0.000,0.000,0.000,-0.832,0.520,0.194,0.276,0.189,0.943,10.991,5.099,0.076,-1.405,0.563,0.334,0.756,10.021,-6.214,-4.031,0.382,none
3.124415,0.501,-0.187,-0.845,2525.11,0.336,-0.783,0.336,-0.554,0.053,0.831,0.636,-0.122,-0.762,2511.46,0.000,0.000,0.000,-0.936,-0.191,0.294,-0.028,-0.697,-0.716,2507.22,0.000,0.000,0.000,-0.085,0.200,-0.976,0.271,-0.141,-0.952,2480.41,0.000,0.000,0.000,-0.867,0.485,0.112,0.273,0.189,0.943,10.989,5.145,0.046,-1.313,0.565,0.334,0.754,9.998,-6.076,-4.244,0.168,none
3.146524,0.497,-0.187,-0.847,2527.73,0.112,-0.671,0.112,-0.495,0.101,0.863,0.635,-0.130,-0.762,2514.74,0.000,0.000,0.000,-0.940,-0.210,0.269,-0.032,-0.697,-0.716,2508.24,0.000,0.000,0.000,-0.092,0.215,-0.972,0.270,-0.144,-0.952,2492.31,0.000,0.000,0.000,-0.852,0.502,0.148,0.273,0.187,0.944,10.985,5.359,-0.092,-1.267,0.565,0.335,0.754,10.002,-5.618,-5.038,-0.427,none
3.168463,0.499,-0.184,-0.847,2518.25,0.112,-0.224,-0.224,-0.492,0.104,0.864,0.636,-0.122,-0.762,2511.46,0.000,0.000,0.000,-0.925,-0.213,0.314,-0.032,-0.697,-0.716,2508.24,0.000,0.000,0.000,-0.070,0.208,-0.976,0.270,-0.137,-0.953,2489.64,0.000,0.000,0.000,-0.833,0.504,0.228,0.273,0.188,0.943,10.976,5.573,0.061,-1.435,0.565,0.332,0.755,9.991,-5.374,-5.160,-1.145,none
3.189684,0.499,-0.188,-0.846,2519.26,-0.112,0.224,-0.224,-0.496,0.092,0.863,0.633,-0.126,-0.764,2506.36,0.000,0.000,0.000,-0.937,-0.174,0.304,-0.036,-0.697,-0.716,2508.58,0.000,0.000,0.000,-0.122,0.194,-0.973,0.270,-0.137,-0.953,2489.64,0.000,0.000,0.000,-0.871,0.480,0.110,0.274,0.188,0.943,10.977,5.908,0.305,-1.740,0.564,0.332,0.756,10.025,-5.069,-5.374,-1.786,none
3.215013,0.501,-0.187,-0.845,2525.11,-0.783,0.671,-0.336,-0.525,0.094,0.846,0.635,-0.126,-0.762,2513.46,0.000,0.000,0.000,-0.922,-0.201,0.332,-0.032,-0.697,-0.716,2508.24,0.000,0.000,0.000,-0.107,0.227,-0.968,0.273,-0.136,-0.952,2492.09,0.000,0.000,0.000,-0.860,0.493,0.134,0.273,0.189,0.943,10.965,6.076,0.595,-2.015,0.564,0.334,0.755,10.030,-5.023,-5.374,-2.336,none
3.234056,0.503,-0.188,-0.844,2516.67,-0.448,0.783,-0.224,-0.527,0.078,0.846,0.636,-0.122,-0.762,2511.46,0.000,0.000,0.000,-0.912,-0.203,0.357,-0.032,-0.693,-0.720,2508.45,0.000,0.000,0.000,-0.093,0.222,-0.971,0.273,-0.136,-0.952,2492.09,0.000,0.000,0.000,-0.865,0.489,0.117,0.274,0.190,0.943,10.982,6.122,0.855,-2.321,0.563,0.336,0.755,10.015,-5.069,-5.053,-2.366,none
3.256374,0.503,-0.188,-0.844,2516.67,-0.560,0.671,0.224,-0.516,0.090,0.852,0.640,-0.126,-0.758,2510.84,0.000,0.000,0.000,-0.938,-0.153,0.311,-0.028,-0.699,-0.714,2514.20,0.000,0.000,0.000,-0.116,0.217,-0.969,0.274,-0.137,-0.952,2481.61,0.000,0.000,0.000,-0.849,0.511,0.131,0.272,0.190,0.943,10.963,5.954,0.565,-1.969,0.563,0.339,0.753,10.006,-5.313,-4.779,-1.359,none
3.277385,0.508,-0.188,-0.841,2512.46,0.224,0.336,0.112,-0.484,0.099,0.870,0.636,-0.121,-0.762,2524.81,0.000,0.000,0.000,-0.939,-0.188,0.287,-0.021,-0.699,-0.714,2527.88,0.000,0.000,0.000,-0.118,0.199,-0.973,0.277,-0.144,-0.950,2496.55,0.000,0.000,0.000,-0.830,0.523,0.195,0.272,0.191,0.943,10.982,5.466,-0.397,-1.206,0.562,0.340,0.754,9.990,-5.557,-4.916,0.107,none
3.305585,0.504,-0.187,-0.843,2529.29,0.000,-0.448,-0.112,-0.547,0.101,0.831,0.638,-0.122,-0.761,2517.95,0.000,0.000,0.000,-0.932,-0.151,0.329,-0.028,-0.699,-0.714,2514.20,0.000,0.000,0.000,-0.099,0.221,-0.970,0.273,-0.136,-0.952,2492.09,0.000,0.000,0.000,-0.848,0.512,0.140,0.277,0.190,0.942,10.970,5.176,-0.397,-1.038,0.566,0.336,0.753,10.022,-5.939,-4.534,0.748,none
3.321061,0.501,-0.187,-0.845,2525.11,0.448,-1.007,0.000,-0.505,0.092,0.858,0.638,-0.122,-0.760,2503.85,0.000,0.000,0.000,-0.909,-0.188,0.373,-0.028,-0.697,-0.716,2507.22,0.000,0.000,0.000,-0.092,0.208,-0.974,0.273,-0.132,-0.953,2490.74,0.000,0.000,0.000,-0.885,0.443,0.143,0.276,0.188,0.943,10.949,5.069,-0.153,-1.069,0.563,0.335,0.755,10.035,-6.137,-4.168,0.779,none
3.344424,0.501,-0.187,-0.845,2525.11,0.560,-0.895,0.224,-0.510,0.094,0.855,0.636,-0.122,-0.762,2511.46,0.000,0.000,0.000,-0.939,-0.188,0.287,-0.032,-0.695,-0.718,2501.26,0.000,0.000,0.000,-0.091,0.219,-0.971,0.273,-0.136,-0.952,2492.09,0.000,0.000,0.000,-0.846,0.511,0.155,0.276,0.188,0.943,10.945,5.252,0.000,-1.084,0.565,0.335,0.754,9.986,-5.924,-4.382,0.229,none
3.367702,0.501,-0.187,-0.845,2525.11,0.560,-0.224,0.000,-0.494,0.103,0.863,0.636,-0.122,-0.762,2511.46,0.000,0.000,0.000,-0.941,-0.201,0.271,-0.032,-0.697,-0.716,2508.24,0.000,0.000,0.000,-0.101,0.207,-0.973,0.270,-0.140,-0.953,2490.89,0.000,0.000,0.000,-0.827,0.523,0.205,0.274,0.188,0.943,10.991,5.405,0.031,-1.252,0.565,0.333,0.755,10.013,-5.649,-4.779,-0.290,none
3.391579,0.504,-0.184,-0.844,2513.96,0.112,-0.336,-0.224,-0.496,0.107,0.862,0.635,-0.126,-0.762,2513.46,0.000,0.000,0.000,-0.943,-0.214,0.255,-0.032,-0.697,-0.716,2508.24,0.000,0.000,0.000,-0.108,0.207,-0.972,0.270,-0.137,-0.953,2489.64,0.000,0.000,0.000,-0.854,0.493,0.167,0.272,0.188,0.944,10.959,5.618,0.183,-1.450,0.562,0.334,0.757,10.016,-5.420,-5.023,-0.992,none
3.411558,0.501,-0.187,-0.845,2525.11,0.112,0.000,-0.336,-0.527,0.078,0.846,0.636,-0.122,-0.762,2511.46,0.000,0.000,0.000,-0.927,-0.210,0.311,-0.032,-0.697,-0.716,2508.24,0.000,0.000,0.000,-0.124,0.211,-0.970,0.269,-0.136,-0.954,2499.17,0.000,0.000,0.000,-0.847,0.487,0.213,0.274,0.186,0.944,10.971,6.076,0.595,-1.863,0.564,0.332,0.756,10.009,-5.069,-5.038,-2.122,none
3.434967,0.503,-0.188,-0.844,2516.67,-0.336,0.895,-0.112,-0.519,0.118,0.846,0.634,-0.125,-0.763,2520.33,0.000,0.000,0.000,-0.926,-0.186,0.328,-0.032,-0.695,-0.718,2501.26,0.000,0.000,0.000,-0.122,0.208,-0.970,0.272,-0.139,-0.952,2502.85,0.000,0.000,0.000,-0.870,0.488,0.073,0.273,0.187,0.944,10.978,6.366,0.855,-2.153,0.564,0.332,0.756,9.985,-4.901,-4.885,-2.580,none
3.456659,0.503,-0.188,-0.844,2516.67,0.000,1.231,0.112,-0.482,0.086,0.872,0.635,-0.126,-0.762,2513.46,0.000,0.000,0.000,-0.934,-0.203,0.295,-0.028,-0.699,-0.714,2514.20,0.000,0.000,0.000,-0.122,0.216,-0.969,0.270,-0.144,-0.952,2492.31,0.000,0.000,0.000,-0.864,0.485,0.136,0.272,0.189,0.944,10.957,6.260,0.473,-1.908,0.565,0.333,0.755,9.996,-4.794,-5.221,-2.061,none
3.478260,0.504,-0.187,-0.843,2529.29,-0.336,0.560,-0.224,-0.473,0.073,0.878,0.638,-0.122,-0.761,2517.95,0.000,0.000,0.000,-0.930,-0.236,0.280,-0.028,-0.699,-0.714,2514.20,0.000,0.000,0.000,-0.114,0.214,-0.970,0.273,-0.140,-0.952,2493.33,0.000,0.000,0.000,-0.836,0.529,0.144,0.275,0.192,0.942,10.976,5.908,0.031,-1.450,0.564,0.341,0.752,10.014,-5.130,-5.069,-1.008,none
3.500601,0.506,-0.184,-0.843,2519.86,0.000,0.112,-0.224,-0.538,0.069,0.840,0.638,-0.122,-0.761,2517.95,0.000,0.000,0.000,-0.931,-0.163,0.325,-0.028,-0.697,-0.716,2521.36,0.000,0.000,0.000,-0.106,0.212,-0.972,0.274,-0.137,-0.952,2481.61,0.000,0.000,0.000,-0.846,0.519,0.122,0.274,0.190,0.943,10.986,5.481,-0.046,-1.313,0.564,0.338,0.753,10.006,-5.832,-4.153,0.198,none
3.522716,0.506,-0.184,-0.843,2519.86,0.336,-0.783,0.224,-0.507,0.097,0.856,0.638,-0.122,-0.761,2517.95,0.000,0.000,0.000,-0.935,-0.217,0.282,-0.028,-0.697,-0.716,2507.22,0.000,0.000,0.000,-0.090,0.243,-0.966,0.273,-0.136,-0.952,2492.09,0.000,0.000,0.000,-0.844,0.519,0.133,0.275,0.190,0.943,10.949,5.237,-0.076,-1.099,0.565,0.337,0.753,10.004,-6.076,-3.893,0.733,none
3.546058,0.503,-0.188,-0.844,2516.67,0.783,-1.119,0.224,-0.521,0.111,0.846,0.636,-0.122,-0.762,2511.46,0.000,0.000,0.000,-0.946,-0.202,0.254,-0.032,-0.695,-0.718,2501.26,0.000,0.000,0.000,-0.109,0.218,-0.970,0.270,-0.140,-0.953,2490.89,0.000,0.000,0.000,-0.858,0.493,0.141,0.273,0.191,0.943,10.961,5.237,-0.290,-0.855,0.564,0.337,0.754,10.006,-5.908,-4.550,0.641,none
3.567750,0.501,-0.187,-0.845,2525.11,0.336,-0.895,-0.112,-0.484,0.099,0.870,0.635,-0.126,-0.762,2513.46,0.000,0.000,0.000,-0.941,-0.177,0.290,-0.032,-0.693,-0.720,2508.45,0.000,0.000,0.000,-0.086,0.208,-0.974,0.270,-0.140,-0.953,2490.89,0.000,0.000,0.000,-0.812,0.529,0.247,0.274,0.189,0.943,10.942,5.237,-0.550,-0.763,0.564,0.334,0.755,10.007,-5.634,-5.191,0.473,none
3.590554,0.502,-0.184,-0.845,2522.41,0.112,-0.671,-0.448,-0.514,0.104,0.851,0.638,-0.122,-0.760,2503.85,0.000,0.000,0.000,-0.922,-0.173,0.346,-0.032,-0.693,-0.720,2508.45,0.000,0.000,0.000,-0.114,0.214,-0.970,0.272,-0.132,-0.953,2500.27,0.000,0.000,0.000,-0.851,0.502,0.157,0.274,0.188,0.943,10.969,5.221,-0.183,-1.038,0.563,0.334,0.756,10.009,-5.832,-4.748,0.229,none
3.612342,0.500,-0.187,-0.846,2533.56,0.336,-0.448,-0.224,-0.560,0.097,0.823,0.631,-0.126,-0.765,2514.77,0.000,0.000,0.000,-0.946,-0.202,0.254,-0.032,-0.693,-0.720,2508.45,0.000,0.000,0.000,-0.084,0.222,-0.971,0.273,-0.136,-0.952,2492.09,0.000,0.000,0.000,-0.853,0.511,0.110,0.274,0.188,0.943,10.979,5.420,0.000,-1.298,0.564,0.333,0.756,9.981,-5.649,-4.947,-0.519,none
3.633136,0.501,-0.187,-0.845,2525.11,0.112,-0.112,-0.112,-0.503,0.093,0.859,0.634,-0.125,-0.763,2520.33,0.000,0.000,0.000,-0.927,-0.194,0.320,-0.032,-0.697,-0.716,2508.24,0.000,0.000,0.000,-0.101,0.196,-0.975,0.270,-0.137,-0.953,2489.64,0.000,0.000,0.000,-0.862,0.474,0.180,0.275,0.185,0.944,10.982,5.664,0.290,-1.573,0.565,0.334,0.754,9.982,-5.420,-4.962,-1.115,none
3.655390,0.501,-0.191,-0.844,2525.97,-0.112,0.336,-0.224,-0.540,0.075,0.839,0.635,-0.126,-0.762,2513.46,0.000,0.000,0.000,-0.921,-0.217,0.322,-0.032,-0.697,-0.716,2508.24,0.000,0.000,0.000,-0.107,0.233,-0.967,0.273,-0.140,-0.952,2493.33,0.000,0.000,0.000,-0.866,0.481,0.135,0.274,0.188,0.943,10.967,5.969,0.336,-1.664,0.564,0.332,0.756,10.002,-5.053,-5.206,-1.740,none
3.680100,0.499,-0.188,-0.846,2519.26,-0.448,0.671,-0.336,-0.481,0.076,0.874,0.631,-0.126,-0.765,2514.77,0.000,0.000,0.000,-0.933,-0.219,0.285,-0.032,-0.697,-0.716,2508.24,0.000,0.000,0.000,-0.108,0.201,-0.974,0.270,-0.137,-0.953,2489.64,0.000,0.000,0.000,-0.843,0.513,0.163,0.276,0.189,0.943,10.956,6.290,0.794,-2.122,0.565,0.335,0.754,9.991,-4.977,-4.916,-2.427,none
3.701938,0.503,-0.188,-0.844,2516.67,0.224,1.343,0.112,-0.537,0.058,0.842,0.636,-0.121,-0.762,2524.81,0.000,0.000,0.000,-0.915,-0.222,0.336,-0.032,-0.695,-0.718,2515.42,0.000,0.000,0.000,-0.085,0.211,-0.974,0.273,-0.140,-0.952,2493.33,0.000,0.000,0.000,-0.853,0.500,0.150,0.273,0.189,0.943,10.991,6.214,0.702,-1.969,0.565,0.336,0.753,9.999,-5.053,-4.779,-2.015,none
3.724001,0.509,-0.183,-0.841,2524.43,0.000,0.895,0.224,-0.501,0.108,0.859,0.638,-0.122,-0.761,2517.95,0.000,0.000,0.000,-0.946,-0.200,0.254,-0.028,-0.699,-0.714,2514.20,0.000,0.000,0.000,-0.093,0.222,-0.971,0.274,-0.141,-0.951,2482.86,0.000,0.000,0.000,-0.851,0.517,0.092,0.275,0.190,0.943,10.960,5.771,0.137,-1.435,0.564,0.338,0.753,10.006,-5.374,-4.885,-0.672,none
3.745463,0.506,-0.188,-0.842,2520.87,0.000,0.224,-0.112,-0.493,0.095,0.865,0.638,-0.122,-0.761,2517.95,0.000,0.000,0.000,-0.928,-0.233,0.290,-0.028,-0.697,-0.716,2507.22,0.000,0.000,0.000,-0.115,0.222,-0.968,0.274,-0.137,-0.952,2481.61,0.000,0.000,0.000,-0.837,0.529,0.140,0.275,0.193,0.942,10.969,5.359,-0.076,-1.298,0.564,0.338,0.753,10.010,-5.878,-4.427,0.229,none
3.766835,0.506,-0.188,-0.842,2520.87,0.112,-0.895,0.112,-0.474,0.104,0.874,0.638,-0.122,-0.760,2503.85,0.000,0.000,0.000,-0.923,-0.199,0.330,-0.028,-0.695,-0.718,2514.39,0.000,0.000,0.000,-0.100,0.207,-0.973,0.278,-0.140,-0.950,2486.57,0.000,0.000,0.000,-0.867,0.475,0.149,0.274,0.191,0.943,10.994,5.191,-0.031,-1.191,0.564,0.336,0.754,10.020,-6.260,-4.015,0.687,none
3.789483,0.502,-0.184,-0.845,2522.41,0.560,-1.119,0.224,-0.519,0.086,0.850,0.636,-0.122,-0.762,2511.46,0.000,0.000,0.000,-0.942,-0.168,0.292,-0.032,-0.693,-0.720,2508.45,0.000,0.000,0.000,-0.099,0.222,-0.970,0.273,-0.136,-0.952,2492.09,0.000,0.000,0.000,-0.861,0.493,0.126,0.273,0.188,0.943,10.964,5.145,0.092,-1.221,0.563,0.335,0.756,10.023,-6.076,-4.092,0.382,none
3.812130,0.502,-0.184,-0.845,2522.41,0.448,-0.895,0.224,-0.478,0.109,0.871,0.636,-0.122,-0.762,2511.46,0.000,0.000,0.000,-0.936,-0.208,0.285,-0.032,-0.695,-0.718,2515.42,0.000,0.000,0.000,-0.107,0.221,-0.969,0.273,-0.144,-0.951,2494.75,0.000,0.000,0.000,-0.867,0.475,0.149,0.273,0.186,0.944,10.967,5.237,-0.153,-1.160,0.561,0.333,0.758,10.023,-5.817,-4.779,0.015,none
3.835388,0.506,-0.188,-0.842,2520.87,0.448,-0.560,-0.112,-0.535,0.085,0.841,0.634,-0.121,-0.764,2519.86,0.000,0.000,0.000,-0.947,-0.218,0.237,-0.032,-0.697,-0.716,2508.24,0.000,0.000,0.000,-0.083,0.236,-0.968,0.266,-0.140,-0.954,2488.21,0.000,0.000,0.000,-0.873,0.467,0.142,0.276,0.186,0.943,10.950,5.420,-0.153,-1.221,0.565,0.333,0.755,10.004,-5.450,-5.160,-0.550,none
3.855526,0.499,-0.188,-0.846,2519.26,-0.336,-0.112,-0.224,-0.500,0.084,0.862,0.634,-0.125,-0.763,2520.33,0.000,0.000,0.000,-0.932,-0.195,0.304,-0.036,-0.693,-0.720,2508.79,0.000,0.000,0.000,-0.092,0.244,-0.965,0.269,-0.136,-0.954,2499.17,0.000,0.000,0.000,-0.839,0.511,0.186,0.275,0.186,0.943,10.970,5.771,0.351,-1.603,0.565,0.333,0.755,10.002,-5.298,-5.023,-1.359,none
3.875513,0.500,-0.184,-0.846,2509.79,-0.224,0.671,-0.112,-0.510,0.060,0.858,0.634,-0.125,-0.763,2520.33,0.000,0.000,0.000,-0.930,-0.199,0.310,-0.032,-0.697,-0.716,2508.24,0.000,0.000,0.000,-0.093,0.200,-0.975,0.271,-0.141,-0.952,2480.41,0.000,0.000,0.000,-0.841,0.520,0.150,0.275,0.187,0.943,10.998,5.939,0.702,-1.924,0.565,0.335,0.754,9.991,-5.191,-4.870,-1.939,none
3.897627,0.504,-0.190,-0.842,2531.84,-0.560,0.560,0.000,-0.520,0.081,0.850,0.635,-0.126,-0.762,2513.46,0.000,0.000,0.000,-0.930,-0.207,0.303,-0.032,-0.695,-0.718,2515.42,0.000,0.000,0.000,-0.094,0.185,-0.978,0.270,-0.140,-0.953,2490.89,0.000,0.000,0.000,-0.855,0.502,0.132,0.275,0.188,0.943,10.974,6.076,0.672,-2.000,0.565,0.334,0.754,9.989,-5.038,-5.038,-2.092,none
3.919095,0.501,-0.187,-0.845,2525.11,0.000,0.895,0.112,-0.495,0.081,0.865,0.636,-0.122,-0.762,2511.46,0.000,0.000,0.000,-0.938,-0.221,0.268,-0.032,-0.699,-0.714,2515.22,0.000,0.000,0.000,-0.100,0.190,-0.977,0.272,-0.139,-0.952,2502.85,0.000,0.000,0.000,-0.842,0.511,0.173,0.275,0.190,0.942,10.974,6.168,0.534,-1.939,0.565,0.333,0.755,9.996,-5.069,-5.099,-1.939,none
3.942216,0.501,-0.187,-0.845,2525.11,0.112,0.448,0.000,-0.479,0.094,0.873,0.638,-0.122,-0.761,2517.95,0.000,0.000,0.000,-0.941,-0.201,0.271,-0.032,-0.695,-0.718,2515.42,0.000,0.000,0.000,-0.106,0.226,-0.968,0.278,-0.140,-0.950,2486.57,0.000,0.000,0.000,-0.841,0.521,0.147,0.274,0.191,0.943,10.967,5.847,0.321,-1.649,0.563,0.337,0.754,10.001,-5.221,-4.885,-1.191,none
3.964124,0.505,-0.183,-0.844,2528.29,0.112,0.336,-0.112,-0.538,0.109,0.836,0.638,-0.122,-0.761,2517.95,0.000,0.000,0.000,-0.942,-0.206,0.266,-0.028,-0.697,-0.716,2507.22,0.000,0.000,0.000,-0.108,0.201,-0.974,0.274,-0.141,-0.951,2482.86,0.000,0.000,0.000,-0.866,0.477,0.152,0.275,0.189,0.943,10.975,5.542,0.153,-1.542,0.566,0.338,0.752,10.018,-5.740,-4.473,-0.244,none
3.988981,0.504,-0.187,-0.843,2529.29,0.000,-0.783,0.336,-0.491,0.112,0.864,0.635,-0.126,-0.762,2513.46,0.000,0.000,0.000,-0.943,-0.190,0.273,-0.032,-0.697,-0.716,2508.24,0.000,0.000,0.000,-0.092,0.231,-0.968,0.273,-0.136,-0.952,2492.09,0.000,0.000,0.000,-0.825,0.522,0.218,0.275,0.188,0.943,10.984,5.206,0.046,-1.328,0.565,0.336,0.754,10.032,-6.061,-4.153,0.443,none
4.012602,0.503,-0.188,-0.844,2516.67,0.560,-0.783,0.448,-0.524,0.107,0.845,0.635,-0.126,-0.762,2513.46,0.000,0.000,0.000,-0.935,-0.217,0.282,-0.032,-0.697,-0.716,2508.24,0.000,0.000,0.000,-0.123,0.239,-0.963,0.273,-0.140,-0.952,2493.33,0.000,0.000,0.000,-0.847,0.510,0.147,0.274,0.187,0.943,10.943,5.221,-0.092,-1.145,0.563,0.336,0.755,9.986,-6.015,-4.214,0.550,none
4.033135,0.501,-0.191,-0.844,2525.97,0.671,-1.007,0.112,-0.517,0.101,0.850,0.638,-0.122,-0.761,2517.95,0.000,0.000,0.000,-0.946,-0.226,0.233,-0.032,-0.695,-0.718,2501.26,0.000,0.000,0.000,-0.101,0.204,-0.974,0.274,-0.145,-0.951,2484.29,0.000,0.000,0.000,-0.860,0.490,0.143,0.275,0.186,0.943,10.959,5.176,-0.229,-0.962,0.566,0.335,0.754,9.990,-5.847,-4.595,0.305,none
4.055497,0.501,-0.187,-0.845,2525.11,0.336,-0.448,-0.224,-0.510,0.089,0.856,0.633,-0.122,-0.764,2505.88,0.000,0.000,0.000,-0.937,-0.199,0.287,-0.032,-0.695,-0.718,2501.26,0.000,0.000,0.000,-0.108,0.209,-0.972,0.273,-0.140,-0.952,2493.33,0.000,0.000,0.000,-0.848,0.511,0.144,0.275,0.184,0.944,10.941,5.420,-0.031,-1.221,0.567,0.331,0.754,9.995,-5.573,-4.931,-0.550,none
4.077903,0.499,-0.184,-0.847,2518.25,0.224,0.000,-0.112,-0.520,0.060,0.852,0.633,-0.122,-0.764,2505.88,0.000,0.000,0.000,-0.921,-0.244,0.305,-0.036,-0.693,-0.720,2494.66,0.000,0.000,0.000,-0.109,0.218,-0.970,0.269,-0.136,-0.954,2499.17,0.000,0.000,0.000,-0.833,0.529,0.163,0.277,0.186,0.943,10.952,5.924,0.641,-1.878,0.565,0.334,0.755,10.016,-5.206,-4.977,-1.939,none
4.101785,0.500,-0.183,-0.846,2530.87,-0.112,0.895,-0.112,-0.509,0.069,0.858,0.634,-0.121,-0.764,2519.86,0.000,0.000,0.000,-0.932,-0.204,0.299,-0.032,-0.697,-0.716,2508.24,0.000,0.000,0.000,-0.092,0.208,-0.974,0.270,-0.140,-0.953,2490.89,0.000,0.000,0.000,-0.839,0.511,0.186,0.273,0.187,0.944,10.959,6.183,0.855,-2.214,0.563,0.334,0.756,10.006,-5.023,-5.008,-2.534,none
4.122820,0.499,-0.188,-0.846,2519.26,-0.448,1.007,0.112,-0.532,0.082,0.843,0.635,-0.126,-0.762,2513.46,0.000,0.000,0.000,-0.952,-0.194,0.238,-0.032,-0.699,-0.714,2515.22,0.000,0.000,0.000,-0.108,0.203,-0.973,0.270,-0.144,-0.952,2492.31,0.000,0.000,0.000,-0.822,0.555,0.123,0.275,0.189,0.943,10.960,6.366,0.870,-2.183,0.565,0.336,0.753,9.977,-4.931,-5.023,-2.550,none
4.145041,0.506,-0.188,-0.842,2520.87,-0.224,1.231,0.000,-0.510,0.100,0.854,0.638,-0.125,-0.760,2518.43,0.000,0.000,0.000,-0.949,-0.201,0.244,-0.028,-0.699,-0.714,2514.20,0.000,0.000,0.000,-0.086,0.194,-0.977,0.274,-0.145,-0.951,2484.29,0.000,0.000,0.000,-0.860,0.501,0.098,0.275,0.192,0.942,10.983,6.031,0.427,-1.817,0.564,0.338,0.753,10.022,-5.191,-4.947,-1.435,none
4.165941,0.511,-0.188,-0.839,2517.04,-0.448,-0.112,-0.112,-0.488,0.080,0.869,0.640,-0.122,-0.759,2510.36,0.000,0.000,0.000,-0.937,-0.182,0.299,-0.028,-0.697,-0.716,2521.36,0.000,0.000,0.000,-0.094,0.199,-0.975,0.278,-0.144,-0.950,2488.00,0.000,0.000,0.000,-0.847,0.494,0.198,0.273,0.192,0.943,10.963,5.450,0.015,-1.328,0.563,0.339,0.754,10.021,-5.771,-4.534,-0.092,none
4.186236,0.508,-0.188,-0.841,2512.46,0.112,-1.007,0.224,-0.491,0.106,0.865,0.640,-0.125,-0.758,2525.58,0.000,0.000,0.000,-0.944,-0.180,0.276,-0.032,-0.695,-0.718,2515.42,0.000,0.000,0.000,-0.099,0.219,-0.971,0.274,-0.141,-0.951,2482.86,0.000,0.000,0.000,-0.855,0.483,0.188,0.277,0.190,0.942,10.982,5.145,-0.122,-1.206,0.563,0.337,0.754,10.018,-6.137,-4.168,0.718,none
4.205352,0.504,-0.184,-0.844,2513.96,0.224,-0.895,0.224,-0.520,0.099,0.848,0.636,-0.122,-0.762,2511.46,0.000,0.000,0.000,-0.921,-0.184,0.342,-0.028,-0.695,-0.718,2501.67,0.000,0.000,0.000,-0.099,0.236,-0.967,0.274,-0.141,-0.951,2482.86,0.000,0.000,0.000,-0.848,0.492,0.197,0.276,0.189,0.943,10.997,5.099,-0.031,-1.145,0.565,0.336,0.754,10.002,-6.183,-4.092,0.702,none
4.225318,0.506,-0.184,-0.843,2519.86,0.112,-1.119,0.112,-0.472,0.062,0.879,0.634,-0.125,-0.763,2520.33,0.000,0.000,0.000,-0.921,-0.175,0.348,-0.032,-0.697,-0.716,2508.24,0.000,0.000,0.000,-0.115,0.228,-0.967,0.273,-0.136,-0.952,2492.09,0.000,0.000,0.000,-0.853,0.511,0.110,0.276,0.189,0.942,10.973,5.130,-0.092,-1.176,0.564,0.335,0.755,10.009,-6.107,-4.260,0.550,none
4.245245,0.500,-0.188,-0.845,2510.81,0.336,-0.895,0.224,-0.497,0.098,0.862,0.635,-0.126,-0.762,2513.46,0.000,0.000,0.000,-0.924,-0.145,0.353,-0.036,-0.693,-0.720,2508.79,0.000,0.000,0.000,-0.092,0.239,-0.967,0.274,-0.141,-0.951,2482.86,0.000,0.000,0.000,-0.824,0.524,0.216,0.274,0.188,0.943,10.978,5.221,-0.198,-1.038,0.563,0.332,0.757,10.011,-5.786,-4.580,0.076,none
4.266204,0.501,-0.187,-0.845,2525.11,0.560,-0.671,-0.112,-0.518,0.040,0.854,0.633,-0.126,-0.764,2506.36,0.000,0.000,0.000,-0.930,-0.199,0.308,-0.036,-0.697,-0.716,2508.58,0.000,0.000,0.000,-0.084,0.225,-0.971,0.271,-0.141,-0.952,2480.41,0.000,0.000,0.000,-0.863,0.475,0.170,0.276,0.187,0.943,10.939,5.542,-0.076,-1.282,0.564,0.332,0.756,10.028,-5.328,-5.221,-0.916,none
4.287705,0.501,-0.187,-0.845,2525.11,-0.336,0.224,-0.448,-0.526,0.100,0.845,0.629,-0.126,-0.767,2507.70,0.000,0.000,0.000,-0.925,-0.213,0.314,-0.036,-0.693,-0.720,2508.79,0.000,0.000,0.000,-0.093,0.214,-0.972,0.272,-0.136,-0.953,2501.61,0.000,0.000,0.000,-0.854,0.493,0.164,0.278,0.187,0.942,10.948,5.985,0.733,-1.924,0.566,0.333,0.754,10.013,-5.191,-4.962,-2.046,none
4.308173,0.499,-0.188,-0.846,2519.26,0.000,1.231,0.000,-0.515,0.110,0.850,0.633,-0.126,-0.764,2506.36,0.000,0.000,0.000,-0.930,-0.207,0.305,-0.036,-0.697,-0.716,2508.58,0.000,0.000,0.000,-0.123,0.219,-0.968,0.270,-0.140,-0.953,2490.89,0.000,0.000,0.000,-0.849,0.502,0.166,0.273,0.184,0.944,10.973,6.305,1.023,-2.260,0.564,0.335,0.755,10.003,-4.977,-4.947,-2.763,none
4.328517,0.501,-0.187,-0.845,2525.11,-0.560,1.231,0.224,-0.508,0.103,0.855,0.634,-0.121,-0.764,2519.86,0.000,0.000,0.000,-0.920,-0.210,0.330,-0.028,-0.697,-0.716,2507.22,0.000,0.000,0.000,-0.102,0.193,-0.976,0.274,-0.141,-0.951,2482.86,0.000,0.000,0.000,-0.856,0.502,0.125,0.272,0.188,0.944,10.969,6.489,1.084,-2.443,0.564,0.336,0.755,10.001,-4.824,-5.038,-2.931,none
4.348125,0.506,-0.188,-0.842,2520.87,-0.448,1.231,0.112,-0.499,0.087,0.862,0.638,-0.122,-0.761,2517.95,0.000,0.000,0.000,-0.923,-0.228,0.309,-0.032,-0.697,-0.716,2508.24,0.000,0.000,0.000,-0.093,0.196,-0.976,0.273,-0.144,-0.951,2494.75,0.000,0.000,0.000,-0.834,0.520,0.184,0.274,0.191,0.942,10.959,6.183,0.748,-2.122,0.564,0.340,0.753,9.986,-5.145,-4.855,-1.878,none
4.369668,0.506,-0.188,-0.842,2520.87,0.000,0.895,0.112,-0.510,0.089,0.856,0.638,-0.125,-0.760,2518.43,0.000,0.000,0.000,-0.925,-0.171,0.339,-0.028,-0.699,-0.714,2528.34,0.000,0.000,0.000,-0.085,0.186,-0.979,0.275,-0.149,-0.950,2477.20,0.000,0.000,0.000,-0.841,0.519,0.154,0.274,0.190,0.943,10.991,5.511,-0.168,-1.359,0.563,0.338,0.754,9.997,-5.588,-4.901,-0.092,none
4.392686,0.506,-0.188,-0.842,2520.87,0.112,-0.448,-0.112,-0.530,0.097,0.842,0.638,-0.122,-0.761,2517.95,0.000,0.000,0.000,-0.938,-0.188,0.292,-0.032,-0.697,-0.716,2508.24,0.000,0.000,0.000,-0.114,0.215,-0.970,0.273,-0.140,-0.952,2493.33,0.000,0.000,0.000,-0.865,0.497,0.066,0.276,0.190,0.942,10.970,5.160,-0.427,-0.992,0.567,0.336,0.752,10.001,-5.939,-4.641,0.779,none
4.415422,0.502,-0.184,-0.845,2522.41,0.112,-1.119,0.112,-0.535,0.092,0.840,0.636,-0.122,-0.762,2511.46,0.000,0.000,0.000,-0.943,-0.198,0.268,-0.032,-0.693,-0.720,2508.45,0.000,0.000,0.000,-0.100,0.234,-0.967,0.274,-0.137,-0.952,2481.61,0.000,0.000,0.000,-0.835,0.522,0.174,0.274,0.189,0.943,10.964,5.115,-0.092,-1.099,0.565,0.336,0.754,9.999,-6.153,-4.076,0.656,none
4.436495,0.504,-0.187,-0.843,2529.29,0.224,-1.007,0.112,-0.535,0.092,0.840,0.635,-0.126,-0.762,2513.46,0.000,0.000,0.000,-0.928,-0.233,0.290,-0.032,-0.695,-0.718,2515.42,0.000,0.000,0.000,-0.106,0.242,-0.964,0.271,-0.141,-0.952,2480.41,0.000,0.000,0.000,-0.851,0.502,0.157,0.275,0.187,0.943,10.977,5.237,0.015,-1.160,0.565,0.335,0.754,10.007,-5.954,-4.290,0.275,none
4.458210,0.499,-0.188,-0.846,2519.26,0.448,-0.336,0.112,-0.511,0.105,0.853,0.633,-0.126,-0.764,2506.36,0.000,0.000,0.000,-0.930,-0.213,0.299,-0.036,-0.693,-0.720,2508.79,0.000,0.000,0.000,-0.117,0.237,-0.964,0.273,-0.140,-0.952,2493.33,0.000,0.000,0.000,-0.832,0.514,0.211,0.275,0.186,0.943,10.972,5.389,0.015,-1.252,0.564,0.333,0.756,9.984,-5.695,-4.809,-0.321,none
4.480374,0.502,-0.184,-0.845,2522.41,0.336,-0.224,0.000,-0.533,0.094,0.841,0.634,-0.125,-0.763,2520.33,0.000,0.000,0.000,-0.936,-0.191,0.294,-0.032,-0.693,-0.720,2508.45,0.000,0.000,0.000,-0.116,0.208,-0.971,0.271,-0.141,-0.952,2480.41,0.000,0.000,0.000,-0.859,0.484,0.168,0.275,0.188,0.943,10.973,5.618,0.183,-1.450,0.564,0.333,0.755,10.002,-5.481,-4.824,-0.840,none
4.503540,0.501,-0.191,-0.844,2525.97,-0.112,-0.112,0.000,-0.519,0.086,0.850,0.634,-0.125,-0.763,2520.33,-0.112,0.000,-0.112,-0.919,-0.221,0.327,-0.036,-0.695,-0.718,2515.76,0.000,0.000,0.000,-0.092,0.207,-0.974,0.273,-0.140,-0.952,2493.33,0.000,0.000,0.000,-0.871,0.482,0.100,0.275,0.186,0.943,10.963,5.740,0.305,-1.649,0.563,0.334,0.756,10.015,-5.328,-5.221,-1.511,none
4.525469,0.498,-0.191,-0.846,2521.81,-0.224,0.671,-0.112,-0.495,0.088,0.864,0.634,-0.125,-0.763,2520.33,-0.448,0.336,-0.112,-0.931,-0.198,0.308,-0.036,-0.693,-0.720,2522.23,0.000,0.000,0.000,-0.115,0.232,-0.966,0.275,-0.131,-0.952,2512.53,0.000,0.000,0.000,-0.849,0.494,0.187,0.275,0.187,0.943,10.982,6.153,0.794,-2.122,0.565,0.335,0.754,9.998,-5.069,-5.160,-2.550,none
4.546454,0.501,-0.191,-0.844,2525.97,0.112,1.007,0.224,-0.525,0.094,0.846,0.634,-0.125,-0.763,2520.33,-0.895,1.231,0.448,-0.934,-0.184,0.306,-0.032,-0.695,-0.718,2515.42,0.000,0.000,0.000,-0.093,0.204,-0.974,0.272,-0.145,-0.951,2472.32,0.000,0.000,0.000,-0.865,0.468,0.183,0.274,0.186,0.944,10.974,6.397,1.160,-2.458,0.565,0.336,0.754,9.994,-4.962,-4.885,-2.962,none
4.567323,0.504,-0.187,-0.843,2529.29,0.000,1.231,0.112,-0.490,0.121,0.863,0.635,-0.126,-0.762,2513.46,-0.671,1.007,0.783,-0.941,-0.201,0.271,-0.028,-0.699,-0.714,2514.20,0.000,0.000,0.000,-0.086,0.194,-0.977,0.274,-0.145,-0.951,2484.29,0.000,0.000,0.000,-0.827,0.523,0.205,0.274,0.188,0.943,10.951,6.305,0.794,-2.183,0.564,0.339,0.753,9.997,-5.008,-4.901,-2.183,none
4.593951,0.504,-0.187,-0.843,2529.29,-0.112,0.671,0.112,-0.499,0.096,0.861,0.638,-0.125,-0.760,2518.43,-0.448,0.448,0.336,-0.948,-0.214,0.234,-0.028,-0.697,-0.716,2521.36,0.000,0.000,0.000,-0.092,0.219,-0.971,0.278,-0.148,-0.949,2488.51,0.000,0.000,0.000,-0.827,0.497,0.262,0.274,0.193,0.942,10.951,5.679,-0.092,-1.374,0.563,0.341,0.753,9.980,-5.359,-5.099,-0.412,none
4.613160,0.504,-0.187,-0.843,2529.29,-0.112,0.000,-0.112,-0.533,0.095,0.841,0.640,-0.122,-0.759,2510.36,0.000,-0.112,-0.336,-0.948,-0.215,0.236,-0.028,-0.697,-0.716,2521.36,0.000,0.000,0.000,-0.107,0.218,-0.970,0.275,-0.141,-0.951,2473.35,0.000,0.000,0.000,-0.857,0.502,0.117,0.275,0.190,0.943,10.988,5.115,-0.290,-1.069,0.563,0.338,0.754,10.022,-6.015,-4.412,0.733,none
4.635148,0.504,-0.187,-0.843,2529.29,0.336,-1.007,0.112,-0.520,0.071,0.851,0.638,-0.125,-0.760,2518.43,0.448,-1.007,-0.224,-0.930,-0.207,0.305,-0.032,-0.695,-0.718,2515.42,0.000,0.000,0.000,-0.118,0.198,-0.973,0.273,-0.136,-0.952,2492.09,0.000,0.000,0.000,-0.866,0.484,0.127,0.277,0.190,0.942,10.957,4.947,-0.198,-1.038,0.568,0.337,0.751,9.983,-6.214,-4.198,0.992,none
4.656803,0.501,-0.187,-0.845,2525.11,0.448,-1.231,0.336,-0.501,0.109,0.859,0.634,-0.121,-0.764,2519.86,0.895,-0.671,-0.224,-0.922,-0.201,0.332,-0.036,-0.693,-0.720,2508.79,0.000,0.000,0.000,-0.107,0.211,-0.971,0.270,-0.133,-0.954,2488.30,0.000,0.000,0.000,-0.842,0.505,0.189,0.276,0.187,0.943,10.974,5.053,0.015,-1.191,0.564,0.335,0.755,10.013,-6.275,-3.985,0.672,none
4.678917,0.500,-0.188,-0.845,2510.81,0.560,-0.895,0.448,-0.487,0.095,0.868,0.635,-0.126,-0.762,2513.46,0.671,-0.560,0.000,-0.915,-0.192,0.355,-0.036,-0.697,-0.716,2508.58,0.000,0.000,0.000,-0.108,0.209,-0.972,0.274,-0.141,-0.951,2482.86,0.000,0.000,0.000,-0.847,0.502,0.178,0.273,0.185,0.944,10.951,5.252,0.061,-1.267,0.564,0.334,0.755,9.970,-5.939,-4.458,-0.076,none
4.700463,0.499,-0.188,-0.846,2519.26,0.448,-0.336,0.224,-0.512,0.066,0.857,0.635,-0.130,-0.762,2514.74,0.112,-0.112,-0.112,-0.929,-0.215,0.300,-0.036,-0.697,-0.716,2508.58,0.000,0.000,0.000,-0.083,0.236,-0.968,0.274,-0.141,-0.951,2482.86,0.000,0.000,0.000,-0.846,0.520,0.120,0.274,0.185,0.944,10.955,5.649,0.061,-1.359,0.564,0.333,0.756,9.982,-5.405,-5.191,-0.916,none
4.722579,0.500,-0.187,-0.846,2533.56,0.000,0.224,-0.112,-0.510,0.094,0.855,0.635,-0.126,-0.762,2513.46,-0.895,0.224,0.000,-0.946,-0.194,0.260,-0.032,-0.697,-0.716,2508.24,0.000,0.000,0.000,-0.090,0.236,-0.968,0.273,-0.140,-0.952,2493.33,0.000,0.000,0.000,-0.835,0.520,0.180,0.274,0.188,0.943,10.977,5.802,0.366,-1.679,0.564,0.334,0.755,10.009,-5.221,-5.145,-1.557,none
4.744358,0.501,-0.187,-0.845,2525.11,-0.112,0.560,-0.112,-0.551,0.100,0.829,0.633,-0.126,-0.764,2506.36,-0.560,0.336,0.000,-0.938,-0.188,0.292,-0.032,-0.693,-0.720,2521.89,0.000,0.000,0.000,-0.116,0.197,-0.973,0.273,-0.140,-0.952,2493.33,0.000,0.000,0.000,-0.820,0.530,0.216,0.273,0.188,0.943,10.978,5.908,0.489,-1.908,0.564,0.334,0.755,10.039,-5.176,-5.130,-1.863,none
4.765790,0.503,-0.188,-0.844,2516.67,-0.448,0.448,-0.224,-0.518,0.107,0.849,0.635,-0.126,-0.762,2513.46,-0.783,0.560,0.224,-0.913,-0.176,0.368,-0.032,-0.695,-0.718,2515.42,0.000,0.000,0.000,-0.086,0.202,-0.976,0.273,-0.140,-0.952,2493.33,0.000,0.000,0.000,-0.856,0.480,0.191,0.274,0.187,0.943,10.973,6.107,0.702,-2.092,0.564,0.333,0.756,10.027,-5.115,-5.069,-2.168,none
4.788008,0.501,-0.187,-0.845,2525.11,-0.560,0.895,0.224,-0.510,0.094,0.855,0.631,-0.126,-0.765,2514.77,-0.783,0.671,0.448,-0.939,-0.163,0.304,-0.032,-0.697,-0.716,2508.24,0.000,0.000,0.000,-0.092,0.219,-0.971,0.273,-0.140,-0.952,2493.33,0.000,0.000,0.000,-0.835,0.522,0.174,0.275,0.189,0.943,10.961,6.137,0.763,-2.076,0.563,0.337,0.754,9.991,-5.145,-4.916,-2.031,none
4.811208,0.504,-0.187,-0.843,2529.29,0.000,0.560,0.112,-0.498,0.105,0.861,0.638,-0.122,-0.761,2517.95,-0.336,0.560,0.560,-0.934,-0.196,0.300,-0.028,-0.697,-0.716,2521.36,0.000,0.000,0.000,-0.099,0.232,-0.968,0.274,-0.145,-0.951,2484.29,0.000,0.000,0.000,-0.858,0.502,0.112,0.274,0.192,0.942,10.999,5.878,0.244,-1.603,0.563,0.337,0.754,10.030,-5.298,-4.916,-1.115,none
4.834288,0.507,-0.187,-0.841,2533.85,-0.224,-0.224,-0.224,-0.544,0.105,0.833,0.638,-0.122,-0.760,2503.85,0.000,0.000,0.000,-0.947,-0.190,0.257,-0.028,-0.697,-0.716,2521.36,0.000,0.000,0.000,-0.106,0.226,-0.968,0.278,-0.140,-0.950,2486.57,0.000,0.000,0.000,-0.864,0.497,0.081,0.274,0.192,0.942,10.943,5.496,-0.061,-1.344,0.564,0.337,0.753,9.997,-5.695,-4.565,0.000,none
4.855927,0.503,-0.188,-0.844,2516.67,0.671,-0.224,0.224,-0.480,0.094,0.872,0.638,-0.125,-0.760,2518.43,0.783,-0.448,-0.336,-0.944,-0.180,0.276,-0.032,-0.695,-0.718,2515.42,0.000,0.000,0.000,-0.109,0.226,-0.968,0.274,-0.141,-0.951,2482.86,0.000,0.000,0.000,-0.869,0.476,0.137,0.275,0.191,0.942,10.959,5.298,0.015,-1.328,0.563,0.339,0.754,10.010,-6.031,-4.183,0.321,none
4.876857,0.503,-0.188,-0.844,2516.67,0.224,-0.783,0.448,-0.496,0.062,0.866,0.635,-0.126,-0.762,2513.46,1.119,-0.560,-0.112,-0.927,-0.224,0.301,-0.032,-0.697,-0.716,2508.24,0.000,0.000,0.000,-0.115,0.240,-0.964,0.274,-0.141,-0.951,2482.86,0.000,0.000,0.000,-0.840,0.496,0.221,0.275,0.189,0.943,10.963,5.221,-0.061,-1.252,0.565,0.338,0.753,9.992,-6.000,-4.321,0.351,none
4.898978,0.501,-0.187,-0.845,2525.11,0.224,-0.783,0.000,-0.499,0.096,0.861,0.638,-0.122,-0.760,2503.85,0.448,-0.560,-0.336,-0.911,-0.244,0.331,-0.032,-0.695,-0.718,2501.26,0.000,0.000,0.000,-0.075,0.226,-0.971,0.273,-0.140,-0.952,2493.33,0.000,0.000,0.000,-0.872,0.462,0.160,0.276,0.187,0.943,10.969,5.252,-0.046,-1.267,0.564,0.336,0.755,9.967,-5.832,-4.489,-0.015,none
4.921316,0.499,-0.188,-0.846,2519.26,0.336,-0.448,0.112,-0.529,0.091,0.844,0.635,-0.126,-0.762,2513.46,0.224,-0.448,-0.224,-0.936,-0.191,0.294,-0.036,-0.695,-0.718,2515.76,0.000,0.000,0.000,-0.094,0.192,-0.977,0.271,-0.141,-0.952,2480.41,0.000,0.000,0.000,-0.845,0.520,0.124,0.276,0.187,0.943,10.972,5.435,0.015,-1.405,0.562,0.333,0.757,10.009,-5.603,-4.901,-0.626,none
4.944371,0.498,-0.191,-0.846,2521.81,-0.224,-0.224,0.000,-0.515,0.083,0.853,0.635,-0.126,-0.762,2513.46,-0.224,-0.224,-0.112,-0.939,-0.205,0.277,-0.032,-0.695,-0.718,2501.26,0.000,0.000,0.000,-0.100,0.219,-0.971,0.271,-0.141,-0.952,2480.41,0.000,0.000,0.000,-0.848,0.518,0.115,0.275,0.184,0.944,10.958,5.725,0.305,-1.603,0.564,0.333,0.756,9.996,-5.282,-5.115,-1.405,none
4.965983,0.497,-0.187,-0.847,2527.73,0.000,0.224,-0.112,-0.521,0.083,0.849,0.634,-0.125,-0.763,2520.33,-0.448,0.336,0.336,-0.932,-0.195,0.306,-0.036,-0.697,-0.716,2508.58,0.000,0.000,0.000,-0.100,0.226,-0.969,0.270,-0.140,-0.953,2490.89,0.000,0.000,0.000,-0.844,0.520,0.130,0.273,0.186,0.944,10.981,6.015,0.702,-1.939,0.565,0.333,0.755,10.000,-5.084,-5.038,-2.153,none
4.988956,0.501,-0.187,-0.845,2525.11,-0.112,1.119,0.000,-0.508,0.089,0.857,0.635,-0.130,-0.762,2514.74,-0.560,0.671,0.336,-0.932,-0.195,0.306,-0.036,-0.695,-0.718,2501.60,0.000,0.000,0.000,-0.084,0.221,-0.972,0.271,-0.141,-0.952,2480.41,0.000,0.000,0.000,-0.826,0.529,0.192,0.274,0.187,0.943,11.000,6.260,0.809,-2.214,0.564,0.334,0.755,9.998,-4.916,-5.130,-2.550,none
5.013957,0.504,-0.187,-0.843,2529.29,-0.224,1.007,0.000,-0.506,0.079,0.859,0.635,-0.126,-0.762,2513.46,-1.007,0.895,0.336,-0.934,-0.211,0.288,-0.028,-0.697,-0.716,2507.22,0.000,0.000,0.000,-0.114,0.221,-0.969,0.273,-0.140,-0.952,2493.33,0.000,0.000,0.000,-0.840,0.529,0.119,0.275,0.190,0.942,10.986,6.122,0.809,-2.183,0.563,0.337,0.754,10.025,-5.176,-4.840,-2.046,none
5.035749,0.504,-0.190,-0.842,2531.84,-0.112,1.231,0.224,-0.517,0.083,0.852,0.638,-0.122,-0.761,2517.95,-0.448,0.783,0.448,-0.940,-0.201,0.274,-0.028,-0.699,-0.714,2528.34,0.000,0.000,0.000,-0.100,0.223,-0.970,0.275,-0.141,-0.951,2473.35,0.000,0.000,0.000,-0.842,0.512,0.171,0.273,0.191,0.943,10.943,5.695,0.122,-1.573,0.562,0.338,0.755,10.005,-5.450,-4.992,-0.687,none
5.057900,0.506,-0.188,-0.842,2520.87,-0.224,-0.448,-0.224,-0.495,0.101,0.863,0.638,-0.125,-0.760,2518.43,0.112,-0.448,-0.448,-0.926,-0.161,0.341,-0.032,-0.701,-0.712,2522.22,0.000,0.000,0.000,-0.109,0.198,-0.974,0.275,-0.141,-0.951,2473.35,0.000,0.000,0.000,-0.853,0.511,0.110,0.276,0.192,0.942,10.954,5.191,-0.244,-1.252,0.565,0.338,0.753,10.003,-5.863,-4.626,0.351,none
5.076229,0.504,-0.187,-0.843,2529.29,0.336,-0.895,0.224,-0.494,0.070,0.867,0.638,-0.122,-0.761,2517.95,0.783,-0.783,-0.336,-0.929,-0.215,0.300,-0.028,-0.695,-0.718,2514.39,0.000,0.000,0.000,-0.108,0.229,-0.967,0.278,-0.137,-0.951,2485.33,0.000,0.000,0.000,-0.845,0.502,0.184,0.275,0.191,0.942,10.990,5.084,-0.153,-1.176,0.563,0.336,0.755,9.999,-6.183,-4.198,0.779,none
5.096955,0.506,-0.188,-0.842,2520.87,0.560,-1.007,0.336,-0.516,0.088,0.852,0.637,-0.126,-0.760,2505.85,1.231,-0.895,-0.224,-0.925,-0.236,0.297,-0.032,-0.693,-0.720,2508.45,0.000,0.000,0.000,-0.124,0.205,-0.971,0.274,-0.141,-0.951,2482.86,0.000,0.000,0.000,-0.865,0.481,0.144,0.273,0.189,0.943,10.993,5.069,-0.076,-1.160,0.563,0.336,0.755,10.019,-6.290,-4.046,0.733,none
5.119404,0.501,-0.187,-0.845,2525.11,0.448,-1.007,0.224,-0.460,0.076,0.885,0.638,-0.125,-0.760,2518.43,0.895,-0.560,-0.336,-0.925,-0.171,0.339,-0.032,-0.695,-0.718,2515.42,0.000,0.000,0.000,-0.063,0.211,-0.975,0.274,-0.141,-0.951,2482.86,0.000,0.000,0.000,-0.851,0.502,0.157,0.273,0.185,0.944,10.960,5.252,0.046,-1.145,0.563,0.333,0.757,9.984,-5.863,-4.534,0.076,none
5.141923,0.501,-0.195,-0.844,2528.74,0.895,-0.224,-0.112,-0.531,0.077,0.844,0.633,-0.133,-0.763,2523.67,0.336,-0.448,-0.448,-0.952,-0.211,0.223,-0.032,-0.699,-0.714,2515.22,0.000,0.000,0.000,-0.107,0.238,-0.965,0.274,-0.148,-0.950,2486.70,0.000,0.000,0.000,-0.853,0.516,0.080,0.277,0.188,0.942,10.955,5.435,-0.122,-1.282,0.567,0.334,0.753,10.001,-5.542,-5.191,-0.473,none
5.165883,0.501,-0.187,-0.845,2525.11,-0.560,-0.336,-0.448,-0.514,0.131,0.848,0.631,-0.126,-0.765,2514.77,-0.336,-0.112,-0.783,-0.945,-0.210,0.249,-0.036,-0.697,-0.716,2508.58,0.000,0.000,0.000,-0.109,0.218,-0.970,0.270,-0.137,-0.953,2489.64,0.000,0.000,0.000,-0.855,0.502,0.133,0.276,0.185,0.943,10.958,5.725,0.366,-1.710,0.566,0.334,0.754,10.002,-5.344,-5.053,-1.542,none
5.187686,0.499,-0.188,-0.846,2519.26,-0.336,0.560,-0.224,-0.496,0.092,0.863,0.633,-0.126,-0.764,2506.36,-0.895,0.448,0.000,-0.922,-0.201,0.332,-0.036,-0.697,-0.716,2508.58,0.000,0.000,0.000,-0.099,0.240,-0.966,0.270,-0.137,-0.953,2489.64,0.000,0.000,0.000,-0.853,0.502,0.145,0.277,0.185,0.943,10.951,6.183,0.931,-2.290,0.564,0.332,0.756,10.040,-5.008,-5.069,-2.718,none
5.208801,0.499,-0.188,-0.846,2519.26,0.000,1.343,0.112,-0.546,0.123,0.829,0.633,-0.126,-0.764,2506.36,-1.343,1.119,0.560,-0.934,-0.150,0.324,-0.032,-0.699,-0.714,2515.22,0.000,0.000,0.000,-0.118,0.187,-0.975,0.270,-0.140,-0.953,2490.89,0.000,0.000,0.000,-0.869,0.489,0.079,0.274,0.187,0.943,10.975,6.611,1.084,-2.504,0.563,0.333,0.756,10.011,-4.733,-5.298,-3.191,none
5.230880,0.504,-0.187,-0.843,2529.29,-0.560,1.567,-0.112,-0.506,0.092,0.858,0.638,-0.125,-0.760,2518.43,-1.679,1.231,0.448,-0.927,-0.185,0.326,-0.032,-0.695,-0.718,2515.42,0.000,0.000,0.000,-0.114,0.224,-0.968,0.277,-0.140,-0.951,2495.13,0.000,0.000,0.000,-0.843,0.519,0.142,0.273,0.192,0.942,10.969,6.534,0.901,-2.321,0.563,0.338,0.754,9.995,-4.901,-5.023,-2.473,none
5.253180,0.506,-0.188,-0.842,2520.87,-0.112,1.231,0.000,-0.538,0.089,0.838,0.640,-0.121,-0.758,2523.59,-0.448,1.007,0.336,-0.914,-0.200,0.353,-0.025,-0.697,-0.716,2521.12,0.000,0.000,0.000,-0.108,0.209,-0.972,0.274,-0.145,-0.951,2484.29,0.000,0.000,0.000,-0.848,0.512,0.140,0.275,0.192,0.942,10.964,5.802,0.000,-1.664,0.565,0.341,0.751,10.006,-5.389,-4.992,-0.718,none
5.275809,0.506,-0.188,-0.842,2520.87,0.000,0.000,0.000,-0.521,0.064,0.851,0.640,-0.121,-0.758,2523.59,0.224,-0.112,-0.448,-0.941,-0.230,0.249,-0.028,-0.699,-0.714,2514.20,0.000,0.000,0.000,-0.084,0.214,-0.973,0.277,-0.136,-0.951,2493.89,0.000,0.000,0.000,-0.831,0.530,0.171,0.275,0.192,0.942,10.962,5.542,-0.443,-1.313,0.563,0.339,0.753,9.996,-5.771,-4.840,0.458,none
5.296683,0.508,-0.188,-0.841,2512.46,0.560,-0.224,-0.112,-0.531,0.103,0.841,0.640,-0.122,-0.759,2510.36,0.560,-0.448,-1.343,-0.926,-0.177,0.334,-0.032,-0.697,-0.716,2522.37,0.000,0.000,0.000,-0.084,0.217,-0.973,0.278,-0.140,-0.950,2486.57,0.000,0.000,0.000,-0.822,0.522,0.226,0.276,0.192,0.942,10.942,5.542,-0.351,-1.160,0.563,0.340,0.754,9.971,-5.924,-4.779,0.947,none
5.318699,0.506,-0.184,-0.843,2519.86,0.448,-0.112,-0.336,-0.539,0.122,0.833,0.635,-0.133,-0.761,2528.62,0.448,-0.112,-1.343,-0.936,-0.191,0.294,-0.032,-0.695,-0.718,2501.26,0.000,0.000,0.000,-0.091,0.219,-0.971,0.272,-0.141,-0.952,2470.89,0.000,0.000,0.000,-0.839,0.503,0.210,0.274,0.188,0.943,10.987,5.466,-0.351,-1.145,0.567,0.334,0.753,10.007,-6.046,-4.794,0.687,none
5.338432,0.499,-0.184,-0.847,2518.25,0.560,-0.112,-0.560,-0.519,0.094,0.850,0.635,-0.126,-0.762,2513.46,-0.448,-0.112,-1.119,-0.911,-0.204,0.358,-0.036,-0.693,-0.720,2494.66,0.000,0.000,0.000,-0.100,0.243,-0.965,0.272,-0.136,-0.953,2501.61,0.000,0.000,0.000,-0.844,0.512,0.158,0.272,0.184,0.944,10.971,5.985,0.137,-1.756,0.564,0.333,0.756,10.036,-5.679,-4.885,-0.611,none
5.355736,0.497,-0.187,-0.847,2527.73,0.112,1.231,-0.895,-0.530,0.089,0.843,0.634,-0.125,-0.763,2520.33,-1.119,0.895,-1.455,-0.933,-0.187,0.307,-0.037,-0.699,-0.714,2488.00,0.000,0.000,0.000,-0.108,0.198,-0.974,0.267,-0.153,-0.952,2483.07,0.000,0.000,0.000,-0.870,0.481,0.107,0.273,0.187,0.944,10.988,5.771,-0.840,-1.527,0.562,0.330,0.758,9.991,-5.069,-7.802,-0.870,none
5.377007,0.498,-0.191,-0.846,2521.81,-2.686,0.783,-2.350,-0.477,0.070,0.876,0.634,-0.125,-0.763,2534.43,-3.357,1.343,-2.798,-0.931,-0.207,0.301,-0.036,-0.697,-0.716,2508.58,0.000,0.000,0.000,-0.116,0.247,-0.962,0.268,-0.139,-0.953,2508.99,0.336,-3.469,1.902,-0.858,0.476,0.191,0.275,0.186,0.943,10.950,6.153,-0.977,-1.863,0.565,0.332,0.755,9.980,-4.687,-8.672,-1.771,none
5.397645,0.498,-0.172,-0.850,2520.55,-4.141,1.119,-2.910,-0.518,0.080,0.852,0.632,-0.110,-0.767,2509.40,-4.924,1.343,-3.469,-0.921,-0.158,0.357,-0.032,-0.693,-0.720,2508.45,0.000,0.000,0.000,-0.084,0.222,-0.971,0.266,-0.137,-0.954,2486.96,-6.379,-3.021,-0.112,-0.854,0.493,0.163,0.276,0.190,0.942,10.945,6.840,0.489,-2.748,0.561,0.337,0.756,9.968,-4.504,-7.725,-3.252,none
5.420834,0.504,-0.194,-0.842,2532.92,-2.574,2.238,-1.902,-0.498,0.105,0.861,0.635,-0.113,-0.764,2530.21,-2.574,2.014,-1.679,-0.939,-0.204,0.275,-0.032,-0.705,-0.709,2536.28,0.000,0.000,0.000,-0.077,0.221,-0.972,0.271,-0.132,-0.953,2508.85,-5.148,-2.686,-0.224,-0.847,0.519,0.113,0.270,0.190,0.944,10.966,6.855,1.115,-3.679,0.552,0.341,0.761,9.965,-4.779,-10.794,-3.863,none
5.441136,0.505,-0.183,-0.844,2528.29,-6.826,2.014,-3.021,-0.509,0.124,0.852,0.635,-0.132,-0.761,2543.34,-6.602,1.790,-2.910,-0.941,-0.201,0.271,-0.025,-0.693,-0.720,2508.63,0.000,0.000,0.000,-0.100,0.211,-0.972,0.268,-0.129,-0.955,2473.80,-4.364,-6.267,1.455,-0.858,0.508,0.077,0.272,0.195,0.942,10.976,7.771,2.595,-4.260,0.566,0.342,0.750,10.001,-4.870,-9.160,-4.931,none
5.463158,0.512,-0.183,-0.839,2529.53,-5.483,2.462,-2.350,-0.510,0.094,0.855,0.637,-0.139,-0.758,2552.28,-8.952,-0.336,-2.462,-0.942,-0.168,0.292,-0.025,-0.703,-0.711,2528.70,0.000,0.000,0.000,-0.124,0.195,-0.973,0.267,-0.145,-0.953,2479.15,-4.476,-6.491,1.231,-0.864,0.493,0.105,0.270,0.199,0.942,10.982,6.366,1.130,-2.702,0.588,0.336,0.735,10.082,-5.725,-12.595,-2.061,none
5.486731,0.514,-0.160,-0.843,2519.40,-6.714,0.112,-3.245,-0.534,0.083,0.841,0.639,-0.097,-0.763,2558.87,-15.107,-5.371,-3.245,-0.932,-0.204,0.299,-0.025,-0.699,-0.714,2513.97,0.560,1.007,-1.119,-0.101,0.190,-0.977,0.269,-0.124,-0.955,2495.27,-5.595,-3.133,0.224,-0.832,0.504,0.231,0.276,0.199,0.940,10.960,6.168,-0.992,-2.183,0.574,0.343,0.743,10.040,-5.450,-8.840,-1.099,none
5.509184,0.514,-0.178,-0.839,2540.41,-5.483,0.448,-2.686,-0.525,0.067,0.848,0.642,-0.101,-0.760,2532.89,-8.393,-4.700,-1.679,-0.939,-0.179,0.293,-0.028,-0.697,-0.716,2521.36,0.560,0.000,-0.112,-0.116,0.203,-0.972,0.266,-0.129,-0.955,2484.31,-3.021,-4.141,0.895,-0.845,0.487,0.222,0.274,0.188,0.943,10.965,6.198,-1.786,-1.908,0.574,0.336,0.747,10.000,-5.298,-10.153,-0.305,none
5.532390,0.507,-0.171,-0.845,2535.13,-6.826,1.119,-3.581,-0.516,0.095,0.851,0.634,-0.095,-0.767,2609.22,-6.602,-5.148,-0.671,-0.922,-0.190,0.337,-0.032,-0.701,-0.712,2535.64,1.007,-0.448,0.112,-0.099,0.215,-0.972,0.259,-0.139,-0.956,2514.22,0.448,-6.714,2.238,-0.852,0.493,0.176,0.286,0.188,0.940,10.983,6.275,-4.260,-1.710,0.583,0.336,0.740,10.046,-4.366,-13.878,-0.626,none
5.554807,0.507,-0.157,-0.848,2516.57,-11.302,1.790,-5.260,-0.555,0.067,0.829,0.632,-0.100,-0.769,2465.01,-6.043,-6.602,-2.014,-0.940,-0.231,0.250,-0.032,-0.695,-0.718,2501.26,0.671,0.112,-1.343,-0.085,0.211,-0.974,0.250,-0.128,-0.960,2492.43,0.895,-8.729,2.686,-0.824,0.524,0.216,0.280,0.191,0.941,10.971,7.053,-3.450,-1.954,0.577,0.337,0.744,9.985,-3.893,-12.550,-0.870,none
5.577274,0.505,-0.153,-0.850,2509.11,-10.743,2.014,-5.595,-0.546,0.075,0.834,0.635,-0.098,-0.767,2330.84,-6.155,-0.783,-2.910,-0.947,-0.223,0.233,-0.028,-0.695,-0.718,2501.67,0.224,1.343,-2.574,-0.101,0.207,-0.973,0.250,-0.124,-0.960,2491.16,-5.819,-5.148,1.007,-0.816,0.514,0.265,0.280,0.191,0.941,10.983,6.733,-2.473,-2.504,0.577,0.338,0.744,10.026,-4.015,-14.397,-0.916,none
5.601283,0.511,-0.159,-0.845,2536.27,-11.079,1.343,-5.036,-0.549,0.073,0.833,0.632,-0.104,-0.768,2668.04,-7.050,1.679,-4.812,-0.925,-0.236,0.297,-0.025,-0.697,-0.716,2506.98,-0.448,2.126,-3.021,-0.092,0.235,-0.968,0.252,-0.132,-0.959,2505.58,-6.826,-6.155,1.567,-0.833,0.528,0.164,0.285,0.194,0.939,10.971,6.519,-1.954,-3.405,0.580,0.338,0.741,9.990,-3.740,-18.244,-0.244,none
5.622963,0.512,-0.160,-0.844,2527.83,-15.667,1.119,-7.162,-0.536,0.038,0.844,0.635,-0.099,-0.766,2484.58,-8.393,-5.036,-4.141,-0.925,-0.236,0.297,-0.021,-0.701,-0.712,2520.74,-0.560,3.021,-4.252,-0.084,0.229,-0.970,0.251,-0.129,-0.959,2483.79,-4.812,-7.833,2.798,-0.840,0.512,0.181,0.293,0.189,0.937,11.001,7.130,6.198,-5.313,0.590,0.339,0.733,10.036,-3.573,-20.015,0.183,none
5.644706,0.514,-0.137,-0.847,2518.23,-15.219,0.895,-7.722,-0.550,0.050,0.834,0.626,-0.088,-0.775,2472.05,-10.072,-1.455,-4.029,-0.924,-0.243,0.294,-0.025,-0.697,-0.716,2493.54,-1.119,3.693,-3.357,-0.107,0.222,-0.969,0.248,-0.109,-0.963,2475.46,-5.931,-6.155,2.014,-0.833,0.529,0.163,0.415,0.156,0.896,10.946,3.435,1.038,2.885,0.599,0.337,0.726,9.996,-3.939,-16.641,-0.992,none
5.666265,0.507,-0.130,-0.852,2515.33,-8.841,1.455,-5.371,-0.551,0.043,0.833,0.624,-0.052,-0.779,2493.27,-4.029,0.112,-2.126,-0.933,-0.225,0.280,-0.017,-0.695,-0.718,2472.02,3.245,1.790,-3.581,-0.115,0.228,-0.967,0.236,-0.121,-0.964,2470.59,-2.014,-6.155,0.895,-0.823,0.513,0.246,0.247,0.196,0.949,10.851,8.198,22.397,29.420,0.603,0.338,0.723,10.107,-4.855,-15.008,-3.679,none
5.685518,0.513,-0.116,-0.850,2543.46,-7.386,2.238,-2.574,-0.537,0.049,0.842,0.628,-0.041,-0.777,2463.68,-0.671,1.455,-4.141,-0.933,-0.225,0.280,-0.017,-0.689,-0.724,2494.39,5.483,2.126,-3.581,-0.123,0.236,-0.964,0.242,-0.117,-0.963,2493.57,0.000,-6.714,-0.560,-0.830,0.523,0.195,0.184,0.213,0.960,10.957,7.695,5.786,12.366,0.602,0.340,0.723,10.089,-4.733,-11.603,-3.160,none
5.706111,0.517,-0.137,-0.845,2524.23,-4.812,2.462,-2.798,-0.561,0.034,0.827,0.634,-0.107,-0.766,2501.42,2.686,2.910,-5.036,-0.941,-0.201,0.271,-0.017,-0.705,-0.709,2520.48,4.476,2.686,-2.798,-0.107,0.221,-0.969,0.240,-0.129,-0.962,2475.47,0.112,-4.476,0.560,-0.817,0.531,0.227,0.255,0.198,0.947,10.925,6.687,5.221,9.481,0.597,0.341,0.726,10.034,-4.565,-9.420,-1.420,none
5.725036,0.518,-0.129,-0.846,2520.86,-3.469,1.119,-2.238,-0.517,0.061,0.854,0.635,-0.102,-0.766,2514.38,-1.007,1.679,-2.910,-0.923,-0.228,0.309,-0.013,-0.703,-0.711,2514.00,1.567,0.895,-1.343,-0.140,0.203,-0.969,0.243,-0.129,-0.961,2477.89,-0.671,-2.910,0.112,-0.812,0.529,0.247,0.247,0.197,0.949,10.974,5.954,3.435,7.542,0.599,0.342,0.724,10.017,-4.733,-8.092,-0.443,none
5.744653,0.518,-0.129,-0.846,2520.86,-2.350,1.007,-2.238,-0.517,0.053,0.854,0.633,-0.075,-0.771,2508.91,-0.224,0.000,-3.133,-0.933,-0.219,0.285,-0.017,-0.699,-0.715,2513.55,0.000,-0.336,-0.448,-0.092,0.235,-0.968,0.235,-0.121,-0.964,2481.20,-1.790,-2.126,-0.336,-0.835,0.530,0.149,0.249,0.195,0.949,10.959,5.420,0.718,3.939,0.597,0.340,0.726,10.023,-4.885,-7.374,0.198,none
5.764951,0.513,-0.129,-0.849,2525.02,-1.343,0.448,-2.350,-0.556,0.060,0.829,0.632,-0.078,-0.771,2431.67,0.560,2.462,-3.469,-0.932,-0.204,0.300,-0.021,-0.705,-0.709,2507.24,-0.783,-0.448,-0.224,-0.115,0.216,-0.970,0.234,-0.113,-0.966,2488.63,-1.679,-1.119,-0.224,-0.766,0.555,0.326,0.257,0.192,0.947,10.994,5.252,1.267,2.214,0.605,0.340,0.720,10.059,-5.176,-6.229,-0.061,none
5.785504,0.514,-0.121,-0.849,2521.67,-0.671,0.000,-1.119,-0.537,0.078,0.840,0.630,-0.072,-0.773,2501.86,0.783,4.364,-3.133,-0.927,-0.232,0.293,-0.017,-0.695,-0.719,2501.02,-0.336,-0.112,-0.336,-0.124,0.225,-0.967,0.235,-0.105,-0.966,2475.82,-1.007,0.112,-0.224,-0.825,0.522,0.218,0.264,0.193,0.945,10.960,5.450,1.557,-0.351,0.603,0.344,0.720,10.068,-5.649,-4.550,-1.008,none
5.808081,0.516,-0.121,-0.848,2527.67,0.783,0.336,0.783,-0.534,0.065,0.843,0.639,-0.064,-0.766,2497.82,2.574,5.371,-3.693,-0.932,-0.212,0.293,-0.013,-0.699,-0.715,2513.40,1.007,0.448,-0.336,-0.123,0.239,-0.963,0.235,-0.121,-0.964,2481.20,0.895,0.000,0.224,-0.822,0.539,0.183,0.264,0.189,0.946,10.963,5.618,0.718,-0.977,0.603,0.341,0.722,10.021,-5.603,-3.008,-1.405,none
5.830691,0.515,-0.122,-0.848,2513.18,2.126,0.448,1.343,-0.517,0.012,0.856,0.640,-0.073,-0.765,2463.42,3.581,6.938,-3.805,-0.921,-0.231,0.314,-0.013,-0.703,-0.711,2514.00,0.783,0.000,-0.336,-0.123,0.222,-0.967,0.235,-0.121,-0.964,2481.20,1.343,0.224,-0.112,-0.835,0.537,0.118,0.266,0.191,0.945,10.973,5.542,-0.076,-1.069,0.598,0.343,0.724,10.077,-5.649,-2.611,-1.145,none
5.852133,0.521,-0.129,-0.844,2526.05,2.910,0.000,1.231,-0.561,0.034,0.827,0.644,-0.081,-0.760,2554.20,4.029,9.176,-4.700,-0.933,-0.248,0.262,-0.017,-0.701,-0.713,2507.13,0.000,-0.448,0.336,-0.109,0.226,-0.968,0.238,-0.124,-0.963,2494.43,0.448,1.119,-0.448,-0.840,0.485,0.244,0.269,0.188,0.945,10.982,5.466,-0.641,-1.099,0.599,0.342,0.724,10.057,-5.756,-2.626,-0.626,none
5.873593,0.516,-0.132,-0.846,2530.50,2.798,0.000,1.007,-0.540,0.019,0.841,0.642,-0.099,-0.760,2594.42,2.910,6.714,-3.805,-0.935,-0.254,0.249,-0.013,-0.701,-0.713,2506.98,0.000,-0.448,0.671,-0.115,0.219,-0.969,0.237,-0.120,-0.964,2502.84,-0.224,1.231,-0.671,-0.785,0.558,0.267,0.271,0.187,0.944,10.963,5.344,-1.206,-0.626,0.599,0.339,0.726,10.045,-5.725,-3.221,0.076,none
5.895700,0.513,-0.133,-0.848,2526.20,2.126,-0.336,0.560,-0.548,0.066,0.834,0.645,-0.080,-0.760,2477.71,0.895,5.036,-2.350,-0.938,-0.226,0.263,-0.017,-0.703,-0.711,2500.01,-1.343,-0.783,1.231,-0.107,0.219,-0.970,0.234,-0.120,-0.965,2490.84,0.000,1.119,-0.224,-0.816,0.521,0.250,0.271,0.187,0.944,10.963,5.313,-1.176,-0.443,0.599,0.341,0.724,10.020,-5.893,-2.962,0.122,none
5.924708,0.514,-0.133,-0.847,2517.72,2.686,-0.448,1.119,-0.546,0.056,0.836,0.643,-0.079,-0.762,2513.54,0.895,5.819,-2.350,-0.913,-0.248,0.323,-0.021,-0.699,-0.714,2513.74,-1.231,-0.895,1.119,-0.094,0.210,-0.973,0.234,-0.117,-0.965,2489.77,0.000,1.455,-0.448,-0.836,0.502,0.221,0.273,0.184,0.944,10.971,5.557,-0.092,-1.099,0.599,0.337,0.726,10.051,-5.969,-2.489,-0.779,none
5.941989,0.514,-0.136,-0.847,2541.15,3.469,-0.112,1.567,-0.530,0.049,0.847,0.640,-0.089,-0.763,2571.90,1.455,5.371,-2.126,-0.936,-0.214,0.279,-0.021,-0.701,-0.713,2507.32,-0.112,-0.336,0.560,-0.137,0.212,-0.968,0.237,-0.112,-0.965,2500.64,-0.112,1.790,-0.783,-0.838,0.520,0.163,0.272,0.186,0.944,10.967,5.863,1.176,-1.908,0.597,0.340,0.726,10.062,-5.939,-2.840,-1.679,none
5.963794,0.515,-0.140,-0.846,2534.07,2.462,0.224,1.567,-0.588,0.072,0.806,0.649,-0.081,-0.757,2567.24,0.448,2.574,-0.112,-0.944,-0.223,0.243,-0.017,-0.697,-0.717,2506.57,0.448,0.000,-0.112,-0.122,0.205,-0.971,0.241,-0.116,-0.964,2504.17,0.000,1.455,-0.560,-0.851,0.502,0.157,0.270,0.188,0.944,10.953,6.427,1.038,-2.382,0.596,0.341,0.727,10.047,-5.618,-3.618,-2.580,none
5.985582,0.513,-0.140,-0.847,2542.53,1.343,0.895,1.007,-0.561,0.027,0.828,0.646,-0.075,-0.760,2532.59,-0.224,0.336,0.895,-0.938,-0.226,0.263,-0.013,-0.697,-0.717,2520.56,2.238,1.231,-1.455,-0.117,0.209,-0.971,0.242,-0.117,-0.963,2493.57,-0.224,-0.224,0.000,-0.834,0.511,0.208,0.271,0.188,0.944,10.964,6.901,1.130,-2.702,0.595,0.344,0.726,10.023,-5.237,-4.504,-2.855,none
6.007531,0.520,-0.136,-0.843,2529.41,0.000,0.895,0.560,-0.537,0.017,0.843,0.649,-0.079,-0.756,2504.06,-0.224,0.560,0.448,-0.942,-0.227,0.248,-0.013,-0.699,-0.715,2513.40,1.567,1.343,-1.455,-0.126,0.219,-0.967,0.243,-0.121,-0.963,2485.01,0.000,0.000,-0.224,-0.817,0.531,0.227,0.272,0.192,0.943,10.961,6.779,1.252,-2.550,0.598,0.345,0.723,10.059,-5.282,-4.809,-2.351,none
6.029826,0.519,-0.129,-0.845,2534.50,-0.671,0.560,0.336,-0.526,0.035,0.850,0.654,-0.071,-0.753,2516.42,-0.224,0.783,0.448,-0.935,-0.244,0.258,-0.013,-0.699,-0.715,2513.40,1.231,0.895,-1.007,-0.091,0.225,-0.970,0.245,-0.117,-0.962,2496.97,-1.231,0.336,-0.560,-0.835,0.505,0.219,0.270,0.192,0.944,10.991,6.397,1.053,-2.443,0.597,0.345,0.724,10.037,-5.496,-4.687,-1.466,none
6.052906,0.521,-0.136,-0.843,2542.21,-0.224,0.895,0.000,-0.544,0.017,0.839,0.652,-0.074,-0.754,2537.35,-1.007,0.671,-0.224,-0.933,-0.248,0.262,-0.013,-0.701,-0.713,2520.41,1.455,0.000,0.000,-0.116,0.214,-0.970,0.242,-0.120,-0.963,2494.64,-1.343,-0.895,-0.560,-0.804,0.551,0.224,0.268,0.192,0.944,10.989,6.137,0.260,-1.924,0.596,0.342,0.727,10.049,-5.176,-5.863,-0.275,none
6.082518,0.518,-0.136,-0.844,2537.85,-2.014,1.007,-1.343,-0.551,0.043,0.833,0.648,-0.096,-0.756,2570.70,-0.783,-0.336,-0.224,-0.925,-0.279,0.258,-0.017,-0.699,-0.715,2513.55,0.448,-0.448,0.671,-0.141,0.225,-0.964,0.242,-0.124,-0.962,2496.82,0.000,-2.686,0.448,-0.812,0.529,0.247,0.272,0.191,0.943,10.978,5.908,-0.260,-1.099,0.594,0.343,0.728,10.011,-4.718,-7.771,0.519,none
6.094475,0.523,-0.136,-0.841,2533.79,-3.133,0.560,-2.798,-0.517,0.057,0.854,0.649,-0.090,-0.755,2534.70,-2.798,-2.238,0.671,-0.930,-0.236,0.280,-0.017,-0.705,-0.709,2534.63,0.560,-0.671,0.112,-0.123,0.219,-0.968,0.237,-0.116,-0.965,2501.78,-1.007,-3.469,1.231,-0.814,0.549,0.191,0.274,0.190,0.943,10.968,5.649,0.702,-1.069,0.601,0.344,0.721,10.063,-4.947,-8.321,0.733,none
6.117476,0.518,-0.125,-0.846,2519.58,-4.476,0.224,-3.805,-0.570,0.039,0.821,0.645,-0.060,-0.762,2475.04,-4.029,-0.560,0.560,-0.936,-0.214,0.279,-0.017,-0.701,-0.713,2507.13,1.343,-0.448,0.000,-0.130,0.227,-0.965,0.234,-0.109,-0.966,2486.55,-2.014,-2.350,0.671,-0.776,0.548,0.312,0.361,0.165,0.918,10.915,7.221,-7.847,4.504,0.602,0.340,0.722,10.050,-5.038,-7.924,0.366,none
6.138004,0.516,-0.125,-0.847,2528.05,-3.357,1.007,-3.021,-0.558,0.057,0.828,0.645,-0.070,-0.761,2552.76,-0.783,0.112,-0.560,-0.943,-0.222,0.248,-0.021,-0.699,-0.715,2500.32,2.238,-0.448,0.000,-0.122,0.225,-0.967,0.237,-0.100,-0.966,2506.14,-0.224,-3.133,0.448,-0.847,0.487,0.213,0.222,0.194,0.956,10.987,9.603,3.618,7.695,0.576,0.344,0.741,9.863,-5.069,-10.275,0.046,none
6.159379,0.511,-0.136,-0.849,2535.18,-0.895,2.126,-2.910,-0.545,0.043,0.837,0.641,-0.064,-0.765,2490.16,-0.224,-0.895,-0.448,-0.942,-0.243,0.229,-0.017,-0.705,-0.709,2507.05,4.364,0.560,-1.343,-0.130,0.222,-0.967,0.232,-0.129,-0.964,2471.96,1.567,-3.581,0.671,-0.832,0.537,0.139,0.258,0.189,0.947,10.995,8.046,0.718,4.595,0.607,0.337,0.720,10.045,-4.061,-9.435,-0.382,none
6.181998,0.515,-0.121,-0.849,2536.15,-3.469,1.343,-1.119,-0.531,0.064,0.845,0.648,-0.075,-0.758,2525.76,-1.567,-0.224,-1.007,-0.946,-0.245,0.214,-0.017,-0.701,-0.713,2492.99,1.567,1.007,-1.790,-0.101,0.212,-0.972,0.233,-0.120,-0.965,2499.53,0.000,-2.686,0.560,-0.843,0.520,0.138,0.272,0.188,0.944,10.994,7.969,0.626,3.649,0.606,0.338,0.720,10.063,-3.053,-10.412,0.336,none
6.204781,0.515,-0.117,-0.849,2534.12,-5.931,1.231,-3.021,-0.579,0.043,0.814,0.645,-0.066,-0.761,2551.32,-2.798,-0.783,-0.783,-0.946,-0.226,0.233,-0.017,-0.703,-0.711,2500.01,2.238,1.567,-3.133,-0.092,0.208,-0.974,0.231,-0.113,-0.966,2486.53,-2.462,-3.357,-0.336,-0.827,0.513,0.232,0.278,0.189,0.942,10.945,7.908,0.641,4.855,0.618,0.337,0.710,10.049,-2.885,-10.870,1.634,none
6.226195,0.519,-0.115,-0.847,2494.71,-5.707,0.895,-3.917,-0.548,0.059,0.834,0.647,-0.069,-0.760,2453.90,-1.119,-2.238,-1.343,-0.910,-0.253,0.330,-0.013,-0.705,-0.709,2506.91,2.574,2.014,-3.245,-0.100,0.219,-0.971,0.232,-0.106,-0.967,2473.71,-2.910,-2.238,-1.343,-0.827,0.540,0.156,0.260,0.199,0.945,10.991,7.511,2.504,6.122,0.599,0.346,0.722,10.086,-3.985,-6.855,0.031,none
6.249346,0.523,-0.126,-0.843,2516.34,-1.343,0.336,-1.231,-0.540,0.052,0.840,0.651,-0.065,-0.756,2438.07,0.112,1.231,-1.119,-0.930,-0.250,0.270,-0.009,-0.707,-0.707,2528.00,2.126,1.455,-2.574,-0.092,0.215,-0.972,0.235,-0.109,-0.966,2476.89,-1.343,-0.671,-1.119,-0.793,0.558,0.246,0.265,0.196,0.944,11.016,6.611,1.832,3.221,0.603,0.348,0.717,10.061,-4.992,-5.496,-0.122,none
6.273125,0.527,-0.117,-0.842,2533.15,0.000,0.560,-0.448,-0.523,0.014,0.852,0.652,-0.078,-0.754,2552.10,1.455,2.686,-1.679,-0.919,-0.265,0.290,-0.005,-0.707,-0.707,2527.94,1.455,0.671,-0.783,-0.114,0.202,-0.973,0.235,-0.121,-0.964,2481.20,0.560,-0.783,-0.336,-0.801,0.560,0.211,0.276,0.194,0.942,10.990,5.618,2.977,3.359,0.602,0.345,0.720,10.058,-5.359,-5.939,1.069,none
6.295813,0.521,-0.121,-0.845,2524.39,0.112,-0.336,-1.231,-0.530,0.054,0.846,0.655,-0.077,-0.752,2467.43,0.336,2.126,-1.007,-0.939,-0.235,0.249,-0.005,-0.707,-0.707,2514.51,-0.560,-1.231,1.455,-0.116,0.201,-0.973,0.234,-0.113,-0.966,2488.63,0.671,-0.336,0.224,-0.832,0.494,0.254,0.265,0.189,0.945,10.956,6.031,4.366,4.046,0.608,0.337,0.719,10.045,-5.466,-5.298,1.023,none
6.319617,0.516,-0.121,-0.848,2527.67,1.902,-0.224,-0.783,-0.566,0.037,0.824,0.646,-0.071,-0.760,2518.56,0.671,2.798,-1.231,-0.918,-0.252,0.307,-0.013,-0.713,-0.701,2507.71,-0.560,-1.119,1.343,-0.094,0.192,-0.977,0.224,-0.121,-0.967,2474.54,0.112,0.000,0.112,-0.778,0.580,0.240,0.256,0.191,0.948,10.930,5.954,2.244,2.947,0.608,0.340,0.717,10.040,-5.649,-4.611,0.748,none
6.342807,0.519,-0.121,-0.846,2532.85,2.126,-0.336,0.000,-0.567,0.034,0.823,0.648,-0.075,-0.758,2525.76,0.000,2.798,-0.671,-0.930,-0.228,0.288,-0.013,-0.707,-0.707,2514.68,-1.343,-0.895,1.231,-0.127,0.232,-0.964,0.231,-0.117,-0.966,2487.68,1.007,0.671,0.336,-0.821,0.547,0.161,0.263,0.192,0.945,10.923,5.893,1.664,1.634,0.607,0.342,0.717,10.044,-5.802,-4.137,0.321,none
6.365454,0.519,-0.121,-0.846,2532.85,1.902,-0.671,0.448,-0.561,0.061,0.826,0.649,-0.075,-0.757,2504.12,0.671,2.126,-0.671,-0.939,-0.212,0.272,-0.013,-0.703,-0.711,2499.86,-1.455,-1.007,1.007,-0.123,0.220,-0.968,0.227,-0.113,-0.967,2484.24,1.119,1.007,0.000,-0.819,0.540,0.193,0.264,0.190,0.946,10.963,5.511,0.366,0.229,0.608,0.341,0.716,10.042,-5.649,-3.771,-0.168,none
6.386331,0.516,-0.121,-0.848,2527.67,2.238,-0.783,0.783,-0.519,0.021,0.855,0.648,-0.067,-0.759,2524.34,0.448,3.021,-0.895,-0.934,-0.246,0.259,-0.013,-0.705,-0.709,2506.91,-1.119,-0.336,0.448,-0.109,0.198,-0.974,0.232,-0.113,-0.966,2476.87,-0.448,1.679,-0.560,-0.832,0.531,0.158,0.267,0.190,0.945,10.988,5.389,-0.855,-0.534,0.608,0.338,0.718,10.045,-5.588,-3.466,-0.794,none
6.409193,0.516,-0.125,-0.847,2528.05,2.238,-0.336,0.895,-0.540,0.013,0.842,0.650,-0.071,-0.757,2516.69,0.448,2.126,-0.671,-0.940,-0.239,0.244,-0.013,-0.703,-0.711,2499.86,-0.448,-0.112,0.112,-0.115,0.225,-0.967,0.231,-0.109,-0.967,2484.46,-0.671,1.902,-0.560,-0.849,0.524,0.073,0.269,0.188,0.945,10.959,5.710,-1.359,-0.840,0.610,0.341,0.716,10.032,-5.557,-2.809,-1.450,none
6.431515,0.518,-0.121,-0.847,2519.20,2.462,-0.112,1.567,-0.542,0.033,0.840,0.650,-0.064,-0.757,2502.04,0.336,2.462,-0.336,-0.936,-0.214,0.279,-0.017,-0.703,-0.711,2500.01,-0.112,0.224,-0.448,-0.106,0.209,-0.972,0.232,-0.110,-0.967,2474.79,0.000,1.902,-0.671,-0.837,0.514,0.187,0.271,0.187,0.944,10.950,6.031,-1.130,-1.023,0.609,0.338,0.717,10.060,-5.832,-1.588,-2.275,none
6.453830,0.516,-0.129,-0.847,2529.32,3.581,-0.448,2.126,-0.575,0.063,0.816,0.647,-0.074,-0.759,2559.30,2.910,1.455,1.007,-0.939,-0.270,0.212,-0.017,-0.703,-0.711,2514.15,0.895,0.783,-0.783,-0.108,0.207,-0.972,0.234,-0.113,-0.966,2488.63,0.783,3.021,-1.007,-0.834,0.522,0.179,0.271,0.189,0.944,10.972,6.260,-1.038,-1.160,0.606,0.342,0.719,10.047,-6.000,-1.176,-2.626,none
6.475709,0.516,-0.125,-0.847,2528.05,2.910,-0.671,2.350,-0.524,0.067,0.849,0.652,-0.071,-0.755,2509.89,2.910,-0.448,2.350,-0.929,-0.245,0.277,-0.013,-0.705,-0.709,2520.34,1.455,0.895,-1.231,-0.090,0.253,-0.963,0.235,-0.117,-0.965,2480.12,1.231,4.029,-1.119,-0.826,0.529,0.192,0.271,0.192,0.943,10.981,5.847,-1.069,-0.733,0.602,0.344,0.720,10.055,-6.260,-0.718,-2.031,none
6.496599,0.522,-0.128,-0.844,2540.54,3.805,-1.231,2.462,-0.550,0.050,0.834,0.656,-0.078,-0.751,2522.99,3.693,-1.455,2.910,-0.929,-0.215,0.300,-0.009,-0.707,-0.707,2514.57,0.224,0.336,0.000,-0.113,0.239,-0.964,0.242,-0.113,-0.964,2492.42,1.790,5.148,-1.231,-0.798,0.560,0.223,0.275,0.192,0.942,10.987,4.794,-0.779,-0.565,0.601,0.346,0.721,10.091,-6.794,0.061,-1.023,none
6.523324,0.526,-0.129,-0.841,2536.83,4.924,-1.790,2.574,-0.518,0.080,0.852,0.656,-0.078,-0.751,2522.99,3.917,-1.679,3.245,-0.926,-0.235,0.295,-0.009,-0.711,-0.703,2514.62,0.224,-0.448,1.455,-0.084,0.229,-0.970,0.242,-0.120,-0.963,2494.64,2.798,4.700,-1.007,-0.824,0.542,0.166,0.273,0.187,0.944,10.983,4.061,1.282,-0.809,0.598,0.343,0.725,10.057,-7.206,0.107,0.687,none
6.543948,0.520,-0.133,-0.844,2527.23,4.141,-1.790,2.350,-0.537,0.049,0.842,0.654,-0.078,-0.753,2531.26,4.029,-1.455,2.574,-0.948,-0.249,0.196,-0.013,-0.707,-0.707,2514.68,-1.007,-1.679,2.686,-0.105,0.233,-0.967,0.245,-0.120,-0.962,2506.69,3.469,3.357,-0.560,-0.824,0.513,0.240,0.271,0.188,0.944,10.962,4.534,0.824,-0.718,0.600,0.338,0.725,10.023,-6.794,-1.695,0.947,none
6.568199,0.517,-0.137,-0.845,2524.23,2.910,-1.455,1.567,-0.530,0.054,0.846,0.650,-0.082,-0.756,2533.73,2.462,-0.895,1.343,-0.932,-0.234,0.277,-0.017,-0.707,-0.707,2514.82,-0.671,-1.567,1.902,-0.139,0.200,-0.970,0.237,-0.120,-0.964,2502.84,2.574,2.014,-0.112,-0.805,0.511,0.301,0.273,0.185,0.944,10.977,4.992,0.702,-1.038,0.600,0.339,0.725,10.050,-6.412,-2.855,0.351,none
6.591437,0.517,-0.137,-0.845,2524.23,1.567,-1.007,0.895,-0.546,0.075,0.834,0.650,-0.079,-0.756,2518.12,2.126,-0.448,1.119,-0.913,-0.211,0.349,-0.017,-0.705,-0.709,2507.05,-0.448,-1.567,1.455,-0.130,0.224,-0.966,0.243,-0.121,-0.963,2485.01,0.895,2.014,-0.448,-0.827,0.545,0.137,0.272,0.184,0.945,10.967,5.160,0.718,-1.084,0.600,0.337,0.725,10.028,-6.107,-3.466,0.031,none
6.614508,0.513,-0.137,-0.848,2526.70,1.455,-0.895,0.560,-0.532,0.061,0.844,0.649,-0.083,-0.756,2519.68,2.126,-0.448,0.783,-0.956,-0.216,0.197,-0.021,-0.705,-0.709,2507.24,-1.119,-1.007,1.231,-0.130,0.215,-0.968,0.243,-0.121,-0.963,2485.01,0.224,1.679,-0.560,-0.833,0.529,0.161,0.272,0.185,0.944,10.970,5.282,0.580,-1.405,0.600,0.339,0.725,10.049,-5.786,-4.321,-0.763,none
6.633962,0.515,-0.136,-0.846,2532.69,0.560,-0.448,0.336,-0.517,0.053,0.854,0.649,-0.086,-0.756,2520.52,1.119,-0.448,0.336,-0.955,-0.223,0.194,-0.021,-0.703,-0.711,2500.20,-1.119,-0.112,0.112,-0.099,0.219,-0.971,0.242,-0.117,-0.963,2493.57,0.560,1.231,-0.224,-0.846,0.494,0.201,0.273,0.185,0.944,10.997,5.618,0.992,-1.802,0.599,0.337,0.726,10.067,-5.634,-4.137,-1.725,none
6.656289,0.513,-0.137,-0.848,2526.70,0.448,-0.224,0.560,-0.559,0.044,0.828,0.645,-0.083,-0.760,2520.03,0.895,-0.448,1.343,-0.934,-0.241,0.264,-0.021,-0.707,-0.707,2500.87,0.336,0.671,-0.783,-0.093,0.214,-0.972,0.243,-0.117,-0.963,2483.94,0.000,1.343,-0.224,-0.831,0.530,0.171,0.267,0.186,0.945,10.970,6.000,0.809,-1.954,0.600,0.339,0.725,10.024,-5.435,-4.015,-2.656,none
6.677842,0.511,-0.137,-0.848,2513.10,0.448,-0.336,0.783,-0.537,0.062,0.842,0.647,-0.086,-0.757,2528.09,1.455,-0.112,1.119,-0.940,-0.217,0.263,-0.017,-0.705,-0.709,2507.05,0.671,1.455,-1.343,-0.109,0.226,-0.968,0.245,-0.120,-0.962,2498.03,-0.112,1.455,-0.336,-0.793,0.550,0.262,0.269,0.189,0.945,10.960,6.443,0.214,-2.015,0.598,0.341,0.725,10.040,-5.282,-4.046,-3.099,none
6.700117,0.517,-0.137,-0.845,2524.23,1.231,0.112,0.783,-0.522,0.070,0.850,0.649,-0.086,-0.756,2520.52,1.231,0.112,1.231,-0.922,-0.230,0.313,-0.013,-0.707,-0.707,2514.68,0.560,1.343,-1.679,-0.107,0.224,-0.969,0.249,-0.124,-0.961,2500.77,0.112,1.231,-0.224,-0.827,0.523,0.205,0.269,0.189,0.945,10.953,6.366,-1.237,-1.634,0.596,0.343,0.726,10.049,-5.206,-4.397,-2.595,none
6.722263,0.517,-0.141,-0.845,2525.62,0.112,0.000,0.336,-0.512,0.044,0.858,0.654,-0.087,-0.752,2518.74,0.448,0.112,0.560,-0.946,-0.226,0.233,-0.013,-0.709,-0.705,2521.05,0.224,1.119,-1.343,-0.090,0.225,-0.970,0.250,-0.124,-0.960,2491.16,-0.224,0.671,-0.112,-0.831,0.530,0.171,0.274,0.192,0.942,10.970,5.603,-0.809,-1.328,0.596,0.346,0.725,10.054,-5.634,-4.763,-0.779,none
6.746068,0.523,-0.140,-0.841,2535.17,0.671,-0.336,0.112,-0.569,0.048,0.821,0.656,-0.082,-0.751,2524.54,0.671,-0.560,-0.224,-0.946,-0.271,0.177,-0.009,-0.707,-0.707,2514.57,-1.119,-1.007,1.119,-0.107,0.235,-0.966,0.250,-0.120,-0.961,2490.90,-0.336,0.560,-0.336,-0.832,0.494,0.254,0.273,0.189,0.943,10.915,4.901,-0.427,-1.176,0.598,0.343,0.724,10.047,-6.015,-4.458,0.641,none
6.766816,0.514,-0.141,-0.846,2519.62,0.783,-0.671,-0.112,-0.579,0.037,0.814,0.649,-0.086,-0.756,2520.52,0.671,-0.336,-0.448,-0.933,-0.248,0.262,-0.013,-0.707,-0.707,2514.68,-1.119,-1.679,2.014,-0.115,0.225,-0.967,0.250,-0.117,-0.961,2489.83,0.224,0.336,-0.224,-0.835,0.530,0.149,0.273,0.187,0.944,10.961,4.809,-0.366,-1.038,0.601,0.340,0.723,10.052,-6.092,-4.214,0.947,none
6.787688,0.517,-0.137,-0.845,2524.23,0.783,-0.671,-0.224,-0.529,0.062,0.847,0.651,-0.083,-0.754,2511.37,0.560,0.000,-0.336,-0.938,-0.226,0.263,-0.017,-0.705,-0.709,2507.05,-1.007,-1.455,1.790,-0.121,0.239,-0.963,0.242,-0.117,-0.963,2493.57,1.007,0.112,-0.112,-0.821,0.551,0.147,0.272,0.186,0.944,10.983,5.053,0.290,-1.145,0.598,0.338,0.726,10.025,-5.969,-4.000,0.718,none
6.810049,0.512,-0.140,-0.847,2528.08,1.231,-0.112,-0.336,-0.534,0.052,0.844,0.649,-0.090,-0.755,2520.65,0.560,0.000,-0.336,-0.930,-0.222,0.295,-0.017,-0.705,-0.709,2507.05,-0.448,-1.231,1.567,-0.121,0.234,-0.965,0.242,-0.125,-0.962,2487.20,0.671,-0.224,0.224,-0.822,0.532,0.203,0.272,0.184,0.945,10.949,5.206,-0.107,-1.053,0.598,0.336,0.728,10.013,-5.450,-5.405,0.198,none
6.832190,0.508,-0.136,-0.851,2530.09,-0.112,0.000,-0.671,-0.532,0.088,0.842,0.647,-0.087,-0.758,2513.29,-0.224,-0.224,-0.783,-0.947,-0.223,0.233,-0.021,-0.703,-0.711,2500.20,-1.343,-0.560,0.560,-0.123,0.239,-0.963,0.242,-0.120,-0.963,2494.64,-0.112,-0.336,0.224,-0.853,0.502,0.145,0.274,0.186,0.944,10.972,5.802,-0.336,-1.237,0.599,0.338,0.726,10.079,-5.053,-5.725,-0.977,none
6.854376,0.513,-0.137,-0.848,2526.70,-0.895,0.224,-0.560,-0.540,0.026,0.841,0.649,-0.086,-0.756,2520.52,-0.671,-0.112,-0.671,-0.924,-0.243,0.294,-0.017,-0.701,-0.713,2507.13,-1.343,0.224,-0.560,-0.100,0.197,-0.975,0.245,-0.117,-0.962,2496.97,-1.231,-0.224,-0.112,-0.809,0.532,0.251,0.273,0.185,0.944,11.003,6.321,0.336,-1.847,0.599,0.337,0.727,10.034,-4.916,-5.008,-1.969,none
6.875069,0.514,-0.141,-0.846,2519.62,-0.224,1.007,0.000,-0.519,0.067,0.852,0.647,-0.087,-0.758,2513.29,-0.783,0.560,-0.112,-0.919,-0.226,0.322,-0.017,-0.705,-0.709,2507.05,0.224,1.119,-1.343,-0.099,0.225,-0.969,0.245,-0.117,-0.962,2496.97,-0.895,-0.224,-0.112,-0.828,0.512,0.226,0.273,0.185,0.944,10.951,6.687,0.687,-2.336,0.600,0.339,0.725,10.012,-4.748,-5.542,-2.595,none
6.896508,0.517,-0.137,-0.845,2524.23,-0.671,1.231,0.000,-0.510,0.073,0.857,0.651,-0.087,-0.754,2512.22,-1.902,0.671,-0.336,-0.929,-0.260,0.262,-0.013,-0.703,-0.711,2514.00,0.560,1.679,-1.902,-0.115,0.227,-0.967,0.246,-0.121,-0.962,2488.42,-0.895,-0.783,0.112,-0.855,0.483,0.188,0.273,0.188,0.943,10.962,6.824,0.595,-2.397,0.597,0.344,0.725,10.041,-4.595,-5.374,-2.519,none
6.918340,0.520,-0.140,-0.843,2530.80,-0.783,1.343,-0.336,-0.509,0.069,0.858,0.656,-0.083,-0.750,2510.39,-0.895,0.783,-0.336,-0.931,-0.238,0.276,-0.013,-0.709,-0.705,2521.05,0.671,0.895,-1.679,-0.091,0.233,-0.968,0.250,-0.124,-0.960,2491.16,-1.007,-0.895,-0.448,-0.808,0.559,0.185,0.271,0.191,0.943,10.970,6.321,-0.153,-1.817,0.597,0.343,0.725,10.050,-4.824,-5.679,-1.450,none
6.940504,0.520,-0.136,-0.843,2529.41,-0.671,0.671,-0.560,-0.532,0.083,0.843,0.654,-0.079,-0.753,2517.85,-0.560,0.783,-0.783,-0.941,-0.266,0.209,-0.013,-0.705,-0.709,2520.34,-0.336,0.336,-0.336,-0.120,0.225,-0.967,0.251,-0.121,-0.960,2480.33,-1.679,-0.783,-0.112,-0.849,0.518,0.106,0.274,0.191,0.943,10.968,5.664,-0.626,-1.298,0.601,0.344,0.722,10.034,-5.359,-5.206,-0.275,none
6.962948,0.517,-0.133,-0.845,2522.04,-0.336,-0.112,-0.336,-0.536,0.071,0.842,0.651,-0.086,-0.754,2527.03,0.560,0.112,-0.783,-0.935,-0.244,0.258,-0.013,-0.701,-0.713,2506.98,-1.231,-0.671,0.783,-0.128,0.217,-0.968,0.246,-0.121,-0.962,2488.42,-0.224,-0.671,0.224,-0.838,0.520,0.163,0.274,0.191,0.943,10.959,5.160,-0.519,-1.191,0.599,0.342,0.724,10.034,-5.756,-5.221,0.550,none
6.983837,0.516,-0.132,-0.846,2530.50,-0.224,-0.560,-0.783,-0.523,0.076,0.849,0.651,-0.079,-0.755,2511.32,-1.343,-0.560,-1.007,-0.938,-0.221,0.268,-0.017,-0.705,-0.709,2507.05,-1.007,-0.895,1.231,-0.124,0.192,-0.973,0.246,-0.113,-0.963,2495.82,0.671,-0.783,0.560,-0.826,0.539,0.162,0.275,0.187,0.943,10.974,4.992,-0.321,-1.176,0.600,0.339,0.724,10.032,-6.061,-4.565,0.718,none
7.009454,0.513,-0.137,-0.848,2526.70,0.560,-0.336,-0.448,-0.539,0.060,0.840,0.649,-0.083,-0.756,2519.68,-0.112,-0.336,-0.448,-0.930,-0.189,0.315,-0.017,-0.701,-0.713,2507.13,-0.448,-1.231,1.567,-0.102,0.193,-0.976,0.242,-0.117,-0.963,2493.57,0.336,-0.560,0.224,-0.830,0.539,0.147,0.269,0.187,0.945,10.938,5.267,-0.718,-0.840,0.597,0.338,0.727,10.012,-5.481,-5.206,0.336,none
7.031865,0.512,-0.140,-0.847,2528.08,-0.224,-0.112,-1.007,-0.515,0.069,0.855,0.649,-0.086,-0.756,2520.52,-2.574,-1.007,-1.343,-0.937,-0.206,0.282,-0.017,-0.705,-0.709,2520.48,-1.007,-0.671,0.560,-0.107,0.218,-0.970,0.242,-0.124,-0.962,2496.82,-0.224,-1.007,0.560,-0.819,0.540,0.193,0.276,0.187,0.943,10.954,5.527,-0.580,-1.176,0.601,0.339,0.724,10.043,-5.282,-5.771,-0.382,none
7.054898,0.514,-0.141,-0.846,2519.62,-0.448,0.224,-1.007,-0.550,0.037,0.835,0.647,-0.079,-0.758,2497.58,-3.133,-0.783,-1.231,-0.953,-0.207,0.222,-0.017,-0.705,-0.709,2520.48,-0.671,-0.336,0.112,-0.099,0.210,-0.973,0.239,-0.113,-0.964,2480.38,-1.790,-0.560,-0.224,-0.827,0.513,0.232,0.273,0.185,0.944,10.949,5.893,0.168,-1.603,0.601,0.338,0.725,10.013,-5.221,-4.809,-1.374,none
7.077430,0.513,-0.137,-0.848,2526.70,-0.112,0.224,-0.112,-0.558,0.057,0.828,0.649,-0.083,-0.756,2519.68,-0.336,0.224,-0.112,-0.940,-0.254,0.228,-0.021,-0.703,-0.711,2500.20,0.448,0.783,-0.895,-0.092,0.228,-0.969,0.239,-0.113,-0.964,2480.38,-0.783,-0.560,0.000,-0.843,0.496,0.207,0.272,0.187,0.944,10.968,6.366,0.168,-2.015,0.600,0.341,0.724,10.019,-4.840,-4.992,-2.366,none
7.099746,0.517,-0.141,-0.845,2525.62,-0.671,0.895,0.224,-0.529,0.062,0.847,0.651,-0.079,-0.755,2511.32,0.112,0.783,0.224,-0.923,-0.247,0.297,-0.017,-0.701,-0.713,2507.13,0.783,1.343,-1.679,-0.099,0.222,-0.970,0.242,-0.117,-0.963,2493.57,0.783,-0.560,0.112,-0.846,0.510,0.158,0.274,0.187,0.943,10.979,6.458,0.031,-2.015,0.599,0.339,0.726,10.066,-4.855,-4.855,-2.595,none
