0.003672,BNO0_UnitAccX,BNO0_UnitAccY,BNO0_UnitAccZ,BNO0_RawAccMag,BNO0_GyrX,BNO0_GyrY,BNO0_GyrZ,BNO0_MagX,BNO0_MagY,BNO0_MagZ,BNO1_UnitAccX,BNO1_UnitAccY,BNO1_UnitAccZ,BNO1_RawAccMag,BNO1_GyrX,BNO1_GyrY,BNO1_GyrZ,BNO1_MagX,BNO1_MagY,BNO1_MagZ,BNO2_UnitAccX,BNO2_UnitAccY,BNO2_UnitAccZ,BNO2_RawAccMag,BNO2_GyrX,BNO2_GyrY,BNO2_GyrZ,BNO2_MagX,BNO2_MagY,BNO2_MagZ,BNO3_UnitAccX,BNO3_UnitAccY,BNO3_UnitAccZ,BNO3_RawAccMag,BNO3_GyrX,BNO3_GyrY,BNO3_GyrZ,BNO3_MagX,BNO3_MagY,BNO3_MagZ,MPU0_UnitAccX,MPU0_UnitAccY,MPU0_UnitAccZ,MPU0_RawAccMag,MPU0_GyrX,MPU0_GyrY,MPU0_GyrZ,MPU1_UnitAccX,MPU1_UnitAccY,MPU1_UnitAccZ,MPU1_RawAccMag,MPU1_GyrX,MPU1_GyrY,MPU1_GyrZ,none
0.045734,0.814,0.559,0.159,2383.58,-2.238,2.462,-0.560,-0.815,-0.301,-0.496,0.931,0.364,-0.014,2397.83,-4.364,4.029,-2.350,-0.896,0.064,-0.440,0.468,-0.542,-0.698,2388.22,-3.357,4.364,-6.267,-0.794,0.561,0.235,0.250,0.710,-0.658,2446.24,-0.224,3.805,4.364,-0.172,0.132,0.976,0.577,0.780,-0.242,9.866,9.084,-3.985,-4.962,0.283,0.793,-0.539,10.507,-1.603,-9.802,-3.954,none
0.045992,0.824,0.551,0.134,2524.29,-2.014,2.574,0.112,-0.802,-0.302,-0.515,0.935,0.355,-0.029,2546.59,-4.141,3.357,-2.238,-0.893,0.073,-0.443,0.443,-0.573,-0.690,2500.09,-3.245,4.700,-6.714,-0.845,0.532,0.051,0.256,0.710,-0.656,2586.04,-2.238,4.141,4.588,-0.173,0.141,0.975,0.567,0.797,-0.207,10.356,6.565,-3.710,-5.618,0.278,0.817,-0.506,10.944,-4.397,-10.656,-4.076,none
0.068945,0.845,0.523,0.111,2620.22,0.560,-0.671,5.148,-0.823,-0.320,-0.469,0.946,0.322,-0.039,2620.76,-3.133,2.014,1.119,-0.896,0.069,-0.439,0.445,-0.575,-0.687,2509.83,-0.671,4.588,-2.238,-0.830,0.544,0.123,0.257,0.709,-0.657,2645.10,0.224,1.455,4.476,-0.172,0.132,0.976,0.577,0.797,-0.176,10.635,-3.420,-0.748,-4.366,0.297,0.830,-0.473,11.218,-14.504,-9.084,-1.160,none
0.499812,0.855,0.513,0.079,2672.31,3.693,-7.610,11.974,-0.812,-0.305,-0.498,0.948,0.315,-0.052,2709.05,0.000,-5.483,10.631,-0.899,0.056,-0.434,0.433,-0.588,-0.684,2537.50,5.148,4.141,4.700,-0.824,0.547,0.147,0.257,0.707,-0.659,2651.02,6.155,-2.574,3.021,-0.166,0.141,0.976,0.577,0.794,-0.192,10.585,-12.046,2.473,-1.939,0.287,0.822,-0.493,11.156,-22.351,-7.573,2.504,none
0.499978,0.832,0.543,0.112,2685.04,-3.581,-17.793,16.450,-0.813,-0.296,-0.502,0.955,0.292,-0.057,2688.65,1.455,-10.295,14.883,-0.893,0.073,-0.443,0.426,-0.597,-0.680,2579.48,8.393,3.357,11.862,-0.820,0.554,0.146,0.259,0.694,-0.671,2629.98,11.079,-8.841,1.343,-0.165,0.142,0.976,0.583,0.781,-0.225,10.205,-15.847,3.267,1.053,0.290,0.801,-0.524,10.829,-24.916,-7.267,6.061,none
0.500102,0.829,0.545,0.125,2553.23,1.455,-21.038,14.324,-0.836,-0.295,-0.464,0.941,0.337,-0.036,2591.26,-4.700,-16.450,14.772,-0.918,0.069,-0.390,0.441,-0.575,-0.689,2576.19,7.162,2.574,17.010,-0.827,0.548,0.128,0.252,0.690,-0.678,2588.82,10.183,-11.302,1.007,-0.165,0.152,0.974,0.584,0.788,-0.195,10.150,-17.634,1.115,5.282,0.300,0.821,-0.486,10.832,-26.947,-9.573,11.069,none
0.500195,0.866,0.499,0.035,2648.47,4.924,-23.053,13.541,-0.828,-0.291,-0.480,0.950,0.298,-0.091,2733.04,-3.469,-20.926,13.541,-0.908,0.071,-0.412,0.445,-0.570,-0.691,2510.99,5.931,1.007,19.695,-0.833,0.548,0.081,0.264,0.701,-0.662,2576.67,11.414,-12.310,0.895,-0.170,0.147,0.974,0.585,0.803,-0.114,10.861,-30.611,3.008,9.328,0.316,0.856,-0.409,11.469,-39.908,-9.771,18.519,none
0.501260,0.884,0.468,0.006,2783.35,14.100,-34.803,22.157,-0.832,-0.296,-0.468,0.958,0.252,-0.134,2881.92,-1.679,-36.034,22.157,-0.905,0.091,-0.416,0.428,-0.597,-0.679,2496.67,8.729,0.895,23.388,-0.808,0.567,0.159,0.256,0.709,-0.657,2657.39,12.086,-12.869,0.336,-0.168,0.154,0.974,0.584,0.802,-0.124,10.938,-50.198,9.084,12.855,0.314,0.847,-0.429,11.515,-56.947,-7.740,25.008,none
0.501374,0.928,0.367,-0.059,2744.87,16.898,-55.393,33.572,-0.845,-0.264,-0.465,0.931,0.364,-0.025,2557.69,-9.624,-50.246,28.536,-0.914,0.083,-0.396,0.429,-0.590,-0.684,2579.99,13.876,0.448,29.543,-0.828,0.545,0.132,0.247,0.705,-0.665,2642.56,13.764,-13.541,-1.567,-0.164,0.152,0.975,0.578,0.799,-0.166,10.522,-60.305,14.550,13.160,0.300,0.836,-0.459,11.101,-66.412,-6.427,29.069,none
0.501468,0.858,0.513,0.028,2651.23,-12.645,-76.879,40.398,-0.862,-0.274,-0.427,0.923,0.381,-0.052,2547.05,0.112,-38.831,29.096,-0.913,0.084,-0.398,0.432,-0.588,-0.684,2519.78,14.772,-3.021,33.796,-0.798,0.577,0.176,0.230,0.707,-0.669,2623.83,13.764,-17.457,-3.917,-0.164,0.156,0.974,0.569,0.798,-0.200,10.163,-60.519,14.534,8.656,0.272,0.804,-0.528,10.618,-68.947,-4.397,24.168,none
0.501568,0.798,0.586,0.141,2542.21,3.805,-68.710,45.658,-0.861,-0.269,-0.432,0.936,0.350,-0.042,2468.09,-0.112,-37.265,29.879,-0.919,0.107,-0.378,0.456,-0.570,-0.683,2408.90,16.226,-3.357,34.579,-0.805,0.593,-0.019,0.219,0.709,-0.671,2575.61,17.233,-21.822,-5.371,-0.157,0.176,0.972,0.605,0.763,-0.226,9.697,-50.382,13.618,5.038,0.290,0.779,-0.556,10.186,-59.359,-3.786,18.687,none
0.502019,0.806,0.582,0.107,2356.40,-0.224,-54.834,40.398,-0.884,-0.257,-0.391,0.933,0.354,-0.058,2434.53,0.671,-28.424,29.767,-0.921,0.094,-0.377,0.442,-0.567,-0.695,2438.12,18.688,-0.895,29.543,-0.783,0.605,0.144,0.223,0.703,-0.676,2483.95,22.829,-21.150,-3.693,-0.153,0.174,0.973,0.622,0.761,-0.187,9.570,-40.840,14.443,3.115,0.320,0.776,-0.543,10.039,-47.924,-0.397,13.649,none
0.502134,0.793,0.603,0.091,2323.34,12.422,-37.824,31.222,-0.894,-0.223,-0.388,0.922,0.373,-0.102,2442.49,2.350,-19.807,22.829,-0.932,0.110,-0.345,0.439,-0.561,-0.701,2430.67,17.569,-3.357,27.865,-0.783,0.616,0.090,0.219,0.700,-0.680,2439.55,24.060,-19.360,-6.602,-0.151,0.173,0.973,0.614,0.766,-0.190,9.273,-30.489,16.763,0.107,0.328,0.799,-0.504,9.918,-38.458,3.344,6.916,none
0.502238,0.857,0.513,0.055,2252.62,8.952,-27.081,23.612,-0.890,-0.257,-0.376,0.940,0.333,-0.071,2270.61,6.602,-17.905,20.926,-0.933,0.111,-0.342,0.451,-0.577,-0.681,2260.51,19.695,-5.707,21.710,-0.775,0.626,0.088,0.188,0.690,-0.699,2417.71,23.500,-16.003,-8.057,-0.145,0.177,0.973,0.582,0.804,-0.122,9.528,-21.267,15.847,-5.802,0.303,0.831,-0.467,9.951,-34.489,3.298,-0.214,none
0.502325,0.872,0.482,0.086,2235.91,11.974,-13.541,25.850,-0.888,-0.254,-0.385,0.947,0.316,-0.062,2296.41,9.176,-11.974,22.941,-0.919,0.121,-0.376,0.431,-0.608,-0.667,2275.39,21.598,-3.245,14.772,-0.794,0.605,0.050,0.188,0.693,-0.696,2479.98,23.500,-12.310,-6.155,-0.147,0.182,0.972,0.589,0.806,-0.063,10.037,-23.008,17.206,-12.397,0.318,0.856,-0.408,10.340,-35.374,3.481,-7.191,none
0.502409,0.903,0.429,-0.026,2440.86,4.029,-13.988,30.550,-0.906,-0.236,-0.351,0.951,0.300,-0.074,2326.46,6.826,-4.924,25.179,-0.922,0.144,-0.359,0.420,-0.621,-0.662,2355.42,26.522,0.112,12.198,-0.752,0.650,0.111,0.193,0.675,-0.713,2517.31,25.179,-9.624,-4.700,-0.138,0.193,0.971,0.587,0.807,-0.062,10.019,-26.183,19.542,-15.466,0.321,0.854,-0.409,10.374,-38.992,4.489,-10.611,none
0.502492,0.890,0.455,-0.017,2476.24,17.010,-10.072,34.915,-0.909,-0.216,-0.356,0.958,0.253,-0.134,2524.45,13.541,-3.133,29.543,-0.927,0.149,-0.343,0.398,-0.641,-0.656,2463.40,29.319,2.126,9.400,-0.775,0.631,0.021,0.186,0.662,-0.726,2552.58,27.417,-10.072,-5.148,-0.136,0.201,0.970,0.608,0.792,-0.058,10.150,-25.802,18.153,-16.168,0.341,0.862,-0.376,10.658,-39.557,4.427,-9.649,none
0.502574,0.892,0.451,-0.025,2560.21,12.869,-13.317,34.803,-0.922,-0.214,-0.321,0.954,0.267,-0.139,2577.05,11.862,-5.931,29.879,-0.923,0.145,-0.357,0.388,-0.656,-0.647,2528.33,29.655,1.679,8.169,-0.773,0.634,0.009,0.194,0.646,-0.738,2552.93,29.655,-9.288,-4.812,-0.128,0.203,0.971,0.594,0.804,-0.022,10.220,-29.832,18.870,-11.634,0.347,0.852,-0.393,10.564,-40.458,4.885,-5.221,none
0.502697,0.914,0.388,-0.115,2595.38,-1.790,-18.576,31.669,-0.922,-0.201,-0.332,0.972,0.231,-0.051,2377.71,-2.350,-3.805,22.381,-0.930,0.171,-0.325,0.384,-0.662,-0.643,2575.44,26.857,0.671,9.624,-0.755,0.653,0.053,0.184,0.624,-0.759,2532.53,25.962,-8.952,-5.036,-0.126,0.209,0.970,0.592,0.804,-0.042,9.892,-29.282,18.550,-6.137,0.319,0.879,-0.354,10.411,-38.885,5.145,-0.183,none
0.503107,0.890,0.456,-0.002,2446.39,22.493,-17.457,30.998,-0.930,-0.195,-0.313,0.965,0.202,-0.167,2669.51,15.107,-7.386,20.926,-0.942,0.146,-0.303,0.394,-0.664,-0.636,2512.52,21.710,-2.238,10.967,-0.750,0.660,0.046,0.193,0.622,-0.758,2507.90,21.150,-8.841,-5.819,-0.125,0.198,0.972,0.599,0.800,-0.027,9.930,-28.855,14.824,-2.290,0.352,0.848,-0.396,10.409,-37.084,5.252,3.939,none
0.503207,0.898,0.435,-0.062,2585.63,6.267,-19.136,22.829,-0.910,-0.155,-0.386,0.974,0.209,-0.084,2402.43,-0.336,-10.743,15.107,-0.935,0.158,-0.318,0.389,-0.669,-0.634,2520.60,18.912,-3.133,10.072,-0.761,0.648,0.024,0.183,0.621,-0.762,2484.36,17.681,-9.848,-6.826,-0.113,0.208,0.972,0.595,0.802,-0.050,9.583,-22.931,14.153,2.977,0.321,0.864,-0.388,10.070,-32.198,3.481,7.924,none
0.503298,0.879,0.472,0.072,2262.12,15.331,-23.276,20.479,-0.936,-0.174,-0.305,0.950,0.264,-0.165,2523.56,11.191,-6.491,11.302,-0.930,0.177,-0.321,0.398,-0.657,-0.640,2510.31,11.862,-6.714,10.743,-0.759,0.651,0.013,0.168,0.627,-0.761,2475.50,11.862,-8.057,-7.162,-0.106,0.218,0.970,0.582,0.812,-0.057,9.338,-13.130,12.855,-0.611,0.311,0.833,-0.457,9.621,-21.908,5.832,1.176,none
0.503382,0.875,0.481,0.060,2218.12,10.631,-10.295,12.869,-0.944,-0.172,-0.281,0.954,0.291,-0.076,2258.74,8.057,-3.917,8.169,-0.939,0.163,-0.304,0.418,-0.668,-0.616,2322.56,11.191,-5.148,3.805,-0.727,0.686,0.026,0.162,0.622,-0.766,2446.62,7.498,-5.707,-8.505,-0.104,0.206,0.973,0.578,0.812,-0.085,8.916,1.130,9.954,-3.176,0.294,0.845,-0.447,9.323,-8.183,3.145,-4.565,none
0.504531,0.893,0.450,0.016,2173.31,5.371,2.014,2.686,-0.929,-0.196,-0.315,0.961,0.271,-0.061,2171.58,6.491,4.700,0.000,-0.939,0.163,-0.301,0.409,-0.654,-0.637,2370.76,6.043,-3.693,-1.343,-0.691,0.721,0.054,0.155,0.618,-0.771,2367.63,4.141,-2.574,-6.379,-0.107,0.215,0.971,0.582,0.810,-0.072,8.833,16.015,3.786,-6.473,0.301,0.839,-0.454,9.211,4.794,0.504,-9.389,none
0.524043,0.889,0.458,0.021,2137.86,-1.231,11.414,-5.260,-0.939,-0.189,-0.286,0.966,0.246,-0.082,2199.03,-1.455,11.191,-8.393,-0.928,0.159,-0.337,0.425,-0.653,-0.627,2282.27,-0.671,-3.021,-7.833,-0.733,0.679,0.030,0.158,0.618,-0.770,2319.66,-2.014,4.141,-2.126,-0.108,0.205,0.973,0.565,0.816,-0.122,8.444,33.924,-1.481,-8.351,0.274,0.821,-0.502,8.869,24.885,-2.519,-15.023,none
0.546057,0.860,0.494,0.129,2018.50,-16.226,27.865,-20.703,-0.935,-0.179,-0.306,0.950,0.312,-0.002,2009.65,-4.700,20.926,-18.017,-0.924,0.190,-0.333,0.428,-0.646,-0.632,2264.09,-9.736,-1.119,-16.674,-0.737,0.676,-0.003,0.151,0.618,-0.771,2302.84,-11.862,9.624,0.895,-0.108,0.214,0.971,0.504,0.853,-0.136,8.560,55.893,-7.969,-20.076,0.179,0.825,-0.536,8.807,46.794,-6.061,-31.206,none
0.568681,0.858,0.438,0.269,1919.93,-27.641,53.043,-27.193,-0.932,-0.187,-0.311,0.953,0.283,0.107,1869.98,-12.533,52.484,-30.438,-0.935,0.153,-0.320,0.435,-0.666,-0.606,2165.37,-14.436,0.671,-24.060,-0.756,0.654,0.005,0.153,0.651,-0.743,2336.90,-19.807,15.107,7.050,-0.112,0.203,0.973,0.495,0.862,-0.111,9.005,77.160,-14.031,-39.695,0.209,0.862,-0.463,9.368,62.855,-0.107,-51.939,none
0.591105,0.887,0.420,0.191,2141.60,-41.629,81.467,-30.886,-0.917,-0.184,-0.354,0.948,0.301,0.103,2055.49,-20.814,77.663,-36.705,-0.920,0.151,-0.362,0.469,-0.643,-0.606,2150.77,-14.324,11.079,-34.243,-0.721,0.689,0.080,0.185,0.655,-0.733,2355.19,-6.491,19.919,18.912,-0.117,0.185,0.976,0.521,0.853,-0.023,9.523,75.573,-12.916,-44.565,0.272,0.899,-0.342,10.194,60.580,-0.412,-55.557,none
1.012022,0.920,0.392,0.011,2471.99,-49.462,91.203,-31.557,-0.902,-0.173,-0.395,0.971,0.232,-0.063,2542.41,-18.912,89.189,-38.943,-0.910,0.158,-0.384,0.455,-0.647,-0.612,2305.30,-15.779,18.464,-42.412,-0.781,0.623,0.042,0.231,0.610,-0.758,2432.41,5.148,22.269,22.381,-0.124,0.187,0.975,0.534,0.843,-0.063,10.064,60.763,-13.908,-38.916,0.275,0.885,-0.376,10.878,46.931,-10.504,-46.107,none
1.012264,0.927,0.375,0.006,2685.41,-31.110,73.522,-20.926,-0.884,-0.199,-0.423,0.976,0.205,-0.070,2868.33,-12.981,78.110,-31.334,-0.869,0.158,-0.469,0.424,-0.678,-0.601,2476.53,-15.555,19.919,-44.986,-0.756,0.655,0.023,0.241,0.605,-0.759,2662.46,-1.679,24.395,21.038,-0.129,0.185,0.974,0.550,0.835,-0.017,11.160,52.565,-19.344,-30.260,0.299,0.892,-0.340,11.716,38.916,-13.588,-34.809,none
1.012372,0.919,0.395,-0.011,2976.90,-22.493,54.610,-13.988,-0.879,-0.188,-0.438,0.971,0.214,-0.103,3077.05,-10.072,61.324,-22.605,-0.867,0.157,-0.472,0.386,-0.685,-0.618,2791.68,-10.183,21.150,-38.272,-0.796,0.605,0.013,0.242,0.622,-0.745,2699.68,-14.995,22.045,16.003,-0.132,0.184,0.974,0.553,0.833,-0.021,11.387,34.122,-16.000,-19.435,0.298,0.892,-0.339,11.875,20.137,-15.511,-20.000,none
1.012479,0.913,0.409,0.005,2943.55,-11.302,32.117,-10.072,-0.866,-0.160,-0.475,0.968,0.242,-0.064,3004.30,-8.729,37.600,-16.226,-0.866,0.140,-0.481,0.392,-0.652,-0.648,2872.12,-10.072,17.122,-23.836,-0.773,0.630,0.077,0.235,0.638,-0.733,2769.17,-15.331,19.360,13.093,-0.142,0.176,0.974,0.536,0.843,-0.047,11.315,14.366,-8.382,-11.084,0.290,0.876,-0.385,11.832,2.061,-14.641,-8.595,none
1.012616,0.898,0.436,0.058,2804.47,-6.491,17.010,-8.617,-0.872,-0.158,-0.464,0.964,0.266,-0.029,2877.78,-7.386,21.150,-10.519,-0.865,0.146,-0.480,0.424,-0.650,-0.631,2703.64,-9.848,7.386,-13.653,-0.776,0.630,-0.032,0.235,0.636,-0.735,2733.66,-7.833,12.981,9.288,-0.143,0.182,0.973,0.535,0.839,-0.101,10.872,11.221,-5.374,-6.580,0.261,0.866,-0.426,11.383,-0.046,-11.817,-4.641,none
1.012702,0.902,0.427,0.070,2751.88,0.560,10.295,-4.141,-0.847,-0.158,-0.507,0.965,0.262,-0.012,2771.98,-3.245,12.533,-7.498,-0.858,0.147,-0.492,0.439,-0.645,-0.626,2615.60,-7.833,3.245,-7.722,-0.815,0.579,0.002,0.247,0.638,-0.729,2677.39,-5.260,8.169,5.819,-0.145,0.177,0.973,0.522,0.848,-0.094,10.691,7.756,-3.771,-3.695,0.250,0.874,-0.418,11.181,-2.992,-9.542,-2.229,none
1.012787,0.899,0.425,0.106,2649.67,-1.231,2.686,-1.343,-0.860,-0.196,-0.471,0.962,0.272,0.009,2667.81,-3.021,2.350,-1.119,-0.869,0.145,-0.473,0.445,-0.638,-0.629,2555.16,-4.252,1.902,-2.910,-0.811,0.585,0.014,0.252,0.641,-0.725,2587.09,-5.036,2.238,3.357,-0.150,0.171,0.974,0.523,0.845,-0.111,10.125,2.580,-1.863,-1.420,0.247,0.861,-0.445,10.577,-8.092,-7.328,0.412,none
1.012869,0.878,0.460,0.136,2490.01,0.336,-2.462,1.455,-0.839,-0.175,-0.516,0.952,0.304,0.038,2490.38,-1.902,-2.686,1.007,-0.873,0.132,-0.470,0.467,-0.616,-0.635,2454.81,-3.133,-0.112,3.469,-0.817,0.576,0.017,0.251,0.639,-0.728,2520.93,0.224,-0.112,1.790,-0.149,0.171,0.974,0.518,0.840,-0.161,9.551,3.420,-3.145,0.290,0.233,0.834,-0.501,10.068,-6.092,-8.672,2.092,none
1.014527,0.863,0.473,0.177,2361.72,1.679,-3.917,-0.560,-0.852,-0.183,-0.491,0.945,0.318,0.077,2373.96,-3.245,-2.686,-1.231,-0.856,0.141,-0.498,0.489,-0.594,-0.639,2345.86,-4.476,-0.112,1.231,-0.800,0.598,0.041,0.242,0.641,-0.729,2452.15,-3.469,1.679,2.574,-0.147,0.171,0.974,0.515,0.842,-0.160,9.434,8.321,-3.756,-1.634,0.225,0.834,-0.504,9.908,-1.435,-8.534,-0.962,none
1.014650,0.862,0.471,0.190,2308.58,-3.021,1.343,-2.574,-0.860,-0.184,-0.476,0.938,0.336,0.087,2308.30,-5.371,2.014,-4.029,-0.865,0.139,-0.482,0.492,-0.593,-0.638,2332.90,-5.483,2.014,-3.021,-0.826,0.563,0.018,0.241,0.649,-0.721,2420.01,-7.274,4.476,3.805,-0.155,0.167,0.974,0.506,0.845,-0.172,9.312,11.863,-6.656,-3.160,0.218,0.832,-0.511,9.806,2.397,-10.809,-2.656,none
1.014743,0.862,0.473,0.180,2316.88,-2.910,7.274,-5.819,-0.853,-0.204,-0.480,0.945,0.320,0.074,2331.29,-2.574,7.050,-6.379,-0.849,0.136,-0.511,0.486,-0.586,-0.648,2358.62,-8.952,3.805,-7.386,-0.811,0.584,-0.019,0.246,0.652,-0.717,2408.06,-7.050,6.826,5.819,-0.150,0.171,0.974,0.515,0.839,-0.178,9.330,16.580,-9.389,-4.397,0.224,0.827,-0.515,9.850,7.588,-13.176,-4.198,none
1.014829,0.856,0.481,0.189,2321.52,-7.610,10.631,-8.393,-0.853,-0.186,-0.488,0.941,0.327,0.082,2339.94,-5.483,9.512,-8.393,-0.856,0.129,-0.500,0.487,-0.586,-0.647,2375.82,-12.086,4.476,-10.519,-0.810,0.586,-0.016,0.246,0.650,-0.719,2415.24,-9.064,10.072,7.945,-0.148,0.173,0.974,0.512,0.839,-0.186,9.362,20.550,-11.802,-5.221,0.221,0.822,-0.525,9.891,12.000,-15.252,-5.298,none
1.016719,0.850,0.489,0.195,2340.08,-7.386,14.548,-10.407,-0.856,-0.178,-0.485,0.937,0.340,0.082,2339.61,-5.036,12.981,-11.526,-0.862,0.129,-0.491,0.504,-0.571,-0.648,2372.59,-16.898,4.252,-13.876,-0.846,0.527,-0.077,0.252,0.651,-0.716,2427.19,-14.436,14.436,9.512,-0.153,0.166,0.974,0.500,0.845,-0.190,9.473,25.359,-13.008,-6.718,0.210,0.825,-0.524,10.006,17.115,-17.756,-7.939,none
1.016834,0.853,0.477,0.212,2341.68,-7.833,18.576,-12.086,-0.810,-0.157,-0.565,0.940,0.328,0.098,2364.59,-5.260,19.024,-14.660,-0.863,0.134,-0.487,0.502,-0.578,-0.643,2360.38,-18.576,4.700,-18.576,-0.826,0.563,0.024,0.264,0.660,-0.703,2469.65,-17.122,18.353,11.191,-0.163,0.160,0.974,0.500,0.844,-0.194,9.618,28.672,-16.046,-8.840,0.210,0.826,-0.522,10.142,20.244,-20.046,-9.771,none
1.016933,0.853,0.483,0.200,2390.61,-8.617,21.822,-12.869,-0.829,-0.168,-0.533,0.934,0.346,0.092,2411.62,-5.483,21.486,-15.891,-0.848,0.129,-0.514,0.503,-0.561,-0.658,2415.46,-21.822,7.274,-23.948,-0.816,0.577,0.034,0.271,0.659,-0.702,2474.03,-17.010,21.374,13.653,-0.159,0.154,0.975,0.499,0.845,-0.195,9.718,30.992,-16.733,-10.473,0.201,0.826,-0.526,10.239,22.473,-21.282,-11.664,none
1.017027,0.852,0.474,0.222,2416.15,-7.945,22.941,-13.653,-0.819,-0.172,-0.547,0.937,0.332,0.107,2424.38,-5.819,23.053,-16.786,-0.850,0.129,-0.511,0.509,-0.567,-0.648,2406.57,-21.598,7.162,-26.074,-0.840,0.541,0.045,0.281,0.665,-0.692,2495.24,-15.779,23.276,14.436,-0.172,0.150,0.974,0.477,0.857,-0.196,9.833,32.763,-16.244,-14.595,0.186,0.832,-0.524,10.322,23.679,-20.718,-15.893,none
1.018352,0.852,0.471,0.228,2428.95,-7.722,27.417,-12.422,-0.818,-0.177,-0.548,0.933,0.335,0.129,2403.03,-6.379,25.850,-16.226,-0.827,0.132,-0.546,0.515,-0.564,-0.646,2399.57,-20.703,8.393,-27.865,-0.833,0.550,0.063,0.290,0.663,-0.690,2516.38,-15.667,23.053,16.003,-0.178,0.153,0.972,0.472,0.861,-0.189,9.917,32.351,-17.282,-17.740,0.177,0.842,-0.509,10.409,22.473,-21.878,-18.489,none
1.018476,0.871,0.447,0.206,2453.52,-7.833,30.326,-9.736,-0.825,-0.200,-0.528,0.945,0.307,0.110,2464.41,-6.491,29.655,-14.324,-0.833,0.137,-0.535,0.518,-0.555,-0.651,2423.76,-20.367,10.967,-28.648,-0.836,0.542,0.090,0.304,0.670,-0.677,2533.62,-14.436,24.619,18.688,-0.189,0.142,0.972,0.488,0.851,-0.195,10.069,29.359,-18.382,-20.122,0.193,0.834,-0.517,10.587,18.687,-22.779,-19.771,none
1.018570,0.853,0.476,0.212,2527.76,-9.960,29.096,-5.707,-0.807,-0.206,-0.553,0.938,0.329,0.105,2565.87,-8.169,29.655,-10.631,-0.823,0.126,-0.555,0.512,-0.552,-0.658,2470.89,-18.353,12.310,-29.096,-0.860,0.506,0.065,0.312,0.666,-0.678,2563.75,-11.414,21.262,18.241,-0.187,0.144,0.972,0.512,0.835,-0.203,10.198,28.458,-16.321,-18.718,0.223,0.820,-0.527,10.863,16.565,-20.076,-18.443,none
1.020180,0.845,0.499,0.194,2610.22,-12.981,27.417,-7.498,-0.810,-0.164,-0.563,0.927,0.366,0.087,2653.84,-10.295,28.312,-10.519,-0.830,0.131,-0.542,0.503,-0.549,-0.667,2553.56,-16.226,12.422,-26.857,-0.869,0.495,0.026,0.325,0.659,-0.678,2575.65,-7.610,20.031,16.003,-0.207,0.129,0.970,0.515,0.835,-0.194,10.462,27.924,-12.443,-13.740,0.225,0.829,-0.512,11.116,16.229,-14.702,-14.565,none
1.046452,0.861,0.479,0.169,2696.74,-5.819,23.500,-8.169,-0.792,-0.163,-0.588,0.943,0.324,0.073,2752.65,-3.805,22.941,-12.310,-0.780,0.134,-0.611,0.504,-0.546,-0.670,2589.16,-10.855,7.610,-18.241,-0.872,0.487,0.050,0.338,0.662,-0.669,2655.07,-8.952,15.331,9.064,-0.199,0.132,0.971,0.491,0.850,-0.191,10.622,19.313,-6.366,-6.321,0.200,0.841,-0.503,11.200,8.809,-9.985,-7.145,none
1.070449,0.868,0.461,0.184,2697.41,-3.693,12.310,-6.826,-0.786,-0.167,-0.596,0.946,0.311,0.088,2744.41,-3.357,10.631,-8.617,-0.801,0.133,-0.584,0.508,-0.550,-0.662,2602.52,-8.617,4.476,-12.869,-0.875,0.484,-0.002,0.338,0.666,-0.665,2684.36,-8.952,10.967,5.931,-0.211,0.126,0.969,0.484,0.853,-0.195,10.683,13.191,-4.336,-3.863,0.191,0.842,-0.505,11.228,2.626,-8.168,-4.092,none
1.091088,0.867,0.461,0.193,2679.68,-4.141,6.826,-4.364,-0.772,-0.162,-0.614,0.938,0.330,0.104,2703.17,-2.798,4.924,-4.141,-0.804,0.121,-0.582,0.515,-0.542,-0.664,2568.62,-3.469,1.119,-2.910,-0.872,0.483,0.081,0.340,0.669,-0.661,2670.43,-2.126,2.014,2.126,-0.207,0.130,0.970,0.487,0.851,-0.197,10.500,6.550,-0.641,-1.832,0.195,0.836,-0.513,11.077,-4.550,-5.267,-1.328,none
1.517809,0.857,0.473,0.204,2629.23,-1.790,1.567,-1.007,-0.775,-0.167,-0.609,0.934,0.342,0.102,2642.78,-0.224,0.671,0.000,-0.818,0.127,-0.561,0.528,-0.529,-0.664,2522.98,0.448,-1.343,1.231,-0.888,0.458,-0.039,0.340,0.667,-0.663,2606.42,2.350,-1.902,-0.783,-0.195,0.132,0.972,0.481,0.847,-0.228,10.130,1.206,2.229,0.656,0.184,0.819,-0.544,10.732,-9.756,-3.084,1.573,none
1.522139,0.842,0.485,0.235,2524.90,2.462,-4.700,2.686,-0.801,-0.190,-0.568,0.925,0.353,0.138,2528.80,0.783,-4.029,2.574,-0.813,0.104,-0.573,0.541,-0.513,-0.667,2484.27,2.014,-2.686,4.252,-0.887,0.458,-0.055,0.337,0.668,-0.664,2543.70,1.119,-2.910,-2.350,-0.217,0.124,0.968,0.472,0.842,-0.261,9.766,1.267,2.855,2.107,0.172,0.799,-0.576,10.360,-9.359,-2.504,2.824,none
1.522263,0.822,0.503,0.268,2433.23,2.126,-4.924,0.895,-0.799,-0.151,-0.582,0.916,0.371,0.154,2458.89,1.007,-5.260,2.014,-0.808,0.109,-0.580,0.545,-0.505,-0.669,2445.62,1.343,-3.357,4.700,-0.879,0.476,0.017,0.336,0.668,-0.664,2497.35,0.336,-3.133,-2.798,-0.211,0.133,0.968,0.467,0.840,-0.276,9.572,4.550,1.511,2.565,0.164,0.791,-0.589,10.200,-5.832,-3.145,2.901,none
1.522379,0.820,0.502,0.274,2416.14,1.231,-2.798,-2.462,-0.778,-0.158,-0.608,0.915,0.369,0.165,2419.34,0.895,-3.805,-1.343,-0.805,0.114,-0.583,0.556,-0.499,-0.665,2417.22,-1.231,-3.245,2.798,-0.880,0.475,0.007,0.330,0.673,-0.662,2477.43,-1.007,-2.014,-2.350,-0.203,0.139,0.969,0.464,0.848,-0.254,9.628,7.588,0.565,1.405,0.159,0.807,-0.569,10.220,-3.084,-3.618,1.374,none
1.522479,0.834,0.483,0.267,2409.72,0.448,-0.112,-3.917,-0.788,-0.187,-0.586,0.917,0.366,0.161,2413.13,0.224,0.000,-3.693,-0.805,0.133,-0.579,0.553,-0.508,-0.660,2374.75,-1.902,-2.462,0.671,-0.871,0.484,0.082,0.333,0.675,-0.659,2488.16,-2.462,-0.560,-1.343,-0.197,0.132,0.971,0.465,0.852,-0.241,9.734,7.588,0.458,-0.504,0.164,0.816,-0.554,10.276,-3.511,-4.031,-0.458,none
1.522575,0.842,0.479,0.248,2433.20,-0.560,1.119,-2.238,-0.778,-0.203,-0.595,0.925,0.349,0.150,2446.61,-0.336,0.783,-2.798,-0.815,0.108,-0.570,0.550,-0.510,-0.661,2386.45,-1.119,-0.671,-0.112,-0.880,0.473,-0.034,0.336,0.676,-0.656,2497.58,-2.686,0.783,-0.671,-0.205,0.126,0.971,0.473,0.846,-0.244,9.739,6.626,0.168,-1.756,0.174,0.812,-0.557,10.315,-4.580,-4.626,-1.267,none
1.522680,0.837,0.488,0.247,2447.21,0.000,0.895,-0.448,-0.792,-0.178,-0.584,0.923,0.359,0.142,2462.41,0.224,1.231,-0.560,-0.809,0.121,-0.576,0.541,-0.510,-0.669,2445.27,-0.336,0.560,-1.007,-0.867,0.493,0.071,0.333,0.671,-0.663,2517.38,-0.895,1.007,0.224,-0.205,0.130,0.970,0.478,0.841,-0.252,9.788,7.389,0.031,-1.710,0.176,0.805,-0.567,10.380,-3.603,-4.672,-1.282,none
1.522790,0.832,0.499,0.244,2474.46,-0.336,1.455,-1.343,-0.793,-0.158,-0.589,0.920,0.366,0.140,2492.27,0.560,1.790,-2.014,-0.814,0.090,-0.574,0.536,-0.513,-0.671,2468.89,-1.119,0.671,-1.902,-0.892,0.451,0.034,0.332,0.669,-0.665,2524.01,-0.895,1.567,-0.112,-0.194,0.131,0.972,0.480,0.842,-0.245,9.837,8.351,-0.214,-0.947,0.181,0.809,-0.559,10.460,-2.595,-4.565,-0.718,none
1.522872,0.837,0.493,0.239,2483.77,0.336,1.455,-2.798,-0.792,-0.146,-0.593,0.924,0.359,0.131,2512.11,0.224,1.455,-3.133,-0.795,0.104,-0.597,0.534,-0.515,-0.670,2457.51,-2.462,-0.336,-1.902,-0.884,0.463,0.061,0.336,0.668,-0.664,2526.68,-2.238,1.902,0.000,-0.206,0.131,0.970,0.476,0.846,-0.241,9.929,8.458,-0.458,-0.321,0.174,0.813,-0.555,10.506,-2.397,-4.626,-0.260,none
1.523665,0.843,0.480,0.243,2487.54,0.671,1.231,-2.910,-0.792,-0.166,-0.587,0.925,0.352,0.139,2506.77,0.895,0.783,-2.574,-0.802,0.121,-0.585,0.533,-0.518,-0.669,2446.01,-2.798,-0.671,-1.902,-0.880,0.471,0.059,0.334,0.673,-0.660,2540.76,-3.021,1.567,-0.112,-0.202,0.130,0.971,0.475,0.850,-0.227,10.004,7.145,-0.031,-1.221,0.179,0.822,-0.541,10.535,-3.985,-4.427,-1.130,none
1.523779,0.846,0.480,0.231,2488.27,-0.336,1.231,-1.119,-0.799,-0.172,-0.576,0.928,0.350,0.126,2522.25,-0.112,0.560,-0.783,-0.799,0.111,-0.591,0.538,-0.511,-0.671,2439.87,-0.895,-0.448,-0.783,-0.885,0.464,0.030,0.331,0.675,-0.659,2530.16,0.000,0.336,-0.224,-0.208,0.112,0.972,0.476,0.846,-0.239,9.912,5.176,0.458,-1.023,0.177,0.814,-0.553,10.494,-5.863,-4.366,-0.473,none
1.523869,0.843,0.484,0.235,2486.98,0.895,-0.560,0.112,-0.785,-0.177,-0.594,0.928,0.347,0.140,2490.52,1.007,-0.671,0.560,-0.805,0.109,-0.583,0.532,-0.521,-0.667,2466.68,0.000,-0.448,-0.224,-0.882,0.467,0.057,0.335,0.667,-0.666,2534.00,0.112,-0.112,-0.448,-0.202,0.118,0.972,0.478,0.844,-0.244,9.822,4.992,0.214,-0.412,0.177,0.807,-0.563,10.427,-5.832,-4.489,0.153,none
1.523954,0.831,0.498,0.248,2476.92,0.112,-1.119,-0.224,-0.787,-0.200,-0.583,0.921,0.363,0.144,2489.34,0.112,-1.007,-0.336,-0.810,0.102,-0.577,0.535,-0.508,-0.675,2471.18,-1.231,-0.336,0.783,-0.889,0.457,0.028,0.333,0.671,-0.663,2517.38,-1.455,-0.112,-0.336,-0.217,0.127,0.968,0.480,0.838,-0.258,9.790,6.351,-0.153,0.198,0.178,0.801,-0.571,10.424,-4.336,-4.580,0.519,none
1.525137,0.833,0.495,0.245,2470.32,-0.112,-0.560,-1.790,-0.778,-0.145,-0.611,0.919,0.367,0.141,2483.07,-0.336,-0.560,-1.902,-0.820,0.102,-0.564,0.541,-0.510,-0.669,2445.27,-1.567,-1.455,0.224,-0.868,0.488,0.092,0.336,0.678,-0.654,2520.37,-2.238,0.000,-0.448,-0.209,0.120,0.970,0.475,0.846,-0.243,9.852,6.489,0.260,-0.046,0.174,0.811,-0.558,10.431,-4.382,-4.183,0.214,none
1.525254,0.837,0.487,0.248,2471.31,1.007,0.224,-1.231,-0.783,-0.148,-0.604,0.923,0.357,0.145,2473.85,0.224,-0.448,-1.902,-0.801,0.110,-0.588,0.549,-0.505,-0.666,2411.20,-1.119,-0.895,0.000,-0.879,0.476,0.040,0.336,0.676,-0.656,2526.92,-1.119,0.112,-0.671,-0.205,0.126,0.971,0.472,0.848,-0.241,9.856,5.664,0.382,-1.328,0.170,0.815,-0.555,10.423,-5.603,-4.504,-0.947,none
1.525345,0.839,0.486,0.244,2477.23,0.000,0.112,0.224,-0.795,-0.203,-0.571,0.924,0.356,0.141,2480.88,-0.224,-0.112,0.560,-0.808,0.121,-0.576,0.544,-0.513,-0.664,2449.81,0.336,-0.112,-0.336,-0.877,0.480,0.015,0.336,0.676,-0.656,2526.92,-0.112,0.112,-0.224,-0.211,0.126,0.969,0.476,0.842,-0.252,9.826,5.008,0.153,-1.603,0.174,0.805,-0.567,10.443,-6.046,-4.809,-0.916,none
1.525429,0.833,0.493,0.251,2482.78,0.112,0.000,0.783,-0.790,-0.189,-0.583,0.923,0.358,0.140,2491.84,0.000,-0.448,0.560,-0.802,0.097,-0.589,0.541,-0.506,-0.672,2464.76,-0.224,0.000,-0.112,-0.884,0.465,0.050,0.339,0.671,-0.659,2529.80,0.224,0.000,0.112,-0.196,0.129,0.972,0.484,0.840,-0.247,9.864,5.786,0.214,-0.885,0.182,0.807,-0.561,10.454,-5.313,-4.489,-0.336,none
1.526733,0.832,0.500,0.239,2485.69,-0.448,-0.448,-0.783,-0.781,-0.178,-0.598,0.918,0.372,0.135,2504.70,0.000,-0.448,-0.560,-0.804,0.116,-0.583,0.540,-0.509,-0.671,2469.83,-0.783,-0.671,0.448,-0.892,0.449,0.060,0.336,0.672,-0.660,2526.76,-0.448,-0.112,-0.671,-0.202,0.126,0.971,0.477,0.844,-0.246,9.882,5.802,0.366,-0.489,0.174,0.810,-0.561,10.503,-5.252,-4.214,-0.076,none
1.526844,0.837,0.488,0.248,2470.96,0.560,-0.560,-1.007,-0.785,-0.172,-0.595,0.925,0.352,0.141,2478.26,0.560,-0.224,-0.783,-0.807,0.109,-0.580,0.538,-0.515,-0.667,2438.98,0.000,-0.671,0.224,-0.893,0.447,0.053,0.330,0.677,-0.657,2537.60,-0.895,-0.448,-0.448,-0.203,0.123,0.971,0.473,0.847,-0.240,9.911,5.191,0.595,-1.328,0.173,0.814,-0.555,10.463,-6.061,-4.244,-0.824,none
1.526934,0.840,0.487,0.240,2472.78,0.336,-0.112,0.336,-0.781,-0.165,-0.602,0.923,0.358,0.140,2491.84,0.224,-0.224,0.448,-0.809,0.116,-0.576,0.544,-0.508,-0.668,2434.16,0.112,-0.448,0.560,-0.880,0.471,0.068,0.332,0.677,-0.657,2524.26,0.560,-0.448,-0.448,-0.196,0.127,0.972,0.481,0.842,-0.244,9.850,4.458,0.702,-1.206,0.182,0.809,-0.559,10.456,-6.687,-4.366,-0.473,none
2.034269,0.834,0.496,0.243,2490.28,0.112,-1.119,1.007,-0.766,-0.158,-0.623,0.925,0.357,0.132,2498.36,0.671,-1.119,0.895,-0.819,0.109,-0.564,0.540,-0.508,-0.671,2451.97,0.224,-0.112,0.448,-0.870,0.474,0.138,0.336,0.672,-0.660,2526.76,1.007,-0.336,-0.448,-0.194,0.144,0.970,0.477,0.839,-0.260,9.829,4.947,0.733,-0.687,0.174,0.802,-0.571,10.404,-5.939,-4.092,-0.046,none
2.034417,0.829,0.498,0.254,2458.67,0.783,-0.783,-0.112,-0.787,-0.177,-0.591,0.921,0.361,0.145,2476.52,0.671,-0.671,-0.560,-0.811,0.120,-0.573,0.538,-0.507,-0.674,2459.37,-0.448,-0.448,0.560,-0.865,0.500,0.047,0.336,0.672,-0.660,2526.76,-0.336,-0.336,-0.671,-0.195,0.124,0.973,0.476,0.843,-0.248,9.850,6.794,-0.321,-0.885,0.176,0.809,-0.561,10.456,-4.107,-4.824,-0.458,none
2.034508,0.838,0.490,0.240,2478.02,-0.560,0.224,-1.343,-0.785,-0.172,-0.595,0.923,0.358,0.140,2491.84,-0.560,0.112,-1.343,-0.800,0.115,-0.589,0.541,-0.513,-0.666,2427.17,-0.895,-0.671,-0.224,-0.882,0.472,0.004,0.335,0.680,-0.652,2527.84,-1.343,0.112,-0.112,-0.213,0.119,0.970,0.483,0.844,-0.234,9.936,5.710,0.672,-1.191,0.184,0.815,-0.550,10.473,-5.344,-3.893,-0.656,none
2.034612,0.841,0.489,0.232,2481.93,-0.560,-0.112,-0.224,-0.788,-0.187,-0.586,0.923,0.361,0.131,2501.95,0.671,-0.224,0.112,-0.797,0.122,-0.591,0.534,-0.510,-0.674,2441.77,0.000,-0.224,0.224,-0.879,0.477,0.027,0.332,0.677,-0.657,2524.26,1.231,-0.671,-0.783,-0.202,0.128,0.971,0.480,0.843,-0.243,9.851,4.901,1.053,-1.282,0.180,0.810,-0.558,10.426,-6.260,-3.771,-0.702,none
2.034720,0.837,0.490,0.242,2458.52,0.448,-0.895,0.560,-0.778,-0.187,-0.600,0.922,0.361,0.141,2476.15,0.783,-0.671,0.895,-0.805,0.109,-0.583,0.533,-0.513,-0.673,2446.89,1.119,-0.671,1.007,-0.871,0.484,0.082,0.328,0.674,-0.662,2520.80,0.671,-0.448,-0.783,-0.194,0.143,0.971,0.478,0.841,-0.254,9.758,5.496,0.840,-1.282,0.180,0.803,-0.569,10.384,-5.634,-3.969,-0.855,none
2.034821,0.834,0.493,0.247,2444.25,0.560,-0.112,0.000,-0.782,-0.158,-0.603,0.921,0.362,0.141,2466.94,0.112,0.000,-0.224,-0.834,0.088,-0.545,0.537,-0.514,-0.669,2445.00,0.336,-0.560,0.000,-0.878,0.472,0.078,0.330,0.673,-0.661,2506.77,0.112,-0.112,-0.336,-0.204,0.135,0.970,0.480,0.842,-0.248,9.746,6.489,0.107,-1.130,0.177,0.805,-0.567,10.365,-4.550,-4.718,-0.702,none
2.034916,0.833,0.494,0.250,2459.51,-0.560,0.112,-1.007,-0.791,-0.181,-0.585,0.919,0.367,0.144,2483.43,-0.336,0.224,-0.783,-0.808,0.103,-0.580,0.539,-0.504,-0.675,2454.32,-0.336,-0.224,0.000,-0.882,0.469,0.051,0.329,0.668,-0.668,2513.35,-0.671,0.560,0.000,-0.201,0.125,0.972,0.480,0.842,-0.247,9.833,7.145,-0.427,-0.458,0.178,0.808,-0.562,10.450,-3.664,-4.626,-0.198,none
2.034998,0.840,0.488,0.236,2471.24,-0.336,1.007,-2.126,-0.769,-0.157,-0.619,0.928,0.351,0.128,2489.98,-0.336,0.671,-2.126,-0.809,0.097,-0.579,0.532,-0.520,-0.668,2450.68,-1.343,-0.448,0.336,-0.878,0.474,0.063,0.332,0.677,-0.657,2524.26,-1.007,0.000,-0.112,-0.207,0.124,0.970,0.480,0.844,-0.241,9.885,6.794,-0.229,-0.565,0.183,0.811,-0.555,10.486,-4.198,-4.718,-0.244,none
2.035079,0.835,0.496,0.239,2487.04,-1.007,-0.112,-1.567,-0.786,-0.167,-0.596,0.924,0.358,0.136,2491.38,-0.112,-0.224,-1.119,-0.828,0.077,-0.555,0.543,-0.499,-0.676,2438.04,-1.343,-0.671,0.671,-0.871,0.489,0.035,0.335,0.678,-0.654,2534.37,-0.895,-0.448,-0.224,-0.198,0.129,0.972,0.479,0.841,-0.251,9.871,5.832,0.305,-0.809,0.179,0.809,-0.560,10.454,-5.298,-4.427,-0.412,none
2.035160,0.833,0.495,0.248,2472.78,-0.224,-0.560,-0.560,-0.773,-0.170,-0.611,0.921,0.364,0.137,2477.47,0.112,-0.448,-0.224,-0.803,0.110,-0.586,0.537,-0.502,-0.678,2443.91,0.000,-0.336,0.560,-0.876,0.470,0.105,0.332,0.677,-0.657,2524.26,0.000,-0.336,-0.448,-0.213,0.122,0.970,0.481,0.840,-0.253,9.757,5.893,0.412,-0.824,0.178,0.802,-0.571,10.392,-5.084,-4.290,-0.321,none
2.035240,0.828,0.500,0.255,2449.56,-0.671,-0.224,-0.895,-0.781,-0.171,-0.600,0.918,0.370,0.145,2465.07,0.112,-0.448,-0.895,-0.825,0.124,-0.551,0.540,-0.508,-0.671,2451.97,-0.336,-0.560,0.112,-0.856,0.514,0.062,0.333,0.675,-0.659,2516.83,-0.783,-0.560,-0.336,-0.202,0.126,0.971,0.476,0.841,-0.255,9.780,7.069,-0.107,-1.267,0.173,0.803,-0.570,10.412,-3.969,-4.855,-0.931,none
2.035320,0.830,0.494,0.258,2456.01,-0.448,0.448,-1.455,-0.778,-0.197,-0.597,0.921,0.364,0.141,2479.78,-0.224,0.448,-1.455,-0.810,0.110,-0.575,0.541,-0.498,-0.678,2444.13,-0.895,-0.336,-0.783,-0.878,0.478,0.031,0.329,0.676,-0.660,2513.51,-0.895,0.560,0.112,-0.193,0.126,0.973,0.479,0.843,-0.243,9.864,7.176,-0.198,-1.298,0.178,0.810,-0.559,10.454,-3.908,-4.580,-0.962,none
2.035401,0.840,0.487,0.240,2472.78,-0.224,1.231,-1.567,-0.786,-0.174,-0.593,0.924,0.359,0.132,2489.11,0.224,0.671,-1.231,-0.818,0.091,-0.567,0.534,-0.515,-0.670,2440.17,-1.119,-0.112,-1.231,-0.885,0.462,0.053,0.335,0.678,-0.654,2534.37,-0.895,0.448,0.000,-0.202,0.122,0.972,0.481,0.845,-0.234,9.923,6.351,0.366,-1.847,0.182,0.815,-0.551,10.484,-5.023,-4.275,-1.557,none
2.035482,0.839,0.491,0.236,2474.80,0.448,0.671,0.336,-0.772,-0.175,-0.612,0.925,0.358,0.128,2497.06,0.112,0.671,0.112,-0.817,0.089,-0.570,0.536,-0.512,-0.671,2451.70,0.336,0.112,-0.224,-0.893,0.447,0.051,0.332,0.673,-0.661,2524.10,0.448,0.112,-0.112,-0.200,0.129,0.971,0.481,0.839,-0.253,9.819,5.527,0.198,-1.176,0.178,0.805,-0.566,10.433,-5.420,-4.702,-0.641,none
2.035562,0.831,0.498,0.248,2476.92,0.112,-0.671,-0.448,-0.797,-0.188,-0.574,0.921,0.364,0.141,2479.78,0.671,-0.448,0.224,-0.802,0.116,-0.586,0.534,-0.515,-0.670,2457.51,-0.336,-0.112,-0.224,-0.873,0.486,0.038,0.332,0.673,-0.661,2524.10,-0.448,0.224,-0.224,-0.189,0.131,0.973,0.482,0.840,-0.250,9.820,6.092,-0.137,-1.145,0.179,0.806,-0.564,10.444,-4.855,-4.763,-0.702,none
2.035652,0.833,0.495,0.245,2470.32,0.000,0.112,-1.007,-0.785,-0.193,-0.589,0.921,0.364,0.141,2479.78,-0.336,-0.112,-0.895,-0.819,0.109,-0.564,0.541,-0.505,-0.673,2446.90,-0.783,-0.112,0.224,-0.865,0.500,0.039,0.333,0.675,-0.659,2516.83,-1.119,0.000,0.000,-0.201,0.131,0.971,0.481,0.840,-0.251,9.826,6.275,-0.397,-0.901,0.180,0.807,-0.562,10.432,-4.611,-4.992,-0.305,none
2.035736,0.836,0.493,0.241,2462.11,-0.224,0.112,-1.231,-0.797,-0.180,-0.576,0.923,0.360,0.137,2483.07,-0.671,-0.224,-1.231,-0.808,0.109,-0.580,0.538,-0.506,-0.674,2441.51,-1.007,0.000,-0.560,-0.882,0.464,0.076,0.333,0.679,-0.655,2517.70,-0.671,0.336,0.336,-0.194,0.131,0.972,0.484,0.838,-0.252,9.795,6.427,-0.351,-0.763,0.182,0.802,-0.569,10.433,-4.366,-4.962,-0.321,none
2.035816,0.829,0.503,0.244,2471.99,0.112,0.112,-1.343,-0.771,-0.198,-0.606,0.918,0.371,0.140,2486.76,0.112,0.336,-1.455,-0.818,0.112,-0.564,0.540,-0.501,-0.677,2449.30,-1.119,0.000,-0.336,-0.888,0.448,0.104,0.336,0.678,-0.654,2520.37,-1.567,0.671,-0.112,-0.198,0.128,0.972,0.484,0.836,-0.260,9.789,7.038,-0.351,-0.260,0.182,0.799,-0.573,10.424,-3.634,-4.794,0.137,none
2.035894,0.828,0.503,0.248,2474.46,0.224,0.112,-2.014,-0.780,-0.191,-0.596,0.916,0.374,0.144,2491.76,-0.224,-0.112,-2.350,-0.814,0.090,-0.574,0.540,-0.501,-0.677,2449.30,-1.902,-0.560,-0.671,-0.878,0.476,0.046,0.332,0.681,-0.653,2523.82,-2.910,0.783,-0.336,-0.194,0.131,0.972,0.481,0.842,-0.246,9.869,7.206,0.122,-0.489,0.180,0.809,-0.560,10.469,-3.817,-4.214,-0.260,none
2.035973,0.834,0.493,0.247,2481.12,0.336,0.448,-2.238,-0.796,-0.159,-0.584,0.922,0.363,0.136,2486.68,0.783,0.448,-1.902,-0.815,0.086,-0.573,0.537,-0.509,-0.673,2429.94,-0.895,-0.671,-0.560,-0.889,0.454,0.065,0.335,0.682,-0.650,2534.65,-1.455,0.671,-0.448,-0.208,0.119,0.971,0.475,0.845,-0.245,9.930,5.740,1.008,-1.710,0.174,0.811,-0.559,10.499,-5.511,-3.786,-1.206,none
2.036051,0.837,0.488,0.248,2470.96,1.455,0.448,-0.224,-0.772,-0.168,-0.613,0.925,0.352,0.141,2478.26,1.231,0.336,0.000,-0.811,0.095,-0.577,0.534,-0.510,-0.674,2441.77,0.671,0.224,-0.671,-0.887,0.462,0.025,0.335,0.678,-0.654,2534.37,0.448,0.560,-0.560,-0.194,0.131,0.972,0.477,0.843,-0.246,9.864,5.038,0.458,-2.779,0.180,0.809,-0.560,10.475,-6.397,-4.824,-2.031,none
2.036130,0.838,0.488,0.245,2468.49,0.336,0.224,1.343,-0.785,-0.165,-0.597,0.924,0.358,0.136,2491.38,-0.112,0.560,1.455,-0.804,0.092,-0.588,0.535,-0.508,-0.675,2454.00,1.007,0.560,-0.336,-0.881,0.472,0.009,0.332,0.673,-0.661,2524.10,1.119,0.336,0.336,-0.196,0.127,0.972,0.487,0.835,-0.255,9.797,5.328,-0.092,-1.863,0.185,0.799,-0.573,10.443,-5.710,-5.145,-1.099,none
2.036210,0.828,0.503,0.248,2474.46,-0.336,-0.112,0.112,-0.786,-0.174,-0.593,0.918,0.373,0.136,2498.28,-0.336,-0.112,0.000,-0.793,0.097,-0.601,0.531,-0.508,-0.678,2471.94,0.112,0.448,-0.224,-0.886,0.461,0.049,0.328,0.678,-0.658,2520.96,0.336,0.000,0.112,-0.202,0.128,0.971,0.484,0.838,-0.250,9.826,6.198,0.031,-1.267,0.187,0.805,-0.563,10.437,-4.809,-4.672,-0.794,none
2.036292,0.830,0.502,0.244,2480.29,0.336,0.224,-0.783,-0.771,-0.198,-0.606,0.917,0.374,0.140,2489.57,0.448,0.112,-1.119,-0.810,0.086,-0.580,0.541,-0.505,-0.673,2446.90,-0.783,-0.224,0.112,-0.878,0.478,0.031,0.331,0.679,-0.655,2530.36,-1.007,0.112,-0.336,-0.210,0.117,0.971,0.480,0.840,-0.252,9.836,6.229,0.382,-0.809,0.177,0.806,-0.565,10.431,-4.855,-4.427,-0.321,none
2.050861,0.833,0.495,0.248,2472.78,0.224,-0.336,-1.007,-0.794,-0.166,-0.584,0.923,0.358,0.140,2491.84,0.560,-0.112,-0.895,-0.804,0.121,-0.582,0.535,-0.507,-0.676,2436.68,-0.336,-0.560,-0.224,-0.874,0.477,0.087,0.336,0.676,-0.656,2526.92,-0.783,0.224,-0.336,-0.205,0.125,0.971,0.474,0.844,-0.250,9.866,5.878,0.015,-1.588,0.175,0.808,-0.563,10.463,-5.298,-4.824,-1.084,none
2.064938,0.835,0.490,0.252,2477.86,-0.224,-0.336,-0.783,-0.776,-0.146,-0.614,0.920,0.364,0.148,2482.52,0.000,-0.560,-0.671,-0.808,0.086,-0.582,0.541,-0.505,-0.673,2446.90,-0.560,-0.224,0.000,-0.884,0.466,0.028,0.331,0.679,-0.655,2530.36,0.000,0.112,-0.112,-0.204,0.120,0.972,0.482,0.840,-0.251,9.856,5.740,0.092,-1.832,0.180,0.806,-0.564,10.456,-5.435,-4.824,-1.221,none
2.091105,0.834,0.497,0.239,2481.20,-0.448,0.224,0.112,-0.781,-0.178,-0.598,0.922,0.364,0.131,2505.21,-0.448,0.448,0.000,-0.805,0.109,-0.583,0.534,-0.511,-0.674,2459.10,0.000,0.224,-0.224,-0.887,0.463,-0.004,0.331,0.679,-0.655,2530.36,0.560,-0.224,0.112,-0.216,0.113,0.970,0.484,0.840,-0.243,9.837,5.053,0.168,-1.481,0.185,0.808,-0.559,10.452,-5.939,-4.672,-0.824,none
2.114510,0.835,0.494,0.240,2475.41,-0.224,-0.224,0.448,-0.774,-0.195,-0.602,0.919,0.371,0.136,2484.46,-0.448,-0.448,0.448,-0.814,0.095,-0.574,0.537,-0.502,-0.678,2443.91,0.336,-0.112,1.007,-0.868,0.488,0.095,0.333,0.682,-0.651,2517.95,0.560,-0.448,0.000,-0.202,0.118,0.972,0.482,0.838,-0.255,9.817,4.962,0.733,-1.588,0.178,0.802,-0.571,10.391,-6.168,-4.290,-0.870,none
2.537181,0.830,0.499,0.250,2455.32,0.671,-0.112,0.671,-0.794,-0.199,-0.575,0.919,0.369,0.141,2473.88,0.336,-0.560,0.448,-0.801,0.109,-0.589,0.537,-0.509,-0.673,2446.59,0.895,-0.336,0.000,-0.893,0.449,0.028,0.333,0.675,-0.659,2516.83,1.007,-0.336,-0.224,-0.215,0.115,0.970,0.477,0.840,-0.257,9.784,5.740,0.015,-1.603,0.175,0.803,-0.570,10.351,-5.344,-5.023,-0.977,none
2.537444,0.832,0.495,0.251,2450.35,-0.112,0.112,-0.224,-0.794,-0.181,-0.581,0.921,0.361,0.145,2476.52,-0.671,0.000,-0.448,-0.822,0.097,-0.561,0.541,-0.510,-0.669,2445.27,0.000,0.224,0.000,-0.882,0.464,0.076,0.334,0.672,-0.661,2510.09,-0.224,0.224,0.336,-0.202,0.128,0.971,0.479,0.840,-0.255,9.822,6.458,-0.550,-1.527,0.179,0.803,-0.569,10.431,-4.473,-5.389,-0.901,none
2.537550,0.831,0.498,0.248,2476.92,-0.560,0.895,-0.895,-0.795,-0.154,-0.587,0.920,0.366,0.140,2492.27,-0.671,0.560,-1.119,-0.815,0.102,-0.571,0.540,-0.508,-0.671,2451.97,-0.895,0.224,-0.224,-0.871,0.489,0.055,0.335,0.674,-0.658,2534.17,-1.231,0.336,0.336,-0.199,0.124,0.972,0.486,0.838,-0.249,9.886,6.580,-0.565,-1.145,0.186,0.804,-0.564,10.513,-4.321,-5.191,-0.565,none
2.537653,0.832,0.502,0.238,2497.86,-0.560,0.224,-1.119,-0.790,-0.190,-0.583,0.921,0.367,0.131,2508.87,-0.448,0.112,-1.119,-0.817,0.083,-0.570,0.532,-0.505,-0.679,2466.87,-1.343,0.112,-0.336,-0.875,0.483,0.040,0.334,0.680,-0.652,2541.16,-1.343,0.224,-0.112,-0.213,0.113,0.971,0.489,0.837,-0.248,9.890,5.939,0.076,-0.702,0.188,0.803,-0.565,10.494,-5.069,-4.595,-0.092,none
2.537747,0.828,0.503,0.248,2474.46,0.000,-0.895,-1.007,-0.790,-0.198,-0.580,0.918,0.373,0.136,2498.28,0.560,-0.671,-0.671,-0.817,0.089,-0.570,0.540,-0.501,-0.677,2449.30,-0.895,-0.448,0.336,-0.890,0.454,0.032,0.335,0.682,-0.650,2534.65,-1.119,-0.112,-0.224,-0.212,0.123,0.970,0.474,0.843,-0.253,9.844,5.710,0.382,-1.221,0.168,0.806,-0.568,10.437,-5.435,-4.580,-0.702,none
2.537836,0.831,0.491,0.262,2453.35,0.671,0.112,0.000,-0.784,-0.177,-0.596,0.921,0.360,0.150,2455.96,0.448,-0.560,-0.560,-0.827,0.113,-0.551,0.542,-0.506,-0.671,2423.67,0.336,-0.448,0.336,-0.876,0.480,0.048,0.333,0.682,-0.651,2517.95,-0.224,-0.224,-0.336,-0.206,0.127,0.970,0.477,0.841,-0.255,9.782,5.420,0.031,-2.382,0.172,0.803,-0.571,10.373,-5.863,-5.344,-1.588,none
2.537925,0.830,0.497,0.255,2444.58,-0.224,0.560,0.783,-0.791,-0.161,-0.590,0.915,0.377,0.145,2473.45,-0.671,0.895,0.560,-0.826,0.102,-0.555,0.547,-0.494,-0.676,2420.67,0.560,0.895,0.224,-0.883,0.469,0.015,0.332,0.684,-0.649,2524.79,0.671,0.783,0.783,-0.208,0.118,0.971,0.485,0.836,-0.257,9.797,6.595,-0.122,-2.962,0.185,0.798,-0.574,10.454,-4.779,-5.359,-2.290,none
2.538015,0.828,0.508,0.239,2486.64,-0.560,1.567,0.224,-0.778,-0.179,-0.603,0.915,0.379,0.140,2484.18,-0.448,1.902,-0.336,-0.814,0.095,-0.574,0.532,-0.505,-0.679,2466.87,0.448,1.343,-1.231,-0.870,0.493,0.033,0.332,0.681,-0.653,2523.82,0.448,1.231,0.560,-0.204,0.120,0.972,0.486,0.838,-0.246,9.883,7.145,0.031,-2.214,0.188,0.808,-0.559,10.513,-4.000,-4.931,-1.634,none
2.538103,0.839,0.494,0.230,2500.16,0.000,1.231,-0.895,-0.797,-0.175,-0.578,0.927,0.354,0.126,2524.84,0.336,2.014,-0.783,-0.805,0.109,-0.583,0.527,-0.519,-0.673,2475.99,-0.112,0.336,-1.231,-0.875,0.482,0.035,0.329,0.676,-0.660,2544.19,0.112,0.671,0.224,-0.198,0.127,0.972,0.478,0.845,-0.241,9.928,6.214,-0.076,-1.099,0.177,0.812,-0.556,10.553,-4.794,-5.053,-0.489,none
2.541289,0.844,0.481,0.239,2485.61,-0.224,-0.112,-0.560,-0.786,-0.204,-0.584,0.927,0.353,0.127,2502.77,0.224,0.336,-0.783,-0.807,0.110,-0.580,0.531,-0.519,-0.670,2457.37,-0.560,-0.112,0.448,-0.888,0.459,0.022,0.329,0.678,-0.658,2550.95,-1.343,0.112,0.000,-0.208,0.119,0.971,0.478,0.846,-0.238,9.898,4.977,-0.290,-1.344,0.177,0.813,-0.554,10.470,-5.954,-5.435,-0.550,none
2.541407,0.839,0.488,0.239,2486.40,-0.783,-0.671,0.448,-0.778,-0.181,-0.601,0.926,0.354,0.132,2495.73,-1.455,-0.895,0.560,-0.790,0.117,-0.602,0.541,-0.510,-0.669,2445.27,0.112,0.112,1.231,-0.888,0.457,0.052,0.335,0.678,-0.654,2534.37,0.000,-0.895,0.560,-0.206,0.120,0.971,0.481,0.839,-0.253,9.879,4.122,-0.580,-1.328,0.178,0.805,-0.566,10.515,-6.702,-5.649,-0.458,none
2.541497,0.831,0.499,0.246,2491.04,-0.895,-1.343,1.007,-0.770,-0.156,-0.619,0.920,0.369,0.135,2501.92,-1.455,-1.119,1.231,-0.811,0.103,-0.576,0.536,-0.505,-0.676,2466.12,0.336,0.895,0.895,-0.903,0.430,0.002,0.335,0.678,-0.654,2534.37,0.783,-1.231,0.671,-0.198,0.129,0.972,0.484,0.834,-0.263,9.856,4.473,-0.763,-0.916,0.184,0.797,-0.575,10.489,-6.198,-5.557,-0.076,none
2.541580,0.825,0.508,0.247,2484.06,-0.671,-0.783,0.224,-0.777,-0.186,-0.601,0.915,0.378,0.142,2515.76,-1.231,-0.895,0.000,-0.816,0.090,-0.571,0.532,-0.501,-0.683,2469.34,-0.895,0.224,1.343,-0.873,0.486,0.038,0.332,0.681,-0.653,2523.82,-0.560,-1.790,0.000,-0.195,0.126,0.973,0.491,0.834,-0.254,9.837,5.282,-0.382,-0.198,0.189,0.802,-0.566,10.439,-5.588,-4.992,0.412,none
2.541674,0.832,0.503,0.233,2472.55,-0.448,-1.119,-0.783,-0.793,-0.203,-0.575,0.920,0.370,0.128,2491.93,-0.336,-1.455,-0.448,-0.828,0.101,-0.552,0.537,-0.501,-0.678,2427.78,-0.895,-1.343,1.790,-0.869,0.489,0.070,0.334,0.684,-0.649,2511.46,-0.783,-1.902,-0.671,-0.199,0.124,0.972,0.485,0.838,-0.250,9.797,4.153,0.840,-0.443,0.179,0.807,-0.563,10.355,-7.023,-4.183,0.122,none
2.541757,0.824,0.505,0.257,2424.78,0.336,-2.238,0.895,-0.793,-0.188,-0.579,0.915,0.374,0.151,2439.97,0.560,-1.902,1.343,-0.794,0.106,-0.599,0.547,-0.490,-0.678,2382.46,0.336,-1.343,2.126,-0.880,0.471,0.059,0.331,0.687,-0.647,2502.34,1.455,-1.343,-0.783,-0.206,0.132,0.970,0.474,0.839,-0.266,9.653,4.290,1.176,-2.076,0.170,0.797,-0.580,10.261,-7.115,-4.061,-1.511,none
2.541839,0.825,0.500,0.263,2410.15,0.336,-0.448,1.790,-0.790,-0.206,-0.577,0.916,0.370,0.152,2413.67,0.895,-0.224,1.455,-0.805,0.092,-0.586,0.548,-0.500,-0.670,2412.18,1.902,0.112,0.336,-0.882,0.469,0.044,0.334,0.673,-0.661,2481.42,1.902,-0.448,-0.112,-0.204,0.126,0.971,0.472,0.841,-0.265,9.633,5.847,0.046,-2.565,0.172,0.801,-0.574,10.260,-5.328,-4.870,-2.031,none
2.541919,0.830,0.497,0.255,2444.58,-0.671,1.119,0.336,-0.795,-0.209,-0.569,0.921,0.361,0.146,2445.27,0.671,0.783,0.783,-0.804,0.122,-0.582,0.537,-0.514,-0.669,2445.00,0.560,0.112,-1.119,-0.888,0.458,0.040,0.335,0.671,-0.662,2504.05,0.895,0.336,0.336,-0.202,0.126,0.971,0.480,0.841,-0.250,9.789,6.885,-0.702,-2.183,0.180,0.808,-0.562,10.374,-4.183,-5.374,-1.740,none
2.546730,0.835,0.494,0.240,2475.41,-0.448,1.343,-0.783,-0.793,-0.202,-0.576,0.920,0.366,0.136,2489.97,-1.007,1.455,-0.671,-0.817,0.089,-0.570,0.538,-0.511,-0.671,2439.87,-0.783,0.671,-1.007,-0.875,0.484,-0.002,0.334,0.673,-0.660,2540.76,-0.895,0.895,0.895,-0.195,0.126,0.973,0.483,0.840,-0.247,9.921,6.366,-0.687,-2.015,0.183,0.809,-0.559,10.493,-4.626,-5.344,-1.481,none
2.546841,0.837,0.491,0.242,2492.87,-0.671,1.007,-0.224,-0.787,-0.182,-0.590,0.923,0.359,0.135,2512.51,-0.336,1.343,-0.671,-0.804,0.103,-0.586,0.534,-0.511,-0.673,2475.61,-1.007,1.119,-1.119,-0.884,0.465,0.050,0.333,0.675,-0.659,2546.82,-1.119,0.783,0.671,-0.197,0.132,0.971,0.487,0.837,-0.250,9.933,5.924,-0.366,-1.359,0.186,0.806,-0.562,10.563,-5.038,-4.977,-0.824,none
2.546932,0.834,0.499,0.236,2513.68,-0.112,0.000,-0.448,-0.788,-0.162,-0.594,0.923,0.363,0.130,2536.52,-0.448,0.224,-0.336,-0.798,0.116,-0.591,0.525,-0.514,-0.678,2498.97,-0.895,-0.224,-0.671,-0.866,0.496,0.068,0.331,0.679,-0.655,2560.36,-0.783,-0.112,0.112,-0.210,0.132,0.969,0.489,0.836,-0.248,9.970,5.832,0.137,-0.519,0.188,0.805,-0.562,10.589,-5.115,-4.382,0.031,none
2.547024,0.831,0.503,0.237,2510.69,-0.336,-0.895,-1.119,-0.781,-0.185,-0.597,0.919,0.369,0.138,2524.45,0.112,-1.231,-0.671,-0.824,0.101,-0.558,0.537,-0.506,-0.675,2482.62,-0.895,-1.007,0.448,-0.897,0.440,0.052,0.333,0.678,-0.655,2547.02,-1.119,-0.671,-0.560,-0.198,0.129,0.972,0.482,0.839,-0.253,9.907,5.099,0.519,-0.168,0.177,0.803,-0.570,10.531,-5.908,-4.244,0.443,none
2.559505,0.831,0.496,0.251,2488.55,0.560,-1.343,-0.448,-0.790,-0.159,-0.592,0.920,0.365,0.143,2500.90,0.336,-1.679,-0.112,-0.821,0.090,-0.564,0.544,-0.497,-0.676,2449.55,-0.560,-1.231,1.231,-0.875,0.479,0.075,0.337,0.680,-0.652,2544.18,-0.448,-0.783,-0.783,-0.197,0.123,0.973,0.477,0.839,-0.262,9.820,5.267,0.427,-0.366,0.174,0.800,-0.574,10.433,-5.695,-4.137,0.092,none
2.582163,0.827,0.501,0.257,2465.13,0.448,-0.895,-0.448,-0.786,-0.174,-0.593,0.921,0.362,0.141,2466.94,0.336,-0.895,-0.448,-0.826,0.102,-0.555,0.540,-0.501,-0.677,2449.30,-0.112,-1.231,0.671,-0.870,0.489,0.066,0.341,0.684,-0.645,2511.40,0.000,-1.119,-0.671,-0.202,0.126,0.971,0.480,0.840,-0.253,9.785,5.099,0.626,-0.931,0.177,0.804,-0.568,10.363,-5.969,-4.168,-0.427,none
2.606855,0.829,0.500,0.251,2447.86,0.224,-0.560,-0.112,-0.800,-0.196,-0.567,0.916,0.373,0.145,2468.78,0.000,-0.895,0.448,-0.806,0.111,-0.581,0.543,-0.503,-0.673,2401.82,0.448,-1.007,0.336,-0.873,0.482,0.072,0.331,0.683,-0.651,2501.98,0.783,-1.007,-0.671,-0.198,0.129,0.972,0.479,0.839,-0.256,9.697,5.496,1.344,-2.107,0.177,0.802,-0.571,10.280,-5.924,-4.015,-1.435,none
3.070132,0.825,0.501,0.261,2422.08,0.560,0.224,0.448,-0.794,-0.175,-0.582,0.916,0.372,0.148,2425.96,0.895,-0.224,0.560,-0.813,0.120,-0.570,0.542,-0.506,-0.671,2406.86,1.231,-0.112,-0.224,-0.881,0.473,0.023,0.329,0.675,-0.660,2484.18,1.119,0.112,-0.448,-0.196,0.131,0.972,0.475,0.840,-0.261,9.747,6.641,0.443,-2.580,0.174,0.800,-0.574,10.373,-4.687,-4.687,-1.985,none
3.070271,0.831,0.495,0.254,2453.71,-0.224,1.567,-0.448,-0.781,-0.171,-0.600,0.923,0.358,0.140,2491.84,0.224,1.790,-0.783,-0.811,0.084,-0.580,0.533,-0.514,-0.672,2480.22,0.000,0.671,-1.902,-0.875,0.474,0.100,0.334,0.669,-0.664,2540.68,-1.007,1.455,0.560,-0.202,0.117,0.972,0.479,0.841,-0.250,9.969,7.511,-1.023,-1.908,0.179,0.809,-0.560,10.594,-3.573,-5.786,-1.298,none
3.070372,0.837,0.496,0.231,2528.05,-0.783,1.343,-1.567,-0.789,-0.179,-0.588,0.924,0.359,0.128,2565.14,-0.783,1.231,-1.790,-0.806,0.090,-0.586,0.526,-0.515,-0.677,2516.14,-1.679,1.119,-1.567,-0.879,0.476,0.017,0.335,0.676,-0.656,2585.25,-2.462,0.671,0.783,-0.201,0.121,0.972,0.489,0.840,-0.235,10.143,6.351,-0.733,-0.672,0.191,0.811,-0.553,10.736,-4.519,-5.359,-0.122,none
3.070458,0.838,0.497,0.224,2561.40,0.224,0.000,-1.119,-0.784,-0.183,-0.593,0.924,0.364,0.119,2587.46,-0.560,-0.560,-0.895,-0.806,0.103,-0.583,0.524,-0.513,-0.680,2505.76,-1.679,-0.448,0.112,-0.881,0.466,0.083,0.332,0.684,-0.650,2583.10,-1.790,-1.119,-0.671,-0.202,0.129,0.971,0.492,0.837,-0.240,10.093,3.786,1.191,0.214,0.194,0.811,-0.552,10.674,-7.359,-4.000,1.130,none
3.070554,0.834,0.500,0.231,2525.01,1.007,-2.798,0.448,-0.784,-0.191,-0.591,0.920,0.372,0.126,2533.38,0.895,-3.021,1.455,-0.810,0.108,-0.577,0.532,-0.501,-0.683,2469.34,0.783,-2.014,3.021,-0.876,0.474,0.094,0.333,0.686,-0.647,2546.96,0.448,-2.462,-1.679,-0.212,0.123,0.970,0.486,0.836,-0.257,9.880,2.794,2.473,0.275,0.184,0.801,-0.570,10.475,-8.412,-3.099,1.206,none
3.070663,0.823,0.507,0.254,2452.20,1.231,-4.141,1.119,-0.779,-0.183,-0.600,0.914,0.380,0.146,2455.17,1.679,-3.693,1.790,-0.805,0.122,-0.581,0.537,-0.502,-0.678,2443.91,1.679,-2.574,3.357,-0.854,0.515,0.079,0.331,0.679,-0.655,2501.02,1.902,-3.021,-2.462,-0.196,0.134,0.971,0.479,0.837,-0.265,9.645,3.542,2.382,0.153,0.174,0.797,-0.579,10.268,-7.771,-2.977,0.931,none
3.070755,0.825,0.500,0.263,2410.15,2.126,-2.686,0.895,-0.787,-0.208,-0.581,0.916,0.370,0.152,2413.67,1.790,-2.686,0.783,-0.818,0.090,-0.568,0.543,-0.503,-0.673,2401.82,1.119,-2.014,1.902,-0.868,0.483,0.116,0.330,0.677,-0.657,2477.59,1.119,-2.238,-2.014,-0.206,0.124,0.971,0.469,0.843,-0.262,9.587,5.069,1.053,-0.779,0.164,0.800,-0.577,10.208,-6.137,-4.305,-0.107,none
3.070852,0.831,0.491,0.261,2392.93,1.231,-1.007,0.224,-0.781,-0.178,-0.598,0.920,0.359,0.157,2404.29,0.671,-0.895,-0.224,-0.787,0.092,-0.610,0.543,-0.507,-0.670,2382.96,0.336,-0.560,1.007,-0.890,0.455,0.022,0.329,0.680,-0.656,2485.05,0.336,-0.671,-0.448,-0.205,0.130,0.970,0.479,0.841,-0.253,9.699,5.588,-0.046,-2.275,0.178,0.803,-0.568,10.295,-5.679,-5.328,-1.557,none
3.070941,0.830,0.501,0.243,2442.09,-0.336,0.448,0.560,-0.787,-0.152,-0.598,0.919,0.370,0.134,2461.94,-0.448,0.671,0.336,-0.812,0.091,-0.577,0.533,-0.505,-0.679,2426.96,-0.112,1.119,-0.895,-0.878,0.474,0.065,0.327,0.682,-0.654,2504.54,0.448,0.336,0.560,-0.200,0.125,0.972,0.491,0.834,-0.250,9.768,6.260,-0.275,-2.366,0.191,0.801,-0.567,10.392,-4.947,-5.145,-1.740,none
3.071027,0.832,0.503,0.233,2472.55,-0.560,1.007,0.000,-0.787,-0.208,-0.581,0.922,0.367,0.128,2488.24,-0.336,0.895,-0.112,-0.803,0.127,-0.582,0.524,-0.516,-0.678,2471.65,-0.224,0.448,-1.343,-0.884,0.463,0.061,0.325,0.679,-0.659,2517.01,0.000,0.336,0.448,-0.205,0.131,0.970,0.491,0.839,-0.235,9.863,6.443,-0.031,-1.863,0.191,0.811,-0.553,10.482,-4.748,-4.626,-1.389,none
3.071112,0.840,0.495,0.220,2471.67,-0.560,0.671,-0.895,-0.801,-0.183,-0.570,0.925,0.361,0.120,2499.23,0.224,0.671,-0.448,-0.816,0.116,-0.567,0.527,-0.511,-0.679,2437.93,-0.336,-0.671,-0.224,-0.868,0.488,0.092,0.324,0.681,-0.657,2524.49,-0.671,0.112,0.000,-0.193,0.126,0.973,0.488,0.840,-0.236,9.879,5.145,0.626,-1.603,0.188,0.811,-0.554,10.474,-6.031,-4.244,-1.038,none
3.071191,0.839,0.494,0.228,2476.15,0.448,-0.671,0.448,-0.785,-0.157,-0.599,0.926,0.358,0.124,2495.80,0.895,-0.224,0.224,-0.812,0.103,-0.574,0.529,-0.517,-0.673,2446.73,0.560,-0.671,-0.448,-0.895,0.445,0.032,0.323,0.679,-0.659,2530.39,-0.224,-0.112,-0.448,-0.195,0.126,0.973,0.482,0.840,-0.251,9.813,4.977,0.366,-1.405,0.180,0.805,-0.566,10.402,-6.046,-4.427,-0.809,none
3.071272,0.832,0.497,0.245,2461.99,0.000,-0.671,0.224,-0.792,-0.227,-0.567,0.922,0.361,0.137,2473.84,0.224,-0.224,0.000,-0.812,0.089,-0.577,0.525,-0.517,-0.676,2465.55,0.112,-0.112,-0.336,-0.881,0.466,0.083,0.324,0.677,-0.661,2524.29,0.336,-0.224,0.000,-0.194,0.147,0.970,0.483,0.839,-0.250,9.823,5.878,-0.504,-1.206,0.183,0.804,-0.566,10.406,-5.053,-5.038,-0.611,none
4.576809,0.833,0.499,0.240,2472.87,-0.224,0.112,-0.783,-0.797,-0.174,-0.578,0.920,0.368,0.137,2480.76,-0.336,-0.112,-0.560,-0.818,0.090,-0.568,0.534,-0.510,-0.674,2441.77,-0.895,0.000,0.000,-0.880,0.471,0.063,0.328,0.680,-0.656,2527.07,-0.783,-0.112,0.112,-0.191,0.128,0.973,0.486,0.839,-0.245,9.875,5.786,-0.458,-1.252,0.184,0.806,-0.563,10.455,-5.191,-4.916,-0.672,none
4.577000,0.835,0.498,0.236,2477.99,-0.112,0.000,-0.336,-0.775,-0.159,-0.612,0.922,0.366,0.128,2494.70,-0.448,-0.336,-0.224,-0.815,0.121,-0.567,0.536,-0.504,-0.677,2431.63,-0.783,0.000,0.000,-0.881,0.472,0.019,0.328,0.680,-0.656,2527.07,-1.119,-0.112,0.112,-0.190,0.136,0.972,0.484,0.837,-0.254,9.818,5.557,-0.153,-0.840,0.183,0.801,-0.571,10.424,-5.282,-4.763,-0.397,none
4.577096,0.829,0.503,0.244,2471.99,-0.336,-0.671,-0.671,-0.787,-0.208,-0.581,0.917,0.372,0.141,2477.58,-0.336,-0.448,-0.224,-0.811,0.114,-0.573,0.528,-0.509,-0.680,2450.00,-0.895,-0.112,-0.336,-0.869,0.488,0.084,0.329,0.682,-0.654,2520.52,-0.895,-0.224,-0.112,-0.187,0.134,0.973,0.482,0.838,-0.255,9.807,6.290,-0.519,-0.977,0.180,0.803,-0.568,10.401,-4.550,-5.053,-0.489,none
4.577187,0.830,0.500,0.245,2466.15,-0.671,-0.112,-1.567,-0.806,-0.178,-0.564,0.920,0.369,0.133,2471.14,-0.671,0.000,-1.119,-0.808,0.102,-0.580,0.536,-0.504,-0.677,2431.63,-0.895,-0.112,0.112,-0.881,0.471,0.030,0.329,0.683,-0.652,2514.64,-1.119,-0.112,0.112,-0.198,0.129,0.972,0.482,0.839,-0.252,9.819,6.046,-0.473,-1.359,0.180,0.803,-0.568,10.427,-4.794,-5.130,-0.901,none
4.580416,0.831,0.497,0.249,2464.46,-0.560,0.448,-0.560,-0.801,-0.172,-0.574,0.919,0.369,0.141,2473.88,-0.336,0.224,-0.671,-0.812,0.109,-0.573,0.538,-0.499,-0.679,2438.73,-0.895,0.560,-0.560,-0.877,0.473,0.083,0.333,0.682,-0.651,2517.95,-1.343,0.448,0.448,-0.197,0.118,0.973,0.479,0.840,-0.256,9.846,6.046,-0.611,-2.015,0.178,0.801,-0.571,10.469,-4.962,-5.450,-1.450,none
4.580543,0.830,0.500,0.249,2468.61,-0.336,0.671,0.112,-0.793,-0.196,-0.577,0.918,0.371,0.140,2486.76,-0.112,0.783,-0.112,-0.825,0.095,-0.558,0.536,-0.505,-0.677,2448.94,-0.224,0.560,-1.007,-0.881,0.472,0.042,0.333,0.686,-0.647,2518.31,-0.671,0.560,0.560,-0.196,0.129,0.972,0.483,0.836,-0.258,9.849,5.939,-0.473,-2.137,0.179,0.799,-0.574,10.491,-5.130,-5.389,-1.420,none
4.580647,0.826,0.506,0.248,2479.50,-0.448,0.783,0.112,-0.798,-0.190,-0.572,0.915,0.376,0.143,2504.67,-0.448,0.783,-0.112,-0.814,0.090,-0.574,0.544,-0.497,-0.676,2449.55,-0.336,0.895,-0.671,-0.892,0.452,0.026,0.335,0.682,-0.650,2534.65,0.224,0.783,0.671,-0.193,0.135,0.972,0.481,0.837,-0.262,9.875,6.382,-0.321,-2.183,0.177,0.802,-0.571,10.470,-4.718,-5.359,-1.466,none
4.580734,0.826,0.502,0.255,2478.41,0.112,1.119,-0.336,-0.789,-0.164,-0.592,0.918,0.369,0.147,2498.67,-0.224,0.783,-0.560,-0.815,0.102,-0.571,0.540,-0.501,-0.676,2466.47,-0.560,0.560,-1.007,-0.885,0.464,0.030,0.335,0.680,-0.652,2527.84,-0.448,0.783,0.783,-0.206,0.116,0.972,0.477,0.838,-0.263,9.870,6.397,-0.183,-2.137,0.176,0.801,-0.572,10.473,-4.672,-5.435,-1.389,none
4.580819,0.828,0.500,0.255,2486.68,0.112,1.007,-0.224,-0.784,-0.185,-0.592,0.919,0.368,0.143,2504.57,0.112,0.224,-0.224,-0.820,0.115,-0.561,0.539,-0.499,-0.679,2456.07,-0.671,0.560,-0.560,-0.900,0.435,0.009,0.334,0.680,-0.652,2541.16,-0.448,0.895,0.783,-0.196,0.127,0.972,0.482,0.838,-0.255,9.898,6.611,-0.336,-2.275,0.180,0.806,-0.564,10.486,-4.473,-5.573,-1.435,none
4.580901,0.831,0.500,0.243,2488.60,-0.448,0.671,-0.560,-0.785,-0.193,-0.589,0.920,0.369,0.135,2501.92,-0.336,1.007,-0.560,-0.800,0.098,-0.591,0.535,-0.503,-0.679,2455.72,-0.671,0.671,-0.671,-0.873,0.487,0.020,0.331,0.683,-0.651,2530.64,0.224,0.560,0.783,-0.203,0.130,0.970,0.484,0.840,-0.245,9.909,5.939,-0.183,-2.550,0.184,0.807,-0.561,10.522,-5.252,-5.328,-1.710,none
4.580984,0.836,0.496,0.235,2485.51,0.000,0.671,0.224,-0.764,-0.175,-0.620,0.924,0.361,0.128,2500.65,-0.448,0.671,0.112,-0.806,0.121,-0.579,0.534,-0.506,-0.677,2460.77,-0.336,0.560,-0.783,-0.872,0.485,0.064,0.327,0.682,-0.654,2533.88,0.336,0.448,0.671,-0.193,0.132,0.972,0.488,0.839,-0.241,9.865,4.870,0.443,-2.733,0.187,0.807,-0.561,10.483,-6.427,-4.931,-1.756,none
4.581064,0.835,0.500,0.231,2488.39,0.112,0.448,1.567,-0.780,-0.147,-0.609,0.922,0.366,0.128,2494.70,0.000,0.224,1.343,-0.813,0.085,-0.576,0.532,-0.504,-0.680,2450.92,0.671,0.224,-0.112,-0.871,0.489,0.055,0.329,0.682,-0.654,2520.52,1.343,0.000,0.112,-0.201,0.137,0.970,0.492,0.833,-0.252,9.761,4.931,0.656,-2.000,0.189,0.799,-0.570,10.396,-6.275,-4.656,-1.130,none
4.581145,0.828,0.505,0.241,2461.28,0.783,-0.560,1.007,-0.785,-0.187,-0.590,0.918,0.375,0.132,2486.84,0.560,-0.671,0.783,-0.785,0.094,-0.612,0.531,-0.507,-0.679,2455.98,0.336,-0.448,0.000,-0.869,0.485,0.098,0.332,0.677,-0.657,2494.24,1.455,-0.112,-0.112,-0.192,0.130,0.973,0.485,0.837,-0.254,9.753,5.924,0.382,-1.221,0.183,0.800,-0.571,10.348,-5.130,-4.595,-0.550,none
6.106747,0.831,0.499,0.246,2452.84,0.895,-0.112,-0.224,-0.778,-0.179,-0.603,0.920,0.366,0.137,2468.26,0.783,-0.112,-0.671,-0.808,0.103,-0.580,0.538,-0.510,-0.672,2406.03,-0.448,-0.671,-0.224,-0.886,0.462,0.044,0.330,0.677,-0.657,2506.93,-0.336,0.224,-0.224,-0.198,0.125,0.972,0.478,0.843,-0.248,9.853,6.229,0.061,-1.786,0.175,0.809,-0.562,10.414,-5.008,-4.901,-1.176,none
6.106911,0.838,0.488,0.245,2468.49,-0.448,0.671,0.112,-0.800,-0.203,-0.564,0.924,0.356,0.137,2480.42,0.112,0.560,-0.112,-0.803,0.098,-0.588,0.533,-0.513,-0.673,2446.89,-0.336,0.112,-0.783,-0.890,0.455,0.024,0.332,0.677,-0.657,2524.26,-0.560,0.560,0.224,-0.193,0.135,0.972,0.484,0.838,-0.251,9.824,5.664,-0.076,-1.252,0.185,0.803,-0.567,10.447,-5.328,-4.977,-0.656,none
6.107005,0.827,0.507,0.243,2489.87,-0.112,0.000,-0.224,-0.792,-0.186,-0.582,0.919,0.372,0.131,2504.29,0.112,-0.448,-0.560,-0.805,0.109,-0.583,0.532,-0.509,-0.676,2465.85,-1.007,0.224,-0.336,-0.883,0.460,0.095,0.333,0.679,-0.655,2517.70,-1.007,0.000,0.112,-0.186,0.132,0.974,0.491,0.833,-0.255,9.827,6.565,-0.321,-0.595,0.190,0.797,-0.573,10.451,-4.336,-4.733,-0.214,none
6.107099,0.827,0.506,0.244,2477.04,-0.783,-0.224,-1.790,-0.792,-0.166,-0.587,0.915,0.382,0.132,2495.32,-0.448,0.000,-1.455,-0.806,0.104,-0.583,0.536,-0.493,-0.685,2448.09,-1.343,-0.560,0.336,-0.868,0.485,0.106,0.328,0.685,-0.650,2521.49,-1.790,0.112,-0.336,-0.209,0.119,0.971,0.485,0.837,-0.253,9.784,6.702,0.489,-0.718,0.183,0.802,-0.569,10.382,-4.382,-3.985,-0.443,none
6.107192,0.831,0.504,0.237,2467.18,0.560,0.112,-1.679,-0.795,-0.177,-0.580,0.920,0.369,0.133,2471.14,1.455,0.224,-1.455,-0.805,0.092,-0.586,0.539,-0.503,-0.676,2421.01,-0.671,-0.895,-0.671,-0.884,0.466,0.028,0.326,0.684,-0.652,2512.05,-1.567,0.560,-0.448,-0.199,0.130,0.971,0.475,0.845,-0.247,9.777,6.718,0.382,-1.649,0.170,0.809,-0.563,10.356,-4.687,-4.290,-1.420,none
6.107276,0.835,0.489,0.251,2441.83,0.560,0.560,-1.119,-0.779,-0.176,-0.602,0.922,0.360,0.142,2453.19,0.560,0.224,-0.895,-0.813,0.096,-0.574,0.543,-0.507,-0.669,2400.82,0.000,0.000,-0.671,-0.872,0.486,0.057,0.329,0.680,-0.655,2514.39,-0.336,0.560,-0.112,-0.214,0.120,0.969,0.470,0.846,-0.251,9.805,6.000,-0.031,-3.023,0.168,0.808,-0.565,10.410,-5.328,-4.809,-2.565,none
6.107359,0.837,0.486,0.254,2461.07,-0.224,2.014,0.895,-0.793,-0.188,-0.579,0.924,0.355,0.146,2460.14,0.112,1.231,0.224,-0.824,0.101,-0.558,0.542,-0.507,-0.670,2440.19,0.560,1.455,-1.231,-0.882,0.462,0.086,0.336,0.674,-0.658,2520.85,0.336,1.343,1.119,-0.191,0.132,0.973,0.483,0.835,-0.266,9.845,6.046,-0.992,-2.458,0.181,0.796,-0.577,10.485,-4.947,-5.420,-1.863,none
6.107441,0.825,0.506,0.250,2493.97,-1.567,1.455,-0.336,-0.789,-0.174,-0.589,0.918,0.373,0.134,2527.71,-1.455,1.455,-0.671,-0.805,0.109,-0.583,0.530,-0.499,-0.685,2515.27,-1.343,1.790,-1.790,-0.865,0.492,0.094,0.338,0.674,-0.657,2537.19,-2.014,1.007,0.895,-0.213,0.124,0.969,0.491,0.829,-0.267,9.910,7.573,-0.840,-0.366,0.190,0.793,-0.579,10.572,-3.038,-4.885,-0.076,none
6.108585,0.821,0.517,0.244,2520.20,-0.783,0.671,-3.245,-0.789,-0.166,-0.592,0.913,0.386,0.129,2541.19,-1.119,0.448,-2.126,-0.802,0.080,-0.592,0.535,-0.499,-0.682,2474.67,-2.798,-0.671,-0.783,-0.873,0.482,0.070,0.341,0.684,-0.645,2542.07,-3.693,0.336,-0.336,-0.190,0.132,0.973,0.486,0.838,-0.250,9.979,7.863,-0.168,0.366,0.186,0.803,-0.566,10.546,-2.824,-4.290,0.580,none
6.108682,0.828,0.502,0.250,2497.70,0.224,0.448,-3.245,-0.775,-0.179,-0.607,0.920,0.367,0.135,2511.12,0.783,-1.231,-2.574,-0.810,0.108,-0.577,0.541,-0.497,-0.678,2427.64,-2.574,-1.567,0.000,-0.871,0.486,0.079,0.338,0.685,-0.646,2538.68,-2.462,-0.336,-1.007,-0.197,0.140,0.970,0.475,0.844,-0.248,9.938,6.321,0.794,-0.260,0.172,0.809,-0.562,10.495,-4.702,-4.000,0.092,none
6.108765,0.836,0.487,0.252,2474.30,-0.112,-0.224,-0.895,-0.784,-0.170,-0.596,0.924,0.354,0.145,2469.38,0.560,-0.671,-0.448,-0.819,0.120,-0.561,0.547,-0.498,-0.673,2402.39,-0.336,-1.343,0.336,-0.871,0.481,0.102,0.333,0.686,-0.647,2518.31,-0.112,-0.560,-0.560,-0.197,0.124,0.973,0.478,0.840,-0.255,9.798,4.977,0.504,-1.985,0.174,0.802,-0.572,10.392,-6.229,-4.626,-1.282,none
6.108847,0.832,0.492,0.255,2448.44,-0.560,-0.224,0.783,-0.778,-0.179,-0.603,0.917,0.372,0.142,2454.60,-0.336,-0.560,0.671,-0.812,0.103,-0.574,0.537,-0.501,-0.678,2427.78,0.783,0.112,0.000,-0.884,0.465,0.053,0.334,0.680,-0.653,2511.82,1.119,-0.560,-0.112,-0.205,0.121,0.971,0.485,0.834,-0.261,9.740,5.435,-0.015,-2.519,0.182,0.798,-0.575,10.334,-5.725,-5.191,-1.710,none
6.109395,0.823,0.510,0.252,2440.61,-0.783,0.112,0.895,-0.788,-0.177,-0.589,0.914,0.380,0.142,2452.96,-0.224,0.560,0.560,-0.818,0.090,-0.568,0.539,-0.491,-0.684,2436.32,0.224,0.671,0.224,-0.894,0.447,0.037,0.329,0.683,-0.652,2514.64,0.560,0.336,0.560,-0.196,0.113,0.974,0.488,0.833,-0.263,9.798,6.473,-0.076,-2.443,0.185,0.796,-0.576,10.399,-4.626,-5.084,-1.878,none
6.109511,0.826,0.508,0.245,2467.95,-0.112,1.679,-0.112,-0.785,-0.187,-0.590,0.915,0.379,0.136,2483.71,0.000,1.455,-0.671,-0.820,0.083,-0.567,0.536,-0.500,-0.680,2450.70,-0.448,0.448,-1.231,-0.895,0.443,0.061,0.333,0.682,-0.651,2517.95,-0.112,1.343,0.336,-0.200,0.126,0.972,0.481,0.839,-0.256,9.868,6.870,0.061,-2.382,0.179,0.801,-0.571,10.454,-4.305,-4.992,-1.832,none
6.109629,0.829,0.499,0.252,2471.95,0.112,1.902,-0.448,-0.801,-0.190,-0.568,0.922,0.363,0.136,2486.68,-0.224,1.119,-0.560,-0.813,0.120,-0.570,0.536,-0.500,-0.680,2450.70,-0.560,0.560,-1.007,-0.886,0.462,0.044,0.330,0.685,-0.649,2537.48,-0.671,1.231,0.448,-0.200,0.132,0.971,0.483,0.839,-0.251,9.923,6.183,0.260,-2.489,0.184,0.804,-0.565,10.572,-4.977,-4.931,-1.786,none
6.109748,0.828,0.506,0.242,2498.15,-0.336,0.895,0.448,-0.787,-0.206,-0.581,0.918,0.372,0.135,2504.70,-0.448,0.895,-0.336,-0.805,0.114,-0.583,0.539,-0.499,-0.679,2456.07,-0.224,0.895,-0.895,-0.892,0.450,0.045,0.336,0.682,-0.650,2550.99,-0.671,1.007,0.560,-0.203,0.113,0.973,0.489,0.832,-0.260,9.941,6.122,0.214,-2.397,0.187,0.797,-0.575,10.564,-5.130,-4.595,-1.740,none
6.110676,0.827,0.507,0.244,2512.26,-0.224,0.671,0.224,-0.785,-0.180,-0.593,0.917,0.378,0.131,2520.05,0.112,0.560,0.000,-0.825,0.107,-0.555,0.533,-0.502,-0.682,2484.45,-0.112,0.112,-1.231,-0.911,0.413,0.021,0.334,0.684,-0.648,2541.48,-0.448,0.560,0.336,-0.194,0.131,0.972,0.496,0.830,-0.255,9.901,6.000,0.931,-1.435,0.196,0.798,-0.570,10.516,-5.237,-3.756,-0.855,none
6.110778,0.828,0.510,0.234,2497.64,0.783,0.112,-0.560,-0.781,-0.195,-0.593,0.918,0.376,0.126,2528.85,0.783,0.448,-0.448,-0.818,0.095,-0.567,0.535,-0.495,-0.685,2474.48,-0.448,-1.119,-0.224,-0.875,0.483,0.040,0.336,0.685,-0.646,2522.34,-0.224,-0.112,-1.119,-0.209,0.119,0.971,0.483,0.836,-0.260,9.793,6.061,1.542,-0.336,0.183,0.799,-0.573,10.415,-4.901,-3.344,0.092,none
6.110865,0.827,0.505,0.249,2465.36,1.343,-0.448,-0.895,-0.760,-0.213,-0.614,0.917,0.372,0.141,2477.58,1.231,-0.895,-1.343,-0.796,0.091,-0.598,0.536,-0.504,-0.677,2431.63,-0.560,-2.014,-0.336,-0.889,0.456,0.034,0.334,0.680,-0.653,2511.82,-0.560,0.000,-1.567,-0.200,0.135,0.970,0.471,0.844,-0.258,9.727,6.687,0.962,-0.504,0.168,0.803,-0.572,10.352,-4.366,-3.817,-0.061,none
6.110950,0.832,0.490,0.260,2438.35,0.895,0.112,-1.567,-0.791,-0.181,-0.585,0.920,0.361,0.150,2447.68,0.560,-0.224,-1.567,-0.810,0.108,-0.577,0.543,-0.507,-0.669,2400.82,-0.895,-1.567,-0.448,-0.886,0.456,0.089,0.335,0.678,-0.654,2504.35,-0.448,0.336,-0.560,-0.199,0.122,0.972,0.467,0.848,-0.249,9.781,6.489,0.275,-1.893,0.165,0.810,-0.562,10.357,-4.687,-4.565,-1.420,none
6.112556,0.837,0.483,0.256,2433.81,-0.112,1.231,-0.336,-0.777,-0.192,-0.600,0.924,0.357,0.138,2448.20,0.000,0.783,-0.336,-0.815,0.102,-0.571,0.540,-0.508,-0.671,2394.74,-0.112,0.000,-0.560,-0.902,0.432,0.020,0.334,0.680,-0.653,2511.82,0.336,0.671,0.560,-0.202,0.119,0.972,0.482,0.840,-0.249,9.811,5.588,-0.031,-3.084,0.182,0.805,-0.565,10.387,-5.695,-5.023,-2.366,none
6.112682,0.832,0.503,0.236,2475.49,-0.336,1.119,1.007,-0.764,-0.189,-0.616,0.920,0.366,0.136,2489.97,-0.336,0.895,1.119,-0.795,0.110,-0.597,0.535,-0.503,-0.679,2455.72,0.671,1.231,-0.783,-0.877,0.475,0.075,0.333,0.679,-0.655,2517.70,1.007,0.560,0.671,-0.202,0.118,0.972,0.486,0.835,-0.259,9.829,5.725,0.061,-2.260,0.185,0.797,-0.575,10.445,-5.359,-4.733,-1.634,none
6.112774,0.827,0.507,0.243,2489.87,-0.448,0.783,0.336,-0.772,-0.177,-0.610,0.917,0.376,0.131,2508.03,-0.112,0.671,0.224,-0.812,0.126,-0.570,0.530,-0.503,-0.683,2479.14,-0.112,0.448,-0.671,-0.877,0.473,0.083,0.335,0.680,-0.652,2527.84,-0.671,0.560,0.336,-0.200,0.126,0.972,0.483,0.837,-0.257,9.880,6.473,-0.427,-1.588,0.181,0.801,-0.570,10.534,-4.595,-5.038,-1.069,none
6.112859,0.828,0.501,0.251,2484.41,-0.448,0.560,-0.783,-0.785,-0.187,-0.590,0.920,0.367,0.135,2511.12,-0.671,0.448,-0.671,-0.806,0.104,-0.583,0.538,-0.502,-0.677,2461.08,-0.560,-0.224,0.336,-0.872,0.482,0.079,0.333,0.683,-0.651,2547.98,-1.007,0.112,0.112,-0.204,0.128,0.971,0.484,0.838,-0.250,9.917,5.802,-0.015,-1.725,0.181,0.805,-0.565,10.555,-5.389,-4.840,-1.115,none
6.113362,0.832,0.502,0.238,2497.86,0.000,0.224,0.560,-0.784,-0.170,-0.596,0.920,0.369,0.132,2499.67,-0.336,0.000,0.560,-0.808,0.103,-0.580,0.536,-0.496,-0.683,2469.69,0.224,0.224,0.000,-0.888,0.458,-0.029,0.330,0.685,-0.649,2537.48,0.783,-0.448,0.000,-0.206,0.117,0.972,0.489,0.834,-0.257,9.884,5.145,0.290,-1.359,0.188,0.799,-0.571,10.503,-5.969,-4.473,-0.672,none
6.113449,0.827,0.507,0.243,2489.87,0.112,-0.448,0.336,-0.784,-0.191,-0.591,0.918,0.374,0.131,2517.21,-0.112,-0.783,0.224,-0.815,0.083,-0.574,0.530,-0.507,-0.680,2479.41,-0.112,-0.783,0.336,-0.890,0.453,0.049,0.335,0.682,-0.650,2534.65,0.000,-0.671,-0.448,-0.216,0.122,0.969,0.484,0.835,-0.262,9.840,5.786,0.000,-0.153,0.179,0.798,-0.575,10.457,-5.008,-4.550,0.382,none
6.113537,0.825,0.508,0.249,2470.42,0.112,-0.783,-1.007,-0.780,-0.192,-0.595,0.917,0.372,0.141,2477.58,-0.112,-1.231,-0.895,-0.804,0.097,-0.586,0.539,-0.492,-0.684,2453.47,-0.783,-1.679,1.119,-0.881,0.471,0.030,0.333,0.686,-0.647,2518.31,-1.119,-0.560,-0.560,-0.200,0.125,0.972,0.480,0.839,-0.257,9.800,5.130,0.137,-0.366,0.177,0.804,-0.568,10.388,-5.878,-4.595,0.168,none
6.113651,0.824,0.504,0.259,2448.63,0.336,-1.343,0.000,-0.758,-0.150,-0.635,0.917,0.371,0.146,2456.81,0.336,-1.231,0.224,-0.793,0.104,-0.600,0.546,-0.489,-0.680,2406.05,0.000,-0.336,0.224,-0.881,0.454,0.132,0.331,0.687,-0.647,2502.34,-0.112,-0.560,-0.448,-0.199,0.120,0.973,0.481,0.835,-0.267,9.711,5.252,0.321,-1.511,0.180,0.794,-0.580,10.302,-5.878,-4.718,-0.931,none
6.114295,0.822,0.507,0.260,2432.99,0.224,0.448,0.000,-0.771,-0.191,-0.608,0.912,0.381,0.150,2446.60,0.448,0.895,-0.112,-0.817,0.083,-0.570,0.538,-0.494,-0.683,2424.64,0.224,0.224,-0.336,-0.884,0.461,0.079,0.331,0.683,-0.651,2501.98,0.000,0.448,0.448,-0.211,0.118,0.970,0.479,0.839,-0.259,9.774,6.427,-0.107,-2.870,0.176,0.801,-0.572,10.377,-4.870,-5.130,-2.382,none
6.114403,0.835,0.494,0.244,2478.66,-0.336,1.679,0.336,-0.782,-0.183,-0.596,0.921,0.365,0.132,2495.99,-0.448,1.902,0.224,-0.807,0.115,-0.579,0.536,-0.500,-0.680,2450.70,0.224,1.343,-1.231,-0.881,0.472,0.019,0.335,0.682,-0.650,2534.65,0.224,1.119,1.119,-0.209,0.120,0.970,0.487,0.835,-0.255,9.900,5.573,-0.321,-2.855,0.185,0.800,-0.570,10.534,-5.634,-5.374,-2.092,none
6.114489,0.827,0.507,0.244,2512.26,-0.448,0.783,1.119,-0.761,-0.184,-0.623,0.917,0.374,0.138,2519.90,0.112,1.231,0.671,-0.806,0.085,-0.586,0.535,-0.500,-0.680,2489.79,0.336,1.231,-0.895,-0.875,0.479,0.077,0.336,0.682,-0.650,2550.99,0.560,1.119,1.007,-0.196,0.135,0.971,0.485,0.835,-0.260,9.963,5.725,-0.183,-2.290,0.182,0.798,-0.574,10.578,-5.359,-5.160,-1.634,none
6.114574,0.828,0.503,0.249,2509.68,-0.112,0.560,0.224,-0.776,-0.178,-0.605,0.919,0.371,0.134,2536.90,-0.448,0.671,0.224,-0.808,0.103,-0.580,0.536,-0.497,-0.682,2484.80,0.000,0.560,-0.112,-0.878,0.475,0.060,0.336,0.685,-0.646,2549.97,0.560,0.224,0.560,-0.200,0.125,0.972,0.488,0.835,-0.256,9.978,5.679,0.122,-1.725,0.187,0.800,-0.570,10.576,-5.481,-4.763,-1.023,none
6.116835,0.829,0.508,0.233,2505.10,-0.448,0.000,-0.112,-0.782,-0.207,-0.587,0.917,0.378,0.131,2520.05,-0.336,0.000,-0.112,-0.810,0.091,-0.579,0.537,-0.498,-0.680,2480.03,0.000,-0.560,0.448,-0.879,0.473,0.054,0.337,0.687,-0.644,2544.17,0.112,0.000,-0.112,-0.214,0.126,0.969,0.486,0.835,-0.258,9.907,5.115,1.008,-1.176,0.181,0.800,-0.572,10.512,-6.076,-4.153,-0.489,none
6.116953,0.828,0.501,0.251,2484.41,1.007,-0.895,0.224,-0.775,-0.199,-0.600,0.919,0.369,0.140,2495.94,0.783,-1.007,0.224,-0.809,0.085,-0.582,0.539,-0.499,-0.679,2456.07,0.336,-0.671,0.448,-0.876,0.475,0.080,0.332,0.684,-0.649,2524.79,0.448,-0.448,-0.783,-0.197,0.131,0.971,0.476,0.841,-0.255,9.808,5.069,0.794,-1.130,0.177,0.802,-0.570,10.417,-6.122,-4.351,-0.443,none
6.117041,0.831,0.497,0.249,2464.46,0.671,-0.671,0.336,-0.772,-0.186,-0.608,0.920,0.366,0.141,2470.57,0.895,-0.783,0.224,-0.810,0.092,-0.579,0.540,-0.505,-0.673,2429.72,0.560,-0.895,0.671,-0.876,0.474,0.094,0.334,0.680,-0.653,2511.82,1.007,-0.783,-0.448,-0.203,0.126,0.971,0.476,0.842,-0.256,9.764,5.145,0.305,-1.237,0.173,0.805,-0.567,10.367,-5.924,-4.763,-0.489,none
6.117125,0.832,0.492,0.255,2448.44,0.112,-0.560,0.112,-0.772,-0.186,-0.608,0.921,0.363,0.142,2457.73,0.000,-0.448,0.112,-0.822,0.102,-0.560,0.538,-0.506,-0.675,2424.87,0.336,-0.560,0.448,-0.874,0.482,0.067,0.334,0.680,-0.653,2511.82,0.560,-0.560,0.000,-0.211,0.118,0.970,0.479,0.840,-0.256,9.763,4.916,-0.031,-1.450,0.176,0.801,-0.572,10.378,-6.092,-5.069,-0.641,none
6.118380,0.823,0.507,0.254,2452.20,0.224,-0.448,0.560,-0.799,-0.206,-0.564,0.919,0.369,0.141,2473.88,-0.448,-0.448,0.448,-0.785,0.126,-0.606,0.536,-0.500,-0.680,2433.89,-0.112,0.448,0.000,-0.867,0.486,0.113,0.334,0.684,-0.649,2511.46,-0.112,0.000,0.336,-0.203,0.124,0.971,0.483,0.836,-0.260,9.779,5.481,-0.015,-1.466,0.183,0.800,-0.572,10.380,-5.588,-4.962,-0.809,none
6.118475,0.829,0.502,0.246,2458.68,0.112,-0.112,-0.112,-0.771,-0.199,-0.605,0.919,0.369,0.137,2471.57,0.224,0.000,-0.224,-0.822,0.095,-0.561,0.538,-0.495,-0.683,2440.57,-0.336,-0.112,0.000,-0.871,0.481,0.102,0.330,0.685,-0.649,2508.14,-0.448,-0.112,0.000,-0.195,0.132,0.972,0.484,0.837,-0.255,9.770,6.046,0.061,-1.496,0.181,0.801,-0.570,10.394,-5.115,-4.702,-1.069,none
6.118563,0.830,0.503,0.242,2455.41,-0.560,-0.112,-0.560,-0.781,-0.180,-0.598,0.918,0.372,0.137,2475.28,0.336,0.448,-0.112,-0.804,0.103,-0.586,0.536,-0.504,-0.677,2431.63,-0.448,-0.448,-0.560,-0.881,0.467,0.069,0.330,0.681,-0.653,2508.50,0.000,0.112,-0.224,-0.212,0.124,0.969,0.483,0.838,-0.253,9.780,5.771,0.137,-1.649,0.181,0.803,-0.568,10.383,-5.405,-4.580,-1.160,none
6.118651,0.831,0.497,0.249,2464.46,-0.224,0.224,0.112,-0.782,-0.189,-0.594,0.921,0.364,0.137,2477.47,0.112,0.112,-0.112,-0.811,0.103,-0.576,0.535,-0.503,-0.679,2439.09,-0.224,-0.112,-0.560,-0.898,0.436,0.054,0.332,0.681,-0.653,2523.82,-0.112,0.448,0.336,-0.204,0.126,0.971,0.479,0.839,-0.257,9.816,5.710,-0.427,-1.802,0.177,0.800,-0.574,10.422,-5.313,-5.221,-1.176,none
6.119471,0.823,0.506,0.256,2476.03,-0.336,0.336,-0.112,-0.790,-0.198,-0.580,0.914,0.379,0.144,2486.37,-0.895,0.336,-0.336,-0.817,0.120,-0.564,0.544,-0.492,-0.680,2451.39,-0.671,0.671,-0.671,-0.882,0.463,0.083,0.335,0.684,-0.648,2528.81,-0.671,0.895,0.895,-0.202,0.124,0.972,0.484,0.835,-0.263,9.882,6.672,-0.443,-1.679,0.180,0.796,-0.577,10.504,-4.336,-5.008,-1.252,none
6.119558,0.822,0.511,0.250,2491.65,-0.448,1.231,-0.560,-0.784,-0.196,-0.588,0.916,0.379,0.135,2513.13,-0.560,0.783,-0.895,-0.799,0.111,-0.591,0.537,-0.490,-0.687,2482.94,-0.783,0.783,-0.895,-0.891,0.444,0.092,0.338,0.685,-0.646,2538.68,-0.448,0.895,0.560,-0.202,0.124,0.972,0.489,0.833,-0.260,9.905,7.099,-0.092,-1.237,0.184,0.796,-0.576,10.525,-3.847,-4.565,-0.870,none
6.119647,0.821,0.514,0.250,2496.77,-0.224,1.119,-1.343,-0.767,-0.198,-0.611,0.917,0.374,0.138,2519.90,0.224,0.560,-1.343,-0.801,0.110,-0.588,0.534,-0.498,-0.683,2479.45,-1.119,-0.448,-1.343,-0.887,0.451,0.099,0.333,0.683,-0.651,2547.98,-1.119,1.007,0.112,-0.212,0.123,0.969,0.485,0.836,-0.258,9.894,7.160,0.183,-1.115,0.183,0.800,-0.571,10.559,-3.710,-4.076,-0.763,none
6.119730,0.832,0.499,0.242,2494.42,0.448,1.231,-1.902,-0.772,-0.170,-0.613,0.919,0.371,0.135,2513.89,0.336,0.560,-1.902,-0.815,0.083,-0.574,0.535,-0.504,-0.678,2472.21,-1.231,-0.560,-0.895,-0.881,0.472,0.042,0.338,0.681,-0.649,2537.67,-1.455,0.671,-0.336,-0.204,0.115,0.972,0.479,0.840,-0.254,9.897,6.595,-0.046,-0.718,0.181,0.805,-0.565,10.506,-4.321,-4.534,-0.244,none
6.120510,0.832,0.497,0.247,2485.23,0.000,0.112,-1.679,-0.773,-0.187,-0.607,0.920,0.366,0.140,2492.27,0.112,0.000,-1.455,-0.807,0.098,-0.583,0.536,-0.505,-0.677,2448.94,-1.007,-0.783,-0.112,-0.886,0.457,0.076,0.334,0.684,-0.648,2541.48,-1.007,0.112,-0.112,-0.202,0.124,0.972,0.482,0.837,-0.260,9.903,5.847,0.015,-0.733,0.179,0.800,-0.572,10.497,-5.008,-4.595,-0.137,none
6.120604,0.828,0.504,0.247,2487.77,0.000,0.000,-0.671,-0.759,-0.183,-0.625,0.919,0.368,0.139,2502.38,-0.336,-0.448,-0.895,-0.810,0.091,-0.579,0.537,-0.494,-0.684,2464.55,-1.231,0.000,0.336,-0.882,0.467,0.062,0.334,0.686,-0.646,2535.66,-0.895,-0.224,-0.112,-0.212,0.124,0.969,0.486,0.836,-0.256,9.895,5.893,-0.076,-0.733,0.186,0.799,-0.572,10.502,-5.099,-4.718,-0.122,none
6.120686,0.824,0.510,0.246,2496.58,-0.560,-0.560,-0.671,-0.767,-0.207,-0.607,0.916,0.376,0.135,2502.03,-0.336,-0.671,-0.560,-0.801,0.110,-0.588,0.533,-0.497,-0.685,2464.35,-0.671,-0.671,0.112,-0.886,0.462,0.044,0.334,0.686,-0.646,2535.66,-0.783,-0.448,-0.224,-0.204,0.125,0.971,0.486,0.836,-0.254,9.893,5.435,0.305,-0.641,0.185,0.800,-0.570,10.536,-5.618,-4.412,-0.061,none
6.120767,0.831,0.500,0.243,2488.60,0.783,-0.448,-0.448,-0.752,-0.183,-0.634,0.920,0.370,0.132,2493.23,0.448,-0.448,-0.448,-0.804,0.121,-0.582,0.537,-0.498,-0.681,2445.53,-0.336,-1.119,0.560,-0.881,0.458,0.122,0.338,0.685,-0.646,2538.68,-0.336,-0.671,-0.448,-0.210,0.111,0.971,0.483,0.837,-0.256,9.870,4.840,0.718,-0.412,0.182,0.802,-0.569,10.461,-6.366,-4.275,0.275,none
6.121725,0.827,0.502,0.252,2476.13,0.560,-1.119,0.112,-0.762,-0.160,-0.627,0.918,0.372,0.137,2475.28,0.224,-1.679,0.336,-0.816,0.077,-0.573,0.537,-0.498,-0.681,2445.53,0.112,-1.119,1.343,-0.893,0.444,0.080,0.336,0.685,-0.646,2522.34,0.448,-1.119,-1.007,-0.199,0.122,0.972,0.486,0.834,-0.262,9.789,4.443,0.824,-0.595,0.180,0.797,-0.577,10.400,-6.626,-4.244,0.107,none
6.121841,0.825,0.509,0.247,2446.36,0.783,-1.119,0.448,-0.787,-0.184,-0.588,0.915,0.379,0.138,2460.70,0.336,-1.343,0.448,-0.814,0.095,-0.574,0.542,-0.490,-0.683,2423.90,0.336,-0.783,1.343,-0.876,0.468,0.116,0.331,0.687,-0.647,2502.34,0.224,-1.007,-0.671,-0.201,0.128,0.971,0.483,0.833,-0.269,9.701,5.313,0.718,-0.733,0.180,0.791,-0.584,10.360,-5.786,-4.168,-0.153,none
6.123298,0.824,0.506,0.256,2438.07,0.448,-0.671,-0.224,-0.772,-0.193,-0.606,0.914,0.380,0.146,2455.17,0.895,-0.112,-0.671,-0.807,0.095,-0.583,0.538,-0.498,-0.680,2422.78,-0.112,-0.671,0.000,-0.885,0.461,0.074,0.334,0.684,-0.649,2511.46,-0.112,0.000,-0.448,-0.195,0.134,0.972,0.480,0.840,-0.255,9.758,6.046,0.198,-1.557,0.178,0.803,-0.569,10.347,-5.130,-4.534,-0.977,none
6.123387,0.832,0.497,0.245,2461.99,0.224,0.448,-0.336,-0.797,-0.182,-0.576,0.921,0.364,0.137,2477.47,0.224,0.448,-0.112,-0.816,0.090,-0.571,0.537,-0.501,-0.678,2427.78,-0.112,-0.112,-0.560,-0.891,0.453,0.028,0.330,0.685,-0.649,2508.14,0.448,0.000,0.000,-0.208,0.125,0.970,0.483,0.838,-0.254,9.821,5.130,0.244,-2.092,0.181,0.803,-0.568,10.437,-6.214,-4.641,-1.511,none
6.124990,0.830,0.500,0.245,2466.15,0.224,0.000,0.895,-0.759,-0.183,-0.625,0.920,0.368,0.137,2480.76,0.000,0.336,0.671,-0.810,0.086,-0.580,0.536,-0.500,-0.680,2433.89,0.112,0.000,-0.448,-0.897,0.438,0.056,0.333,0.682,-0.651,2517.95,0.448,0.224,0.224,-0.201,0.124,0.972,0.484,0.836,-0.258,9.806,4.931,0.260,-1.893,0.181,0.799,-0.573,10.426,-6.198,-4.641,-1.252,none
6.125076,0.825,0.508,0.249,2470.42,0.336,-0.224,0.671,-0.764,-0.177,-0.620,0.917,0.374,0.136,2489.10,0.000,-0.112,0.560,-0.806,0.103,-0.583,0.533,-0.497,-0.685,2464.35,0.336,0.112,-0.224,-0.881,0.462,0.104,0.330,0.681,-0.653,2508.50,0.560,0.000,0.224,-0.208,0.121,0.971,0.483,0.836,-0.260,9.812,5.756,0.214,-1.664,0.181,0.797,-0.576,10.423,-5.328,-4.626,-1.130,none
6.125159,0.825,0.508,0.249,2470.42,0.224,0.112,-0.336,-0.763,-0.188,-0.619,0.919,0.371,0.136,2484.46,0.448,0.112,-0.336,-0.805,0.092,-0.586,0.536,-0.500,-0.680,2450.70,-0.336,-0.112,-0.671,-0.882,0.469,0.044,0.333,0.679,-0.655,2517.70,0.112,0.560,0.224,-0.203,0.125,0.971,0.477,0.841,-0.255,9.825,6.046,-0.260,-1.435,0.174,0.804,-0.568,10.452,-4.947,-5.023,-0.840,none
6.129508,0.835,0.490,0.252,2477.86,0.224,0.224,-0.671,-0.777,-0.202,-0.597,0.923,0.359,0.140,2485.38,-0.112,0.224,-0.783,-0.820,0.102,-0.564,0.536,-0.500,-0.680,2450.70,-0.448,0.000,-0.336,-0.902,0.429,0.057,0.339,0.685,-0.645,2525.38,-0.671,0.783,0.224,-0.192,0.125,0.973,0.481,0.841,-0.250,9.911,4.779,-0.550,-1.511,0.180,0.806,-0.564,10.454,-6.275,-5.466,-0.656,none
6.129624,0.832,0.497,0.247,2485.23,0.112,-0.112,0.671,-0.773,-0.178,-0.609,0.916,0.378,0.136,2492.86,-1.119,-0.448,0.671,-0.797,0.094,-0.596,0.543,-0.492,-0.681,2434.91,-0.112,0.448,0.560,-0.877,0.470,0.103,0.339,0.688,-0.641,2525.12,0.112,0.224,0.560,-0.209,0.120,0.970,0.488,0.831,-0.268,9.827,3.985,-0.137,-1.649,0.184,0.791,-0.584,10.453,-7.099,-5.313,-0.626,none
6.129713,0.818,0.516,0.253,2466.22,-0.336,-1.119,1.119,-0.759,-0.183,-0.625,0.910,0.390,0.140,2487.13,-0.783,-0.783,1.231,-0.812,0.091,-0.577,0.540,-0.480,-0.691,2451.26,0.000,0.560,0.448,-0.885,0.459,0.082,0.336,0.689,-0.642,2522.08,0.671,-0.112,0.448,-0.205,0.121,0.971,0.491,0.826,-0.278,9.788,5.145,0.656,-1.908,0.185,0.786,-0.590,10.404,-6.107,-4.427,-1.221,none
6.129797,0.808,0.530,0.257,2460.61,0.224,0.000,0.448,-0.774,-0.180,-0.607,0.907,0.397,0.141,2472.90,0.560,0.112,0.448,-0.810,0.108,-0.577,0.541,-0.481,-0.690,2445.05,0.895,-0.112,-0.671,-0.902,0.426,0.072,0.329,0.691,-0.643,2516.12,0.671,0.336,-0.336,-0.200,0.133,0.971,0.485,0.834,-0.263,9.774,6.748,1.099,-2.916,0.183,0.797,-0.576,10.417,-4.931,-4.107,-2.534,none
6.130254,0.826,0.507,0.246,2455.44,0.336,1.455,0.112,-0.789,-0.205,-0.579,0.918,0.374,0.133,2465.66,1.007,1.343,0.000,-0.798,0.092,-0.595,0.538,-0.494,-0.683,2424.64,1.231,-0.448,-1.231,-0.883,0.459,0.093,0.328,0.685,-0.650,2521.49,1.119,1.007,-0.224,-0.207,0.125,0.970,0.489,0.835,-0.252,9.813,6.840,0.779,-3.023,0.187,0.803,-0.566,10.419,-4.840,-4.198,-2.687,none
6.130346,0.831,0.501,0.241,2464.55,0.448,1.790,0.448,-0.792,-0.212,-0.573,0.919,0.371,0.132,2484.03,0.895,1.567,0.000,-0.799,0.111,-0.591,0.527,-0.512,-0.679,2455.10,1.007,0.560,-2.238,-0.870,0.480,0.117,0.325,0.679,-0.659,2517.01,1.119,1.455,-0.224,-0.208,0.121,0.971,0.483,0.838,-0.255,9.815,7.191,0.641,-2.565,0.185,0.803,-0.567,10.395,-4.229,-4.382,-2.260,none
6.130430,0.837,0.491,0.240,2470.48,0.783,1.902,-0.895,-0.798,-0.153,-0.583,0.924,0.359,0.132,2489.11,0.560,1.567,-1.343,-0.811,0.109,-0.575,0.525,-0.510,-0.681,2462.58,-0.336,0.000,-1.567,-0.889,0.454,0.065,0.328,0.676,-0.660,2526.87,-0.895,1.567,0.336,-0.216,0.112,0.970,0.478,0.842,-0.249,9.862,7.160,-0.473,-1.832,0.179,0.807,-0.563,10.452,-3.939,-5.145,-1.405,none
6.130512,0.835,0.496,0.239,2487.04,-0.112,1.007,-1.119,-0.788,-0.189,-0.586,0.924,0.358,0.136,2491.38,-0.224,0.783,-1.007,-0.803,0.108,-0.586,0.537,-0.502,-0.678,2443.91,-1.231,0.560,-0.783,-0.884,0.465,0.047,0.339,0.679,-0.651,2530.87,-2.014,1.231,0.560,-0.194,0.121,0.973,0.478,0.838,-0.262,9.879,6.107,-0.611,-1.160,0.175,0.799,-0.575,10.492,-4.733,-5.344,-0.550,none
6.130600,0.824,0.504,0.259,2486.01,-0.671,0.000,-0.671,-0.786,-0.213,-0.581,0.917,0.373,0.143,2500.93,-0.671,0.000,-0.783,-0.810,0.108,-0.577,0.540,-0.493,-0.683,2469.93,-1.007,0.895,-0.336,-0.883,0.450,0.129,0.338,0.687,-0.643,2532.23,-1.679,0.671,0.448,-0.207,0.128,0.970,0.480,0.836,-0.267,9.866,6.336,-0.534,-1.435,0.178,0.796,-0.579,10.479,-4.595,-5.206,-0.931,none
6.130695,0.822,0.509,0.255,2480.60,0.112,0.671,-1.007,-0.772,-0.210,-0.600,0.913,0.382,0.144,2489.27,-0.448,0.000,-0.560,-0.804,0.097,-0.586,0.540,-0.489,-0.685,2447.88,-0.224,0.224,0.000,-0.877,0.473,0.083,0.335,0.688,-0.644,2529.20,-0.448,0.560,0.448,-0.201,0.129,0.971,0.488,0.833,-0.261,9.847,6.550,0.000,-1.679,0.185,0.794,-0.580,10.481,-4.595,-4.504,-1.344,none
6.130775,0.820,0.514,0.252,2475.23,-0.112,0.783,-0.560,-0.759,-0.206,-0.617,0.912,0.386,0.136,2490.45,0.671,0.895,-0.448,-0.810,0.126,-0.573,0.539,-0.487,-0.687,2455.42,0.224,0.224,-1.567,-0.894,0.440,0.088,0.332,0.688,-0.645,2525.18,0.112,0.895,0.000,-0.202,0.113,0.973,0.486,0.832,-0.267,9.799,6.962,0.198,-1.786,0.184,0.795,-0.577,10.405,-4.153,-4.198,-1.557,none
6.130855,0.824,0.507,0.252,2473.74,0.224,1.231,-0.895,-0.788,-0.184,-0.587,0.919,0.371,0.132,2484.03,0.895,1.119,-0.895,-0.804,0.103,-0.586,0.530,-0.498,-0.686,2459.57,-0.671,-0.112,-1.455,-0.869,0.485,0.102,0.333,0.682,-0.651,2517.95,-0.112,1.007,-0.224,-0.199,0.116,0.973,0.484,0.837,-0.256,9.842,7.588,-0.443,-1.359,0.182,0.801,-0.570,10.452,-3.496,-4.473,-1.267,none
6.131781,0.834,0.497,0.239,2481.20,0.112,1.567,-1.679,-0.764,-0.221,-0.606,0.920,0.366,0.136,2489.97,-0.560,0.895,-2.014,-0.800,0.104,-0.591,0.534,-0.506,-0.678,2444.13,-1.119,-0.224,-1.231,-0.890,0.453,0.049,0.336,0.682,-0.650,2521.98,-1.455,1.231,-0.112,-0.211,0.118,0.970,0.479,0.841,-0.252,9.890,6.489,-0.382,-1.008,0.175,0.806,-0.565,10.503,-4.534,-4.641,-0.687,none
6.131868,0.836,0.493,0.243,2484.51,0.000,0.112,-0.560,-0.775,-0.209,-0.596,0.922,0.361,0.139,2504.66,-0.448,-0.112,-0.671,-0.815,0.119,-0.567,0.536,-0.500,-0.680,2450.70,-0.783,0.224,-0.783,-0.867,0.483,0.125,0.334,0.686,-0.646,2535.66,-1.790,0.112,0.336,-0.206,0.132,0.970,0.479,0.837,-0.263,9.892,5.359,-0.565,-0.977,0.180,0.799,-0.573,10.476,-5.527,-4.977,-0.412,none
6.131949,0.822,0.507,0.258,2490.57,-1.007,-0.671,-0.448,-0.780,-0.218,-0.587,0.914,0.381,0.140,2498.04,-0.783,-0.448,-0.112,-0.823,0.090,-0.561,0.541,-0.494,-0.681,2463.80,-0.895,0.112,0.224,-0.895,0.441,0.063,0.338,0.687,-0.643,2532.23,-0.783,-0.336,0.224,-0.209,0.116,0.971,0.486,0.830,-0.273,9.848,5.511,-0.565,-0.702,0.180,0.791,-0.585,10.481,-5.282,-5.099,-0.107,none
6.132035,0.819,0.514,0.255,2477.51,-0.448,-0.336,-1.007,-0.770,-0.188,-0.610,0.910,0.389,0.147,2498.96,-0.336,-0.671,-0.895,-0.804,0.078,-0.589,0.543,-0.483,-0.687,2455.29,-0.895,-0.112,0.336,-0.885,0.464,0.034,0.339,0.688,-0.641,2525.12,-1.007,-0.560,0.000,-0.197,0.131,0.971,0.484,0.832,-0.273,9.848,6.153,-0.198,-0.595,0.180,0.791,-0.585,10.487,-4.794,-4.840,-0.122,none
6.133277,0.821,0.509,0.259,2483.17,-0.112,-0.112,-1.231,-0.782,-0.196,-0.592,0.916,0.374,0.144,2491.76,0.000,0.000,-1.231,-0.812,0.091,-0.577,0.546,-0.486,-0.682,2441.60,-0.671,-0.448,0.224,-0.886,0.461,0.038,0.338,0.688,-0.642,2537.74,-1.679,0.000,-0.112,-0.214,0.105,0.971,0.479,0.837,-0.265,9.887,6.015,0.153,-1.023,0.176,0.798,-0.577,10.490,-5.008,-4.840,-0.550,none
6.133363,0.827,0.502,0.252,2476.13,0.112,0.448,-0.671,-0.768,-0.176,-0.616,0.916,0.375,0.144,2482.60,-0.112,0.000,-0.671,-0.793,0.116,-0.597,0.541,-0.493,-0.681,2445.96,-0.224,0.112,-0.336,-0.877,0.468,0.108,0.334,0.686,-0.646,2535.66,-0.448,0.224,0.112,-0.210,0.116,0.971,0.482,0.837,-0.260,9.874,6.061,-0.366,-1.634,0.180,0.800,-0.572,10.510,-5.023,-5.282,-1.008,none
6.621539,0.832,0.504,0.233,2507.51,-0.336,0.671,-0.448,-0.778,-0.197,-0.597,0.921,0.368,0.126,2529.68,-0.560,0.560,-0.560,-0.799,0.111,-0.591,0.530,-0.495,-0.688,2476.02,-0.895,0.560,0.000,-0.882,0.462,0.094,0.334,0.680,-0.652,2541.16,-0.336,0.000,0.560,-0.200,0.124,0.972,0.488,0.834,-0.256,9.925,5.649,-0.733,-0.580,0.188,0.801,-0.569,10.566,-5.130,-5.435,0.137,none
6.621697,0.828,0.507,0.241,2509.84,-0.671,-1.119,-1.007,-0.793,-0.181,-0.581,0.917,0.376,0.130,2530.14,-0.448,-1.119,-0.783,-0.812,0.103,-0.574,0.531,-0.500,-0.685,2474.13,-1.343,-0.671,1.231,-0.889,0.457,0.028,0.341,0.684,-0.645,2542.07,-1.790,-0.783,0.112,-0.195,0.122,0.973,0.486,0.835,-0.259,9.903,4.794,-0.198,1.053,0.181,0.801,-0.571,10.513,-5.710,-4.809,1.847,none
6.621798,0.827,0.501,0.257,2465.13,0.224,-2.686,-1.343,-0.766,-0.204,-0.610,0.917,0.372,0.144,2477.95,-0.224,-2.462,-0.895,-0.806,0.090,-0.586,0.542,-0.490,-0.683,2423.90,-1.343,-1.679,2.574,-0.893,0.440,0.095,0.340,0.690,-0.639,2519.41,-1.343,-2.014,-0.448,-0.203,0.120,0.972,0.475,0.840,-0.263,9.842,3.710,0.214,-0.458,0.171,0.802,-0.573,10.404,-7.298,-4.947,0.443,none
6.621887,0.827,0.497,0.263,2442.05,-0.448,-2.126,1.007,-0.782,-0.196,-0.592,0.911,0.382,0.155,2439.93,-0.783,-2.014,1.343,-0.811,0.097,-0.576,0.553,-0.480,-0.681,2390.68,0.448,-0.671,2.798,-0.894,0.446,0.048,0.339,0.694,-0.635,2504.26,1.119,-1.790,-0.224,-0.207,0.109,0.972,0.482,0.832,-0.274,9.726,3.130,0.840,-2.290,0.178,0.789,-0.587,10.340,-8.137,-4.641,-1.267,none
6.621975,0.811,0.522,0.264,2438.54,0.000,-1.119,2.686,-0.775,-0.197,-0.601,0.908,0.389,0.154,2446.73,0.000,-0.560,2.574,-0.808,0.080,-0.583,0.547,-0.475,-0.689,2418.08,2.014,0.671,1.231,-0.880,0.471,0.066,0.335,0.691,-0.640,2499.01,2.798,-0.895,0.224,-0.199,0.131,0.971,0.491,0.825,-0.282,9.677,4.519,0.931,-2.611,0.185,0.781,-0.597,10.319,-6.870,-4.366,-1.756,none
6.622067,0.809,0.529,0.255,2444.93,0.336,0.224,1.343,-0.788,-0.228,-0.571,0.907,0.395,0.146,2460.25,0.560,0.448,0.895,-0.813,0.115,-0.570,0.534,-0.487,-0.691,2439.67,0.783,0.000,-0.560,-0.896,0.441,0.056,0.336,0.686,-0.646,2492.35,0.336,0.448,-0.336,-0.205,0.119,0.972,0.484,0.832,-0.270,9.710,6.687,0.580,-2.000,0.179,0.793,-0.582,10.352,-4.580,-4.336,-1.557,none
6.622147,0.831,0.495,0.254,2453.71,0.560,1.231,-0.448,-0.776,-0.192,-0.602,0.922,0.361,0.137,2473.84,0.895,1.231,-0.671,-0.809,0.097,-0.579,0.542,-0.493,-0.680,2406.07,0.112,-0.336,-0.895,-0.874,0.477,0.087,0.333,0.686,-0.647,2518.31,-0.448,0.895,0.112,-0.208,0.114,0.971,0.478,0.842,-0.251,9.844,5.908,0.305,-2.916,0.175,0.807,-0.565,10.446,-5.527,-4.748,-2.321,none
6.622236,0.830,0.502,0.244,2480.29,-0.336,1.119,0.783,-0.775,-0.199,-0.600,0.919,0.370,0.136,2493.65,-0.112,0.783,1.343,-0.807,0.115,-0.579,0.533,-0.502,-0.681,2461.84,1.119,0.783,-1.007,-0.895,0.445,0.035,0.335,0.682,-0.650,2534.65,1.567,0.560,0.448,-0.210,0.118,0.971,0.488,0.834,-0.256,9.849,5.527,0.427,-2.611,0.187,0.799,-0.571,10.487,-5.893,-4.489,-2.015,none
6.622322,0.829,0.506,0.238,2494.92,-0.224,0.224,0.112,-0.788,-0.201,-0.583,0.919,0.371,0.131,2513.48,0.112,0.448,0.336,-0.825,0.107,-0.555,0.530,-0.503,-0.683,2496.29,-0.224,-0.448,-0.671,-0.884,0.459,0.086,0.330,0.677,-0.657,2537.60,0.671,0.112,-0.112,-0.202,0.124,0.972,0.489,0.835,-0.252,9.890,6.168,-0.031,-0.656,0.188,0.802,-0.567,10.554,-4.855,-4.443,-0.183,none
6.622410,0.832,0.502,0.238,2497.86,0.000,-0.224,-1.007,-0.772,-0.193,-0.606,0.920,0.370,0.130,2521.76,0.224,-0.224,-1.007,-0.807,0.096,-0.583,0.530,-0.507,-0.680,2479.41,-1.007,-1.007,-0.224,-0.881,0.463,0.096,0.334,0.680,-0.652,2541.16,-1.455,-0.224,-0.448,-0.212,0.124,0.969,0.482,0.838,-0.255,9.910,5.435,0.168,0.412,0.180,0.805,-0.565,10.509,-5.359,-4.107,0.748,none
6.622492,0.822,0.506,0.262,2457.10,0.671,-0.224,-1.007,-0.793,-0.214,-0.571,0.915,0.375,0.150,2461.10,0.560,-0.336,-0.895,-0.804,0.077,-0.589,0.544,-0.484,-0.686,2414.65,-0.448,-0.783,0.112,-0.885,0.464,0.034,0.334,0.695,-0.637,2511.49,-0.448,-0.112,-0.224,-0.206,0.114,0.972,0.490,0.828,-0.274,9.824,5.282,0.031,-1.969,0.187,0.787,-0.588,10.438,-5.771,-4.885,-1.374,none
6.622572,0.822,0.510,0.254,2457.29,-0.336,0.448,0.000,-0.772,-0.186,-0.608,0.913,0.384,0.141,2479.77,-0.671,0.000,0.448,-0.818,0.069,-0.571,0.540,-0.484,-0.689,2433.44,-0.112,0.560,-0.224,-0.869,0.470,0.157,0.336,0.693,-0.638,2521.90,0.336,0.224,0.224,-0.210,0.111,0.971,0.494,0.825,-0.274,9.805,5.756,0.153,-1.863,0.192,0.786,-0.588,10.427,-5.328,-4.672,-1.282,none
6.622656,0.814,0.524,0.253,2469.27,-0.224,0.224,-0.336,-0.789,-0.231,-0.569,0.911,0.389,0.133,2470.87,0.224,0.336,0.000,-0.825,0.087,-0.559,0.534,-0.482,-0.694,2441.06,0.000,0.000,0.000,-0.890,0.449,0.080,0.330,0.696,-0.638,2508.17,0.336,-0.112,0.000,-0.213,0.104,0.972,0.489,0.832,-0.262,9.808,6.214,0.473,-2.198,0.186,0.795,-0.578,10.445,-5.053,-4.504,-1.695,none
6.622737,0.820,0.513,0.253,2461.89,-0.224,0.783,-0.336,-0.768,-0.209,-0.605,0.917,0.376,0.133,2477.67,0.671,0.783,-0.224,-0.807,0.071,-0.586,0.534,-0.494,-0.686,2443.28,0.336,0.336,-0.783,-0.899,0.434,0.050,0.331,0.690,-0.644,2530.69,-0.224,0.671,0.336,-0.204,0.123,0.971,0.487,0.831,-0.268,9.913,5.832,-0.061,-2.244,0.182,0.793,-0.581,10.542,-5.313,-4.992,-1.527,none
6.622817,0.820,0.513,0.253,2499.04,-0.783,0.560,0.224,-0.779,-0.208,-0.592,0.914,0.382,0.139,2517.39,-0.448,0.671,0.448,-0.813,0.084,-0.577,0.532,-0.493,-0.689,2488.90,-0.112,1.007,-0.560,-0.882,0.462,0.094,0.336,0.692,-0.639,2550.85,0.000,0.336,0.671,-0.203,0.120,0.972,0.496,0.826,-0.268,9.959,5.481,-0.229,-1.878,0.196,0.791,-0.579,10.616,-5.649,-5.084,-1.099,none
6.622898,0.821,0.517,0.244,2520.20,-0.112,0.448,0.112,-0.772,-0.210,-0.600,0.912,0.390,0.125,2543.79,-0.783,0.112,0.224,-0.806,0.090,-0.586,0.532,-0.481,-0.697,2487.95,-0.112,0.448,0.336,-0.876,0.480,0.048,0.336,0.696,-0.635,2551.43,-0.224,0.112,0.112,-0.210,0.118,0.971,0.501,0.823,-0.269,9.948,5.252,0.779,-0.672,0.200,0.787,-0.583,10.600,-5.893,-3.893,-0.046,none
6.622980,0.815,0.525,0.245,2501.70,0.560,-1.119,-0.224,-0.770,-0.188,-0.610,0.909,0.397,0.130,2523.51,0.783,-1.231,-0.112,-0.807,0.071,-0.586,0.535,-0.484,-0.693,2474.75,-0.112,-1.231,0.560,-0.886,0.455,0.093,0.334,0.695,-0.637,2542.16,0.448,-0.783,-1.343,-0.197,0.114,0.974,0.489,0.828,-0.276,9.795,5.328,1.527,0.092,0.182,0.792,-0.583,10.412,-5.817,-3.191,0.504,none
6.623067,0.818,0.514,0.258,2456.00,1.455,-1.679,-0.783,-0.767,-0.215,-0.605,0.913,0.381,0.146,2446.03,1.790,-1.567,-0.560,-0.811,0.095,-0.577,0.534,-0.487,-0.691,2439.67,0.112,-2.350,1.119,-0.889,0.438,0.136,0.338,0.693,-0.637,2509.99,0.448,-1.231,-1.679,-0.208,0.105,0.973,0.484,0.832,-0.271,9.696,5.420,1.191,-0.046,0.178,0.788,-0.590,10.311,-5.649,-3.618,0.382,none
6.623149,0.815,0.515,0.266,2416.18,0.448,-1.119,-0.671,-0.783,-0.206,-0.587,0.907,0.392,0.152,2427.95,0.224,-1.343,-0.671,-0.800,0.090,-0.593,0.545,-0.480,-0.688,2393.25,-0.224,-1.455,0.671,-0.889,0.450,0.088,0.329,0.691,-0.643,2486.14,-0.336,-0.560,-1.231,-0.219,0.095,0.971,0.482,0.834,-0.269,9.642,6.626,0.458,-1.420,0.177,0.791,-0.585,10.282,-4.565,-4.229,-1.115,none
6.623233,0.817,0.513,0.263,2407.59,0.112,0.783,-0.671,-0.788,-0.225,-0.574,0.912,0.383,0.147,2436.00,0.560,0.448,-0.783,-0.807,0.091,-0.583,0.536,-0.487,-0.690,2416.33,-1.007,0.112,-1.567,-0.896,0.437,0.081,0.328,0.690,-0.646,2492.58,-0.671,0.895,0.224,-0.204,0.110,0.973,0.493,0.828,-0.266,9.730,7.588,-0.260,-1.664,0.193,0.790,-0.582,10.388,-3.466,-4.641,-1.328,none
6.623316,0.819,0.521,0.241,2463.99,0.112,1.790,-1.455,-0.778,-0.197,-0.597,0.915,0.383,0.128,2484.87,0.224,1.119,-1.790,-0.813,0.084,-0.577,0.530,-0.495,-0.689,2460.60,-1.567,-0.112,-2.238,-0.886,0.461,0.049,0.333,0.690,-0.643,2519.43,-1.567,1.231,0.112,-0.206,0.114,0.972,0.489,0.830,-0.268,9.819,7.740,-0.198,-0.321,0.190,0.791,-0.582,10.471,-3.069,-4.427,-0.183,none
6.623396,0.823,0.514,0.244,2478.48,0.224,1.119,-2.574,-0.771,-0.199,-0.605,0.915,0.382,0.132,2495.32,0.224,0.448,-2.910,-0.811,0.084,-0.580,0.532,-0.489,-0.691,2467.36,-2.686,-1.119,-1.343,-0.882,0.448,0.148,0.334,0.693,-0.639,2535.21,-3.245,1.567,-0.112,-0.222,0.103,0.970,0.486,0.831,-0.270,9.917,8.061,-0.763,-0.260,0.179,0.793,-0.582,10.537,-2.626,-4.901,-0.061,none
6.623480,0.820,0.512,0.255,2484.89,-0.224,0.560,-3.021,-0.768,-0.217,-0.602,0.912,0.384,0.143,2502.23,-0.560,0.783,-2.686,-0.831,0.066,-0.552,0.537,-0.489,-0.687,2465.81,-2.574,-0.560,-1.567,-0.887,0.451,0.096,0.336,0.696,-0.635,2551.43,-2.798,1.455,0.112,-0.206,0.114,0.972,0.492,0.831,-0.261,9.969,7.145,-0.275,-0.947,0.190,0.797,-0.573,10.546,-3.863,-4.397,-0.595,none
6.623562,0.825,0.512,0.241,2507.49,-0.560,1.007,-2.126,-0.771,-0.199,-0.605,0.915,0.383,0.127,2513.41,0.000,0.448,-1.567,-0.809,0.078,-0.583,0.533,-0.486,-0.692,2461.79,-1.343,-0.448,-1.007,-0.879,0.471,0.071,0.333,0.699,-0.633,2542.78,-1.119,0.560,-0.112,-0.208,0.115,0.971,0.499,0.827,-0.259,9.849,6.092,0.534,-0.748,0.196,0.793,-0.577,10.506,-4.916,-3.908,-0.275,none
6.623648,0.818,0.519,0.247,2490.44,0.224,-0.560,-0.783,-0.784,-0.219,-0.581,0.912,0.388,0.131,2502.63,0.671,-0.783,-0.671,-0.827,0.068,-0.558,0.532,-0.484,-0.695,2452.84,-0.783,-1.119,-0.112,-0.892,0.449,0.063,0.332,0.696,-0.637,2525.50,0.224,-0.112,-0.895,-0.209,0.106,0.972,0.492,0.824,-0.280,9.754,5.878,0.534,-0.229,0.186,0.784,-0.592,10.380,-4.962,-3.710,0.092,none
6.623730,0.812,0.521,0.261,2460.80,0.783,-0.112,-1.231,-0.771,-0.239,-0.590,0.909,0.392,0.142,2456.33,0.224,-0.560,-1.119,-0.812,0.075,-0.578,0.535,-0.479,-0.696,2436.73,-1.007,-1.231,0.112,-0.883,0.459,0.097,0.335,0.695,-0.636,2500.20,-0.783,-0.336,-0.783,-0.196,0.125,0.973,0.487,0.827,-0.282,9.725,6.702,0.244,-0.412,0.181,0.784,-0.594,10.333,-4.137,-4.061,-0.092,none
6.623811,0.810,0.524,0.265,2430.43,0.671,0.560,-1.679,-0.779,-0.241,-0.579,0.908,0.393,0.146,2448.54,0.336,0.000,-1.902,-0.796,0.074,-0.601,0.542,-0.477,-0.692,2407.74,-1.343,-0.895,-0.336,-0.880,0.461,0.114,0.334,0.697,-0.635,2505.77,-1.790,0.671,-0.336,-0.210,0.107,0.972,0.486,0.831,-0.272,9.771,7.527,-0.336,-1.359,0.182,0.789,-0.587,10.410,-3.557,-4.718,-1.237,none
6.626410,0.816,0.516,0.262,2449.62,-0.783,1.567,-1.902,-0.775,-0.229,-0.589,0.909,0.390,0.145,2465.80,-0.448,1.343,-2.014,-0.809,0.097,-0.579,0.541,-0.481,-0.690,2429.10,-1.343,0.671,-1.455,-0.891,0.444,0.096,0.336,0.700,-0.630,2523.09,-1.343,1.231,0.560,-0.212,0.103,0.972,0.494,0.825,-0.276,9.880,7.435,-0.458,-2.122,0.189,0.785,-0.590,10.550,-3.603,-4.733,-1.863,none
6.626523,0.813,0.526,0.250,2496.03,-0.671,2.126,-1.343,-0.754,-0.194,-0.628,0.910,0.391,0.135,2506.95,-0.671,1.790,-1.343,-0.800,0.055,-0.598,0.536,-0.481,-0.694,2469.23,-1.231,0.336,-2.014,-0.885,0.459,0.082,0.333,0.701,-0.631,2549.78,-1.567,1.343,0.112,-0.201,0.110,0.973,0.500,0.822,-0.274,9.926,7.176,0.092,-1.511,0.196,0.786,-0.587,10.600,-3.878,-4.137,-1.176,none
6.626619,0.813,0.527,0.249,2508.90,-0.112,1.567,-1.343,-0.755,-0.197,-0.626,0.908,0.397,0.134,2523.92,0.448,0.783,-1.455,-0.824,0.069,-0.562,0.527,-0.481,-0.701,2490.34,-0.895,-0.448,-1.007,-0.890,0.449,0.080,0.336,0.700,-0.630,2552.78,-1.679,0.895,-0.336,-0.211,0.108,0.971,0.494,0.826,-0.272,9.942,6.656,0.901,-0.916,0.191,0.790,-0.582,10.561,-4.473,-3.588,-0.641,none
6.626710,0.817,0.522,0.246,2496.46,0.336,0.783,-1.455,-0.764,-0.184,-0.619,0.912,0.388,0.135,2503.06,1.007,0.000,-1.119,-0.819,0.058,-0.572,0.538,-0.478,-0.694,2441.56,-0.448,-1.343,-0.224,-0.907,0.419,0.042,0.334,0.701,-0.630,2536.46,-0.560,0.224,-0.895,-0.198,0.125,0.972,0.492,0.828,-0.270,9.869,5.954,1.206,-1.176,0.185,0.790,-0.585,10.498,-5.298,-3.725,-0.733,none
6.626796,0.816,0.519,0.256,2473.68,0.671,-0.112,-0.336,-0.779,-0.214,-0.590,0.912,0.386,0.140,2492.74,0.783,0.000,-0.112,-0.820,0.071,-0.568,0.536,-0.483,-0.692,2434.82,0.000,-1.343,-0.336,-0.903,0.424,0.067,0.332,0.699,-0.633,2526.13,0.336,0.000,-0.783,-0.214,0.110,0.971,0.491,0.825,-0.278,9.801,5.817,0.901,-1.496,0.189,0.786,-0.588,10.436,-5.405,-4.061,-1.038,none
6.628089,0.812,0.526,0.254,2460.33,0.448,0.560,-0.112,-0.778,-0.238,-0.581,0.908,0.395,0.141,2481.06,0.560,0.000,-0.224,-0.808,0.082,-0.584,0.534,-0.478,-0.698,2443.70,0.000,-0.560,-0.224,-0.883,0.459,0.097,0.333,0.697,-0.635,2519.15,0.560,0.000,-0.448,-0.212,0.110,0.971,0.495,0.825,-0.273,9.791,6.427,0.687,-1.527,0.194,0.787,-0.585,10.425,-4.870,-3.969,-1.160,none
6.636222,0.811,0.529,0.249,2463.09,0.448,0.448,-0.671,-0.768,-0.223,-0.600,0.910,0.394,0.128,2487.02,0.560,0.448,-0.560,-0.802,0.080,-0.592,0.531,-0.483,-0.696,2435.04,-0.224,-0.671,-0.783,-0.901,0.425,0.090,0.333,0.697,-0.635,2519.15,0.000,0.224,-0.671,-0.205,0.119,0.972,0.491,0.829,-0.267,9.771,6.198,0.916,-1.298,0.188,0.791,-0.582,10.423,-5.023,-3.695,-0.992,none
6.660428,0.819,0.515,0.254,2453.70,0.783,0.783,-0.671,-0.740,-0.205,-0.640,0.915,0.381,0.137,2474.56,0.783,0.560,-0.448,-0.821,0.082,-0.565,0.534,-0.486,-0.692,2422.55,0.336,-0.783,-0.560,-0.892,0.438,0.114,0.333,0.697,-0.635,2519.15,-0.336,0.336,-0.671,-0.206,0.109,0.972,0.490,0.828,-0.272,9.792,5.924,0.550,-1.939,0.186,0.790,-0.584,10.399,-5.328,-4.168,-1.496,none
6.683419,0.815,0.519,0.258,2453.00,-0.112,0.560,0.112,-0.785,-0.228,-0.576,0.909,0.390,0.145,2465.80,0.336,0.560,0.000,-0.809,0.078,-0.583,0.537,-0.481,-0.694,2430.48,0.000,-0.224,-0.671,-0.882,0.462,0.086,0.334,0.697,-0.635,2505.77,0.224,0.336,-0.336,-0.212,0.110,0.971,0.490,0.827,-0.274,9.783,6.290,0.198,-1.893,0.187,0.787,-0.587,10.450,-4.824,-4.397,-1.496,none
6.706557,0.814,0.520,0.261,2468.12,-0.336,0.560,-0.448,-0.782,-0.223,-0.582,0.911,0.387,0.141,2483.63,0.224,0.671,-0.336,-0.822,0.076,-0.565,0.533,-0.482,-0.696,2463.89,-0.112,0.112,-0.895,-0.875,0.473,0.098,0.333,0.697,-0.635,2519.15,-0.448,0.671,0.000,-0.206,0.114,0.972,0.490,0.827,-0.276,9.812,6.504,-0.046,-1.511,0.187,0.788,-0.586,10.460,-4.534,-4.641,-1.115,none
7.127791,0.814,0.520,0.261,2468.12,0.224,0.895,-0.783,-0.751,-0.204,-0.628,0.911,0.389,0.140,2496.23,-0.112,0.560,-0.895,-0.819,0.093,-0.566,0.537,-0.486,-0.690,2444.49,-0.448,0.000,-0.783,-0.886,0.452,0.107,0.336,0.696,-0.634,2521.79,-1.007,0.671,0.112,-0.209,0.105,0.972,0.487,0.829,-0.276,9.865,6.427,-0.198,-1.740,0.187,0.790,-0.584,10.488,-4.702,-4.824,-1.359,none
7.127936,0.817,0.517,0.255,2482.66,-0.448,0.895,-0.448,-0.751,-0.234,-0.618,0.912,0.386,0.140,2492.74,-0.224,0.560,-0.448,-0.800,0.066,-0.597,0.537,-0.481,-0.693,2445.88,-0.336,0.000,-0.448,-0.887,0.451,0.096,0.335,0.698,-0.632,2528.77,-0.448,0.560,0.224,-0.208,0.111,0.972,0.490,0.827,-0.275,9.845,5.802,-0.031,-1.725,0.190,0.788,-0.586,10.485,-5.359,-4.824,-1.176,none
7.128064,0.817,0.519,0.252,2471.39,1.343,0.560,0.224,-0.757,-0.223,-0.615,0.912,0.386,0.140,2492.74,-0.336,0.000,-0.112,-0.827,0.071,-0.558,0.537,-0.478,-0.695,2464.44,-0.671,-0.112,-0.224,-0.899,0.421,0.119,0.336,0.696,-0.634,2521.79,-0.224,0.112,0.112,-0.208,0.100,0.973,0.493,0.823,-0.283,9.807,6.137,-0.076,-1.237,0.192,0.783,-0.592,10.461,-4.916,-4.779,-0.672,none
7.128157,0.807,0.530,0.260,2476.57,-0.112,0.112,-0.671,-0.763,-0.212,-0.611,0.905,0.402,0.140,2489.04,0.000,0.000,-0.336,-0.803,0.090,-0.589,0.533,-0.474,-0.701,2462.48,-0.895,-0.224,-0.336,-0.880,0.457,0.126,0.332,0.701,-0.631,2520.44,-1.007,0.224,0.000,-0.200,0.117,0.973,0.493,0.824,-0.279,9.842,6.748,-0.244,-1.221,0.190,0.784,-0.590,10.475,-4.244,-4.687,-0.779,none
7.128258,0.813,0.523,0.256,2471.56,0.112,0.783,-1.231,-0.765,-0.230,-0.602,0.910,0.391,0.136,2484.84,-0.224,0.336,-1.231,-0.797,0.077,-0.599,0.536,-0.477,-0.696,2448.51,-1.343,-0.448,-0.560,-0.877,0.452,0.161,0.335,0.698,-0.632,2528.77,-1.343,0.448,0.000,-0.218,0.105,0.970,0.498,0.824,-0.272,9.826,6.366,0.015,-1.115,0.196,0.784,-0.589,10.463,-4.687,-4.550,-0.641,none
7.128377,0.813,0.527,0.248,2472.02,0.000,0.448,-1.007,-0.768,-0.201,-0.608,0.907,0.398,0.136,2492.72,0.336,0.224,-0.783,-0.822,0.089,-0.562,0.533,-0.473,-0.701,2445.94,-1.343,-0.112,-0.560,-0.882,0.457,0.111,0.336,0.700,-0.630,2523.09,-1.007,0.560,-0.224,-0.204,0.106,0.973,0.494,0.822,-0.283,9.822,6.550,0.214,-0.977,0.189,0.781,-0.595,10.476,-4.443,-4.290,-0.580,none
7.128462,0.810,0.528,0.256,2468.70,0.560,0.671,-1.119,-0.776,-0.201,-0.598,0.908,0.395,0.141,2481.06,0.448,0.112,-1.455,-0.806,0.061,-0.589,0.536,-0.477,-0.696,2448.51,-1.343,-0.448,-0.560,-0.901,0.425,0.090,0.332,0.701,-0.631,2520.44,-0.783,0.448,-0.224,-0.209,0.106,0.972,0.490,0.824,-0.282,9.879,7.069,-0.061,-1.374,0.185,0.787,-0.589,10.486,-4.015,-4.718,-1.023,none
7.128542,0.815,0.518,0.260,2476.26,-0.448,0.895,-1.231,-0.760,-0.199,-0.619,0.909,0.392,0.140,2500.14,-0.336,0.783,-1.567,-0.813,0.071,-0.578,0.536,-0.484,-0.692,2450.71,-1.343,-0.224,-0.224,-0.893,0.445,0.066,0.334,0.704,-0.627,2537.83,-1.343,0.783,0.112,-0.202,0.108,0.974,0.494,0.827,-0.270,9.896,6.595,0.290,-2.092,0.192,0.790,-0.583,10.532,-4.626,-4.473,-1.695,none
7.128644,0.818,0.518,0.250,2493.74,0.000,1.567,0.000,-0.771,-0.222,-0.596,0.913,0.387,0.131,2511.76,0.560,1.119,-0.448,-0.825,0.060,-0.562,0.535,-0.463,-0.707,2455.45,-1.455,0.112,0.783,-0.895,0.426,0.132,0.334,0.701,-0.630,2536.46,-0.336,0.783,0.224,-0.203,0.105,0.973,0.498,0.823,-0.272,9.871,5.817,0.260,-1.710,0.195,0.787,-0.585,10.518,-5.359,-4.534,-1.160,none
7.128968,0.811,0.528,0.251,2487.10,-0.112,-0.112,0.000,-0.763,-0.221,-0.607,0.907,0.399,0.135,2505.77,0.112,0.000,0.224,-0.798,0.073,-0.598,0.525,-0.485,-0.699,2466.35,0.000,-0.112,-1.007,-0.878,0.466,0.104,0.332,0.699,-0.633,2526.13,0.336,0.000,-0.336,-0.213,0.099,0.972,0.497,0.822,-0.279,9.829,5.710,0.595,-1.267,0.194,0.783,-0.591,10.455,-5.420,-4.076,-0.748,none
7.129053,0.810,0.528,0.256,2468.70,0.783,0.112,-0.224,-0.771,-0.199,-0.605,0.909,0.394,0.136,2488.76,0.560,-0.448,-0.112,-0.783,0.093,-0.615,0.536,-0.473,-0.700,2450.75,-0.224,-0.671,0.112,-0.860,0.489,0.145,0.332,0.701,-0.631,2520.44,-0.336,0.000,-0.560,-0.215,0.101,0.971,0.489,0.827,-0.276,9.793,5.863,0.672,-1.389,0.186,0.787,-0.588,10.432,-5.344,-4.122,-0.992,none
7.129136,0.811,0.523,0.262,2452.68,0.448,-0.224,-0.448,-0.754,-0.192,-0.628,0.907,0.394,0.149,2462.63,0.112,-0.224,-0.224,-0.803,0.067,-0.592,0.541,-0.473,-0.695,2426.49,0.112,-0.783,-0.336,-0.883,0.453,0.121,0.332,0.701,-0.631,2520.44,0.224,0.336,-0.448,-0.212,0.104,0.972,0.486,0.827,-0.282,9.792,5.786,0.763,-1.954,0.182,0.784,-0.593,10.414,-5.542,-4.183,-1.542,none
7.129217,0.811,0.521,0.265,2462.62,0.336,0.560,0.336,-0.786,-0.239,-0.570,0.910,0.389,0.145,2475.81,0.448,0.560,0.224,-0.797,0.077,-0.599,0.539,-0.480,-0.692,2435.32,0.336,0.224,-0.671,-0.874,0.472,0.112,0.338,0.696,-0.634,2509.82,0.671,0.560,0.000,-0.202,0.103,0.974,0.489,0.827,-0.278,9.814,6.122,0.214,-2.153,0.187,0.788,-0.587,10.450,-5.221,-4.687,-1.588,none
7.129299,0.814,0.521,0.255,2479.70,-0.112,1.119,0.112,-0.791,-0.194,-0.580,0.911,0.389,0.136,2493.94,0.224,0.783,-0.112,-0.803,0.085,-0.589,0.533,-0.482,-0.696,2463.89,0.112,0.560,-0.783,-0.883,0.449,0.134,0.336,0.696,-0.634,2521.79,0.224,0.336,0.000,-0.208,0.114,0.971,0.493,0.825,-0.277,9.861,6.137,-0.061,-1.557,0.190,0.787,-0.586,10.509,-5.023,-4.718,-0.962,none
7.129380,0.814,0.523,0.254,2493.06,0.448,0.560,-0.448,-0.784,-0.219,-0.581,0.912,0.388,0.135,2503.06,0.224,0.224,-0.448,-0.799,0.085,-0.595,0.532,-0.484,-0.695,2452.84,-0.671,-0.112,-0.112,-0.864,0.482,0.146,0.338,0.698,-0.632,2531.80,-1.231,0.224,-0.224,-0.201,0.103,0.974,0.492,0.826,-0.274,9.864,5.679,0.000,-0.763,0.190,0.788,-0.586,10.506,-5.282,-4.763,-0.229,none
7.129469,0.815,0.522,0.252,2477.42,-0.224,-0.224,-0.560,-0.771,-0.233,-0.592,0.909,0.392,0.140,2500.14,-0.336,-0.448,-0.671,-0.805,0.065,-0.589,0.537,-0.474,-0.697,2443.06,-0.783,-0.671,0.560,-0.876,0.456,0.156,0.336,0.700,-0.630,2523.09,-1.007,-0.224,-0.112,-0.210,0.101,0.972,0.491,0.825,-0.281,9.823,5.527,0.107,-0.885,0.186,0.785,-0.591,10.462,-5.496,-4.687,-0.351,none
7.129557,0.810,0.524,0.261,2465.22,0.112,-0.560,-0.448,-0.773,-0.212,-0.598,0.908,0.393,0.145,2469.33,-0.112,-0.560,-0.560,-0.811,0.079,-0.579,0.538,-0.474,-0.697,2421.63,-0.224,-0.224,0.000,-0.888,0.442,0.126,0.336,0.704,-0.626,2523.82,-0.336,-0.336,0.000,-0.206,0.108,0.973,0.491,0.825,-0.281,9.812,5.740,0.076,-1.389,0.189,0.786,-0.588,10.448,-5.374,-4.794,-0.794,none
7.132916,0.810,0.524,0.261,2465.22,-0.448,0.000,-0.336,-0.769,-0.210,-0.604,0.907,0.397,0.141,2472.90,-0.112,-0.112,-0.448,-0.815,0.075,-0.575,0.538,-0.471,-0.699,2438.34,-0.112,0.336,0.000,-0.874,0.463,0.149,0.332,0.701,-0.631,2520.44,-0.112,0.112,0.224,-0.204,0.105,0.973,0.492,0.825,-0.279,9.813,5.725,0.137,-1.832,0.191,0.784,-0.590,10.447,-5.450,-4.702,-1.221,none
7.133007,0.812,0.527,0.252,2473.71,0.000,0.560,0.224,-0.772,-0.225,-0.594,0.909,0.394,0.136,2488.76,0.000,0.224,0.112,-0.816,0.077,-0.573,0.534,-0.478,-0.698,2443.70,-0.112,0.224,-0.560,-0.882,0.462,0.086,0.333,0.699,-0.633,2513.44,0.112,0.224,0.000,-0.214,0.100,0.972,0.492,0.824,-0.280,9.803,5.725,-0.061,-1.450,0.187,0.784,-0.592,10.454,-5.298,-4.779,-0.885,none
7.133089,0.811,0.522,0.264,2475.95,0.560,0.224,0.000,-0.784,-0.211,-0.584,0.908,0.393,0.141,2468.95,0.783,0.112,-0.112,-0.813,0.084,-0.577,0.532,-0.477,-0.700,2449.99,-0.560,0.224,-0.224,-0.860,0.489,0.145,0.333,0.699,-0.633,2513.44,-0.448,0.112,0.000,-0.200,0.103,0.974,0.491,0.826,-0.275,9.827,6.107,-0.122,-1.679,0.192,0.789,-0.584,10.471,-5.023,-4.748,-1.206,none
7.136287,0.817,0.519,0.252,2471.39,-0.448,0.560,-0.336,-0.771,-0.229,-0.594,0.908,0.395,0.137,2480.58,-0.336,0.560,-0.448,-0.814,0.066,-0.577,0.536,-0.476,-0.697,2431.26,0.000,-0.112,0.112,-0.887,0.454,0.085,0.332,0.703,-0.629,2526.76,-0.336,0.224,0.000,-0.207,0.109,0.972,0.493,0.825,-0.276,9.808,5.405,0.290,-1.878,0.191,0.784,-0.590,10.469,-5.771,-4.595,-1.252,none
7.160231,0.812,0.527,0.252,2473.71,0.336,0.112,0.560,-0.766,-0.204,-0.610,0.909,0.394,0.136,2488.76,0.000,0.224,0.336,-0.813,0.070,-0.578,0.533,-0.482,-0.696,2463.89,0.112,0.448,-0.783,-0.884,0.441,0.155,0.337,0.702,-0.628,2517.50,0.224,0.112,0.000,-0.206,0.114,0.972,0.493,0.823,-0.284,9.826,5.878,0.183,-1.710,0.189,0.782,-0.594,10.466,-5.267,-4.565,-1.160,none
7.183307,0.809,0.525,0.263,2481.99,-0.112,0.448,-0.336,-0.779,-0.234,-0.581,0.908,0.394,0.140,2491.05,0.224,0.224,-0.336,-0.803,0.085,-0.589,0.534,-0.478,-0.698,2443.70,-0.112,0.000,-0.336,-0.900,0.432,0.062,0.335,0.698,-0.632,2528.77,-0.671,0.224,0.112,-0.217,0.105,0.971,0.494,0.824,-0.277,9.877,6.046,-0.076,-1.389,0.193,0.786,-0.587,10.500,-5.038,-4.763,-0.855,none
7.205497,0.812,0.527,0.252,2473.71,-0.112,0.112,-0.448,-0.761,-0.208,-0.615,0.906,0.401,0.136,2496.71,-0.112,0.448,-0.448,-0.805,0.067,-0.589,0.533,-0.473,-0.701,2445.94,-0.560,0.112,-0.112,-0.871,0.462,0.165,0.334,0.701,-0.630,2536.46,-0.895,0.224,0.112,-0.207,0.103,0.973,0.494,0.823,-0.281,9.853,5.924,0.183,-1.130,0.188,0.784,-0.592,10.510,-5.130,-4.534,-0.626,none
7.637797,0.811,0.526,0.256,2476.00,0.560,0.112,-0.336,-0.765,-0.179,-0.618,0.908,0.394,0.144,2491.42,0.560,-0.224,-0.336,-0.820,0.071,-0.568,0.536,-0.477,-0.696,2448.51,-0.448,-0.560,-0.224,-0.886,0.440,0.147,0.336,0.704,-0.626,2523.82,-0.448,0.000,-0.336,-0.213,0.105,0.971,0.490,0.825,-0.282,9.841,5.603,0.321,-1.328,0.188,0.786,-0.589,10.471,-5.588,-4.519,-0.779,none
7.637971,0.811,0.525,0.257,2462.63,-0.112,-0.448,-0.336,-0.767,-0.211,-0.607,0.907,0.395,0.144,2483.25,0.000,-0.224,0.000,-0.810,0.061,-0.583,0.541,-0.469,-0.698,2427.35,-0.112,-0.336,0.448,-0.899,0.432,0.069,0.337,0.702,-0.628,2517.50,0.000,-0.112,-0.112,-0.209,0.113,0.971,0.493,0.823,-0.283,9.809,5.328,0.626,-1.878,0.189,0.783,-0.593,10.438,-5.908,-4.275,-1.328,none
7.638075,0.808,0.527,0.264,2473.10,0.448,-0.112,0.336,-0.767,-0.230,-0.599,0.907,0.395,0.144,2483.25,0.783,0.224,0.448,-0.814,0.066,-0.577,0.536,-0.477,-0.696,2448.51,0.448,-0.224,-0.560,-0.886,0.450,0.110,0.338,0.700,-0.629,2510.49,0.224,0.112,-0.112,-0.215,0.101,0.971,0.492,0.824,-0.282,9.753,6.122,0.351,-1.817,0.190,0.783,-0.592,10.432,-5.099,-4.534,-1.313,none
7.638167,0.807,0.529,0.261,2463.21,0.224,0.448,-0.224,-0.762,-0.195,-0.618,0.909,0.392,0.141,2477.12,0.560,0.671,-0.224,-0.796,0.091,-0.598,0.532,-0.477,-0.700,2449.99,-0.560,-0.112,-0.336,-0.875,0.463,0.140,0.337,0.694,-0.636,2515.53,-0.112,0.336,-0.112,-0.219,0.099,0.971,0.493,0.823,-0.283,9.794,6.336,0.076,-1.023,0.188,0.784,-0.592,10.460,-4.656,-4.702,-0.565,none
7.638279,0.809,0.527,0.260,2471.29,0.448,0.224,-1.007,-0.771,-0.222,-0.597,0.907,0.395,0.144,2483.25,0.224,0.000,-0.895,-0.801,0.075,-0.593,0.536,-0.477,-0.696,2448.51,-0.783,-0.560,-0.560,-0.867,0.483,0.125,0.337,0.698,-0.632,2516.10,-1.231,0.560,0.000,-0.202,0.099,0.974,0.487,0.827,-0.280,9.829,6.473,-0.198,-1.252,0.183,0.787,-0.590,10.449,-4.550,-4.947,-0.794,none
7.638376,0.815,0.518,0.260,2476.26,-0.112,0.448,-0.895,-0.760,-0.221,-0.611,0.909,0.390,0.148,2489.87,-0.112,0.448,-1.119,-0.810,0.058,-0.583,0.537,-0.474,-0.697,2443.06,-0.895,0.112,-0.560,-0.871,0.463,0.164,0.338,0.698,-0.632,2531.80,-1.007,0.671,0.448,-0.222,0.102,0.970,0.491,0.826,-0.278,9.860,6.214,-0.397,-1.679,0.187,0.786,-0.589,10.513,-4.809,-5.206,-1.069,none
7.638477,0.810,0.526,0.259,2478.57,-0.783,0.560,-0.560,-0.764,-0.200,-0.613,0.907,0.396,0.143,2504.44,-0.783,0.448,-0.671,-0.807,0.067,-0.586,0.537,-0.474,-0.697,2443.06,-0.560,0.448,-0.448,-0.892,0.446,0.078,0.335,0.702,-0.628,2530.80,0.112,0.448,0.560,-0.205,0.109,0.973,0.494,0.824,-0.277,9.869,6.000,-0.153,-1.924,0.192,0.787,-0.586,10.511,-5.160,-5.038,-1.344,none
7.638569,0.813,0.525,0.251,2481.84,-0.336,0.112,-0.224,-0.757,-0.219,-0.615,0.908,0.396,0.136,2501.80,-0.448,0.336,0.112,-0.804,0.063,-0.591,0.534,-0.471,-0.702,2457.05,-0.224,0.336,-0.336,-0.897,0.432,0.098,0.338,0.701,-0.628,2533.83,0.336,0.112,0.336,-0.202,0.115,0.973,0.497,0.823,-0.276,9.859,5.557,0.244,-1.740,0.196,0.784,-0.589,10.489,-5.634,-4.641,-1.115,none
7.638659,0.811,0.528,0.251,2487.10,0.560,0.000,0.224,-0.771,-0.207,-0.602,0.907,0.401,0.132,2496.28,-0.224,0.112,0.112,-0.795,0.079,-0.601,0.533,-0.474,-0.701,2462.48,0.112,0.112,-0.112,-0.892,0.438,0.114,0.333,0.703,-0.629,2513.44,0.224,0.000,-0.112,-0.213,0.109,0.971,0.497,0.821,-0.280,9.771,5.695,0.443,-1.344,0.192,0.781,-0.594,10.425,-5.374,-4.336,-0.733,none
7.642763,0.807,0.531,0.258,2451.73,0.671,-0.112,-0.336,-0.775,-0.242,-0.583,0.906,0.400,0.141,2476.88,0.336,-0.448,0.000,-0.805,0.086,-0.588,0.535,-0.475,-0.699,2438.24,-0.336,-0.336,-0.112,-0.878,0.461,0.130,0.334,0.701,-0.630,2506.43,0.000,0.000,-0.448,-0.209,0.100,0.973,0.493,0.822,-0.285,9.713,6.275,0.183,-1.084,0.190,0.779,-0.598,10.373,-4.748,-4.504,-0.504,none
7.642878,0.806,0.531,0.262,2454.33,0.783,0.448,-1.119,-0.763,-0.215,-0.610,0.903,0.403,0.150,2460.65,0.000,0.000,-1.119,-0.799,0.069,-0.597,0.542,-0.470,-0.696,2421.08,-1.007,-0.783,-0.671,-0.891,0.428,0.149,0.334,0.701,-0.630,2506.43,-1.119,0.783,0.000,-0.198,0.115,0.974,0.482,0.830,-0.280,9.794,7.053,-0.260,-2.046,0.179,0.786,-0.591,10.423,-4.137,-4.962,-1.603,none
7.642974,0.815,0.515,0.266,2453.08,0.112,1.343,-0.671,-0.773,-0.235,-0.589,0.909,0.390,0.145,2465.80,-0.112,1.231,-1.231,-0.792,0.069,-0.607,0.539,-0.479,-0.693,2418.75,-0.336,0.448,-1.343,-0.874,0.477,0.087,0.337,0.702,-0.628,2517.50,-1.007,1.231,0.336,-0.201,0.111,0.973,0.492,0.826,-0.273,9.842,6.351,-0.260,-2.779,0.188,0.787,-0.587,10.488,-5.038,-5.130,-2.214,none
7.643066,0.816,0.519,0.256,2473.68,0.112,1.567,0.671,-0.756,-0.229,-0.614,0.910,0.393,0.132,2497.42,-0.560,1.231,0.000,-0.794,0.066,-0.605,0.537,-0.474,-0.697,2443.06,-0.336,0.895,-1.455,-0.884,0.447,0.139,0.336,0.704,-0.626,2523.82,0.000,1.231,0.671,-0.198,0.117,0.973,0.495,0.822,-0.283,9.846,6.076,-0.046,-2.351,0.193,0.778,-0.598,10.514,-5.053,-4.748,-1.725,none
7.643149,0.805,0.533,0.259,2480.55,0.560,1.455,0.000,-0.763,-0.192,-0.617,0.906,0.401,0.140,2498.99,0.671,0.895,-0.112,-0.822,0.076,-0.565,0.528,-0.473,-0.705,2487.13,-0.224,0.560,-0.895,-0.895,0.443,0.057,0.336,0.704,-0.626,2523.82,-0.112,0.671,0.112,-0.203,0.104,0.974,0.495,0.821,-0.284,9.866,6.504,0.137,-1.725,0.193,0.782,-0.592,10.510,-4.656,-4.626,-1.160,none
7.643236,0.809,0.529,0.255,2481.27,0.895,1.119,-0.560,-0.768,-0.217,-0.602,0.905,0.403,0.139,2511.16,0.336,0.671,-0.895,-0.803,0.085,-0.589,0.537,-0.474,-0.697,2443.06,-0.560,-0.224,-0.671,-0.889,0.447,0.099,0.339,0.703,-0.625,2526.86,-1.231,1.007,0.000,-0.213,0.094,0.973,0.490,0.826,-0.280,9.883,6.489,0.550,-1.496,0.186,0.785,-0.591,10.516,-4.718,-4.366,-0.992,none
7.643322,0.810,0.526,0.259,2478.57,0.560,0.448,-0.448,-0.755,-0.220,-0.617,0.908,0.394,0.144,2491.42,0.560,0.560,-0.783,-0.815,0.075,-0.575,0.536,-0.477,-0.696,2448.51,-0.560,-0.224,-1.007,-0.865,0.464,0.190,0.338,0.705,-0.624,2533.90,-0.336,0.448,-0.112,-0.207,0.109,0.972,0.489,0.827,-0.276,9.856,5.817,0.550,-1.985,0.187,0.789,-0.586,10.492,-5.573,-4.504,-1.450,none
7.643401,0.812,0.521,0.263,2484.07,0.336,0.671,0.560,-0.742,-0.193,-0.642,0.908,0.394,0.140,2491.05,0.448,0.336,0.112,-0.814,0.066,-0.577,0.538,-0.471,-0.699,2438.34,0.336,0.000,-0.224,-0.879,0.455,0.141,0.337,0.703,-0.626,2540.85,0.895,0.224,0.000,-0.221,0.091,0.971,0.494,0.824,-0.279,9.840,5.374,0.580,-2.305,0.192,0.783,-0.592,10.479,-5.985,-4.489,-1.649,none
7.644982,0.809,0.529,0.255,2481.27,0.000,0.224,0.783,-0.773,-0.235,-0.589,0.907,0.397,0.140,2495.01,0.448,0.336,0.783,-0.792,0.055,-0.607,0.536,-0.473,-0.700,2450.75,0.783,0.560,-0.448,-0.882,0.459,0.105,0.334,0.701,-0.630,2506.43,1.231,0.000,0.000,-0.199,0.106,0.974,0.492,0.823,-0.282,9.777,5.679,0.611,-1.664,0.191,0.781,-0.595,10.440,-5.466,-4.260,-1.069,none
7.645093,0.809,0.527,0.260,2471.29,0.783,0.336,-0.112,-0.777,-0.202,-0.597,0.911,0.389,0.140,2496.23,1.007,0.224,0.000,-0.810,0.060,-0.583,0.529,-0.481,-0.699,2466.78,0.112,-0.112,-0.671,-0.891,0.437,0.120,0.337,0.694,-0.636,2515.53,-0.783,0.000,-0.224,-0.203,0.111,0.973,0.489,0.826,-0.279,9.790,6.168,-0.137,-0.763,0.186,0.785,-0.590,10.456,-4.794,-4.763,-0.229,none
7.645184,0.815,0.519,0.258,2453.00,-0.336,-0.112,-1.231,-0.754,-0.211,-0.622,0.910,0.390,0.140,2487.13,-0.448,-0.224,-1.119,-0.801,0.085,-0.593,0.535,-0.479,-0.696,2436.73,-1.007,-0.560,0.336,-0.890,0.436,0.135,0.338,0.703,-0.625,2510.53,-1.119,0.000,-0.112,-0.202,0.115,0.973,0.491,0.828,-0.272,9.860,5.664,-0.107,-1.481,0.185,0.788,-0.587,10.488,-5.420,-4.779,-0.962,none
7.645269,0.810,0.524,0.261,2465.22,0.000,0.448,0.000,-0.770,-0.237,-0.592,0.908,0.395,0.141,2481.06,-0.560,-0.112,-0.224,-0.811,0.054,-0.583,0.543,-0.467,-0.698,2417.09,0.112,0.560,0.000,-0.884,0.459,0.091,0.337,0.706,-0.623,2518.28,0.336,0.112,0.224,-0.213,0.100,0.972,0.496,0.821,-0.282,9.812,5.130,0.229,-1.924,0.190,0.781,-0.595,10.459,-6.000,-4.733,-1.282,none
7.657724,0.804,0.535,0.260,2472.50,-0.112,-0.112,0.671,-0.760,-0.238,-0.605,0.905,0.402,0.140,2489.04,-0.336,0.112,0.671,-0.797,0.086,-0.598,0.536,-0.473,-0.700,2450.75,0.560,0.671,-0.448,-0.883,0.444,0.152,0.336,0.700,-0.630,2523.09,0.560,0.000,0.224,-0.209,0.101,0.973,0.494,0.821,-0.287,9.820,6.107,-0.015,-1.603,0.190,0.780,-0.597,10.469,-5.008,-4.779,-1.099,none
7.678358,0.807,0.530,0.260,2476.57,-0.336,0.224,-0.448,-0.757,-0.199,-0.623,0.905,0.402,0.140,2489.04,0.000,0.224,-0.895,-0.809,0.072,-0.584,0.535,-0.468,-0.703,2452.36,-0.560,-0.112,0.000,-0.894,0.441,0.081,0.340,0.701,-0.627,2520.54,-0.671,0.224,0.000,-0.206,0.113,0.972,0.491,0.825,-0.281,9.877,6.427,0.061,-1.191,0.187,0.786,-0.590,10.512,-4.718,-4.519,-0.840,none
7.701477,0.812,0.524,0.259,2486.68,-0.112,0.448,-0.895,-0.744,-0.198,-0.638,0.909,0.392,0.140,2500.14,0.671,0.336,-0.783,-0.804,0.056,-0.592,0.534,-0.478,-0.698,2443.70,-0.448,-0.336,-0.448,-0.901,0.426,0.079,0.338,0.701,-0.628,2533.83,-0.783,0.224,-0.336,-0.213,0.095,0.972,0.488,0.827,-0.279,9.880,5.542,0.107,-1.466,0.184,0.787,-0.589,10.516,-5.679,-4.763,-0.931,none
7.722520,0.812,0.523,0.260,2474.14,0.224,-0.112,0.336,-0.775,-0.242,-0.584,0.908,0.394,0.140,2491.05,-0.112,0.112,0.000,-0.795,0.056,-0.605,0.538,-0.471,-0.699,2438.34,0.112,-0.224,0.560,-0.900,0.432,0.062,0.339,0.703,-0.625,2526.86,0.560,-0.336,0.000,-0.203,0.111,0.973,0.493,0.821,-0.289,9.809,5.038,0.305,-1.557,0.186,0.780,-0.597,10.464,-6.076,-4.702,-0.916,none
8.146513,0.806,0.532,0.260,2468.51,-0.112,-0.448,0.336,-0.775,-0.184,-0.605,0.904,0.403,0.141,2480.90,-0.112,-0.224,0.560,-0.815,0.076,-0.575,0.536,-0.473,-0.700,2450.75,0.112,0.448,-0.336,-0.895,0.436,0.095,0.336,0.700,-0.630,2523.09,0.336,-0.112,0.000,-0.211,0.102,0.972,0.495,0.820,-0.286,9.772,5.985,0.061,-1.450,0.190,0.779,-0.598,10.456,-5.130,-4.702,-0.916,none
8.147285,0.804,0.534,0.261,2459.65,-0.336,0.112,-0.560,-0.763,-0.206,-0.613,0.903,0.405,0.145,2472.24,-0.112,0.000,-0.112,-0.821,0.082,-0.565,0.534,-0.471,-0.702,2457.05,-0.224,0.000,-0.224,-0.862,0.476,0.175,0.338,0.703,-0.625,2510.53,-1.007,0.000,-0.112,-0.210,0.102,0.972,0.493,0.825,-0.277,9.810,6.153,0.168,-1.725,0.188,0.784,-0.591,10.458,-5.099,-4.595,-1.282,none
8.147393,0.813,0.522,0.258,2458.21,0.112,0.448,-0.336,-0.759,-0.206,-0.617,0.908,0.393,0.141,2468.95,0.448,0.671,-0.560,-0.823,0.066,-0.564,0.543,-0.475,-0.693,2418.85,0.112,0.224,-0.336,-0.884,0.453,0.115,0.341,0.707,-0.620,2515.11,-0.224,0.224,0.000,-0.209,0.101,0.973,0.490,0.825,-0.282,9.791,5.557,0.336,-1.893,0.186,0.781,-0.597,10.466,-5.618,-4.748,-1.328,none
8.147496,0.806,0.529,0.265,2465.03,0.336,0.448,0.448,-0.756,-0.222,-0.615,0.905,0.400,0.148,2479.63,0.448,0.560,0.112,-0.798,0.078,-0.598,0.536,-0.473,-0.700,2450.75,0.000,0.783,-0.671,-0.877,0.459,0.144,0.339,0.699,-0.629,2526.12,0.224,0.671,0.336,-0.212,0.110,0.971,0.488,0.823,-0.290,9.782,6.458,-0.076,-1.878,0.183,0.779,-0.599,10.457,-4.687,-4.901,-1.389,none
8.147591,0.808,0.528,0.263,2487.26,0.000,0.895,-0.336,-0.768,-0.201,-0.608,0.905,0.401,0.143,2499.36,-0.336,0.671,-0.224,-0.786,0.072,-0.614,0.535,-0.476,-0.698,2454.79,-0.560,0.448,-1.007,-0.890,0.442,0.111,0.337,0.700,-0.630,2539.48,-0.671,0.560,0.448,-0.209,0.106,0.972,0.492,0.825,-0.277,9.852,6.916,-0.427,-1.649,0.189,0.786,-0.588,10.505,-4.153,-5.069,-1.130,none
8.150550,0.816,0.520,0.251,2484.76,-0.783,0.560,-1.119,-0.761,-0.218,-0.611,0.910,0.391,0.139,2509.23,-0.448,1.007,-1.231,-0.802,0.079,-0.593,0.535,-0.476,-0.698,2454.79,-0.671,0.224,-0.560,-0.905,0.415,0.096,0.342,0.704,-0.623,2537.30,-0.783,0.336,0.336,-0.209,0.107,0.972,0.493,0.826,-0.275,9.881,5.771,-0.046,-1.817,0.191,0.787,-0.587,10.526,-5.389,-4.885,-1.099,none
8.150668,0.811,0.526,0.256,2476.00,0.112,0.112,0.112,-0.768,-0.217,-0.602,0.910,0.393,0.136,2497.85,0.000,0.112,0.000,-0.815,0.076,-0.575,0.537,-0.469,-0.701,2446.04,-0.224,0.112,-0.112,-0.879,0.466,0.099,0.337,0.702,-0.628,2517.50,0.560,0.224,0.000,-0.206,0.108,0.973,0.488,0.826,-0.282,9.790,4.763,0.443,-1.756,0.187,0.782,-0.594,10.477,-6.336,-4.519,-1.023,none
8.150759,0.810,0.524,0.265,2468.66,0.448,-0.560,0.895,-0.776,-0.227,-0.588,0.905,0.400,0.148,2479.63,0.112,-0.560,0.783,-0.794,0.062,-0.605,0.536,-0.477,-0.696,2448.51,0.560,-0.112,0.000,-0.871,0.461,0.168,0.340,0.705,-0.623,2521.32,0.783,-0.560,0.336,-0.203,0.100,0.974,0.494,0.820,-0.288,9.747,5.557,0.046,-1.832,0.189,0.778,-0.599,10.399,-5.511,-4.794,-1.145,none
8.150844,0.803,0.536,0.262,2451.62,-0.336,0.112,-0.112,-0.763,-0.212,-0.611,0.901,0.408,0.145,2477.21,-0.671,0.112,0.112,-0.796,0.067,-0.602,0.540,-0.472,-0.697,2431.36,0.112,0.000,0.112,-0.867,0.483,0.125,0.338,0.703,-0.625,2510.53,-0.112,0.224,0.112,-0.213,0.099,0.972,0.493,0.821,-0.287,9.813,6.305,0.260,-2.015,0.188,0.778,-0.599,10.430,-4.962,-4.443,-1.511,none
8.666259,0.805,0.532,0.264,2470.33,0.448,1.119,-0.224,-0.761,-0.218,-0.611,0.905,0.400,0.145,2477.26,0.224,0.783,-0.224,-0.794,0.062,-0.605,0.540,-0.472,-0.697,2431.36,0.000,-0.224,-0.783,-0.900,0.422,0.113,0.340,0.705,-0.623,2521.32,-0.448,0.671,0.224,-0.195,0.113,0.974,0.488,0.825,-0.285,9.839,6.000,0.168,-2.046,0.187,0.784,-0.591,10.466,-5.298,-4.702,-1.435,none
8.666419,0.810,0.524,0.261,2465.22,0.336,0.783,0.224,-0.775,-0.221,-0.592,0.908,0.394,0.140,2491.05,0.112,0.671,0.000,-0.803,0.072,-0.592,0.537,-0.470,-0.700,2462.41,-0.224,0.671,-0.783,-0.897,0.432,0.098,0.338,0.701,-0.628,2533.83,0.224,0.224,0.112,-0.214,0.102,0.971,0.489,0.825,-0.283,9.847,6.244,-0.031,-2.061,0.186,0.783,-0.594,10.491,-5.053,-4.947,-1.511,none
8.666535,0.807,0.530,0.260,2476.57,0.112,1.119,0.000,-0.768,-0.217,-0.603,0.906,0.397,0.147,2497.73,0.000,0.671,0.000,-0.801,0.083,-0.593,0.534,-0.482,-0.694,2441.06,-0.336,-0.224,-0.783,-0.882,0.453,0.130,0.340,0.701,-0.627,2520.54,-0.224,0.224,0.112,-0.210,0.101,0.972,0.493,0.822,-0.285,9.825,5.817,0.122,-1.725,0.189,0.782,-0.594,10.476,-5.298,-4.794,-1.084,none
8.666646,0.811,0.526,0.256,2476.00,0.560,0.448,-0.112,-0.756,-0.207,-0.621,0.907,0.395,0.144,2483.25,0.560,0.112,0.000,-0.801,0.060,-0.596,0.537,-0.469,-0.701,2446.04,-0.224,0.224,0.000,-0.885,0.449,0.118,0.340,0.701,-0.627,2520.54,-0.560,0.448,0.000,-0.210,0.102,0.972,0.488,0.824,-0.288,9.834,5.771,0.137,-1.618,0.185,0.782,-0.595,10.465,-5.313,-4.885,-0.962,none
