1.576888,BNO0_UnitAccX,BNO0_UnitAccY,BNO0_UnitAccZ,BNO0_RawAccMag,BNO0_GyrX,BNO0_GyrY,BNO0_GyrZ,BNO0_MagX,BNO0_MagY,BNO0_MagZ,BNO1_UnitAccX,BNO1_UnitAccY,BNO1_UnitAccZ,BNO1_RawAccMag,BNO1_GyrX,BNO1_GyrY,BNO1_GyrZ,BNO1_MagX,BNO1_MagY,BNO1_MagZ,BNO2_UnitAccX,BNO2_UnitAccY,BNO2_UnitAccZ,BNO2_RawAccMag,BNO2_GyrX,BNO2_GyrY,BNO2_GyrZ,BNO2_MagX,BNO2_MagY,BNO2_MagZ,BNO3_UnitAccX,BNO3_UnitAccY,BNO3_UnitAccZ,BNO3_RawAccMag,BNO3_GyrX,BNO3_GyrY,BNO3_GyrZ,BNO3_MagX,BNO3_MagY,BNO3_MagZ,MPU0_UnitAccX,MPU0_UnitAccY,MPU0_UnitAccZ,MPU0_RawAccMag,MPU0_GyrX,MPU0_GyrY,MPU0_GyrZ,MPU1_UnitAccX,MPU1_UnitAccY,MPU1_UnitAccZ,MPU1_RawAccMag,MPU1_GyrX,MPU1_GyrY,MPU1_GyrZ,none
1.577057,-0.086,0.987,-0.137,2456.26,2.462,-1.455,0.448,0.032,-0.932,-0.361,0.409,0.537,-0.738,2503.39,0.336,-2.798,2.574,-0.605,-0.757,0.246,0.356,-0.471,-0.807,2464.38,-3.469,0.560,1.007,-0.829,0.510,0.228,-0.519,0.662,-0.540,2489.48,-0.560,-1.231,0.671,0.136,-0.395,0.909,0.992,0.037,-0.122,10.082,5.649,1.847,-0.840,0.932,0.157,-0.327,10.853,-6.000,-3.191,-0.412,none
1.577167,-0.086,0.987,-0.136,2466.13,2.462,-1.007,0.224,0.040,-0.952,-0.304,0.412,0.543,-0.732,2532.40,0.336,-3.245,1.007,-0.596,-0.759,0.261,0.357,-0.474,-0.805,2509.04,-2.686,-0.112,0.000,-0.825,0.527,0.205,-0.516,0.665,-0.541,2506.16,-1.007,-1.343,0.336,0.122,-0.387,0.914,0.991,0.043,-0.130,10.047,5.771,2.229,-1.206,0.930,0.162,-0.329,10.767,-5.817,-3.878,-0.748,none
1.577256,-0.086,0.987,-0.133,2455.90,3.805,-0.112,1.679,0.040,-0.939,-0.342,0.415,0.532,-0.738,2489.43,1.231,-3.917,1.455,-0.597,-0.771,0.222,0.348,-0.478,-0.806,2489.95,-4.588,-2.462,0.448,-0.832,0.512,0.213,-0.519,0.662,-0.540,2489.48,0.112,-1.119,-0.336,0.116,-0.389,0.914,0.991,0.041,-0.126,9.994,5.664,1.954,-0.901,0.931,0.168,-0.324,10.745,-6.046,-4.214,-0.183,none
1.577341,-0.075,0.989,-0.130,2432.49,5.371,0.000,2.350,0.039,-0.950,-0.310,0.424,0.515,-0.745,2437.72,2.126,-3.469,1.343,-0.604,-0.772,0.199,0.341,-0.479,-0.809,2483.87,-6.379,-3.805,0.112,-0.829,0.523,0.201,-0.519,0.662,-0.540,2489.48,-0.448,-1.007,0.112,0.132,-0.379,0.916,0.992,0.052,-0.119,10.030,5.405,1.542,0.015,0.930,0.173,-0.325,10.772,-6.336,-4.977,0.809,none
1.577425,-0.086,0.987,-0.133,2455.90,7.833,0.000,1.902,0.034,-0.951,-0.306,0.423,0.520,-0.742,2511.99,0.671,-3.581,0.895,-0.600,-0.761,0.246,0.344,-0.482,-0.806,2492.09,-9.288,-4.364,-0.224,-0.844,0.497,0.200,-0.514,0.663,-0.543,2511.58,-0.895,-0.895,1.007,0.113,-0.376,0.920,0.991,0.042,-0.126,10.034,5.084,2.824,0.336,0.929,0.161,-0.332,10.760,-6.595,-3.053,0.733,none
1.577506,-0.086,0.986,-0.145,2450.06,6.379,-0.671,1.455,0.059,-0.941,-0.333,0.406,0.539,-0.738,2474.78,-0.448,-4.588,0.783,-0.614,-0.763,0.201,0.354,-0.468,-0.810,2479.74,-6.826,-1.902,0.000,-0.802,0.552,0.227,-0.513,0.666,-0.542,2518.89,-1.455,-1.455,1.119,0.121,-0.379,0.917,0.991,0.035,-0.125,10.050,5.588,2.183,-0.427,0.931,0.155,-0.330,10.767,-5.954,-3.313,0.031,none
1.577587,-0.086,0.985,-0.150,2440.69,2.910,-0.336,0.671,0.043,-0.945,-0.323,0.401,0.543,-0.738,2476.89,0.336,-3.021,0.560,-0.599,-0.757,0.261,0.359,-0.458,-0.813,2470.22,-3.581,-0.112,0.336,-0.830,0.503,0.239,-0.517,0.666,-0.538,2500.77,-1.007,-0.783,0.448,0.102,-0.392,0.914,0.992,0.028,-0.122,10.003,6.824,1.298,-0.992,0.934,0.149,-0.325,10.716,-4.626,-3.908,-0.473,none
1.577676,-0.091,0.984,-0.154,2434.23,0.448,0.112,-0.224,0.050,-0.946,-0.321,0.397,0.548,-0.736,2454.17,0.336,-1.902,0.112,-0.576,-0.775,0.262,0.362,-0.450,-0.816,2472.18,-1.119,0.560,0.000,-0.826,0.510,0.242,-0.512,0.670,-0.538,2502.30,-1.007,-0.112,0.000,0.109,-0.371,0.922,0.992,0.034,-0.122,10.007,8.183,0.641,-1.725,0.932,0.155,-0.328,10.698,-3.252,-5.481,-0.962,none
1.984787,-0.090,0.985,-0.149,2442.56,-1.007,0.448,0.112,0.050,-0.946,-0.321,0.408,0.534,-0.741,2462.03,0.895,-0.224,-0.112,-0.623,-0.756,0.200,0.354,-0.460,-0.814,2478.57,1.567,-0.895,0.560,-0.800,0.532,0.276,-0.508,0.670,-0.541,2502.60,0.112,0.224,-0.895,0.102,-0.382,0.919,0.992,0.037,-0.123,10.005,7.786,-0.260,-2.382,0.932,0.160,-0.326,10.754,-3.573,-7.008,-1.145,none
1.985018,-0.082,0.986,-0.144,2459.16,-0.448,0.336,0.783,0.049,-0.960,-0.275,0.422,0.526,-0.739,2497.89,0.895,-0.112,1.343,-0.608,-0.768,0.200,0.348,-0.478,-0.806,2489.95,-0.112,-2.014,0.560,-0.825,0.519,0.225,-0.514,0.663,-0.544,2472.51,1.679,0.112,-1.231,0.109,-0.378,0.919,0.992,0.045,-0.121,10.010,7.511,1.053,-1.817,0.930,0.163,-0.328,10.763,-4.031,-5.267,-0.962,none
1.985138,-0.079,0.987,-0.138,2434.95,1.231,0.224,0.895,0.035,-0.946,-0.323,0.412,0.527,-0.743,2456.38,0.336,-2.686,1.231,-0.607,-0.743,0.283,0.345,-0.474,-0.810,2429.01,-1.679,-1.343,0.671,-0.832,0.512,0.213,-0.522,0.654,-0.547,2475.17,1.007,-0.112,-0.895,0.106,-0.381,0.918,0.991,0.041,-0.128,9.902,8.321,1.756,-0.809,0.928,0.160,-0.336,10.648,-3.206,-4.214,-0.046,none
1.985256,-0.076,0.987,-0.142,2435.87,0.112,-0.336,-0.783,0.023,-0.936,-0.350,0.413,0.521,-0.747,2430.25,0.336,-3.133,0.224,-0.583,-0.771,0.257,0.344,-0.467,-0.815,2464.60,-0.560,1.007,0.112,-0.820,0.534,0.208,-0.522,0.658,-0.543,2475.62,-1.119,0.336,0.448,0.109,-0.371,0.922,0.991,0.035,-0.133,9.968,10.382,1.435,0.321,0.929,0.151,-0.339,10.721,-1.191,-5.496,1.496,none
1.985788,-0.083,0.987,-0.138,2435.98,-0.224,-0.783,-2.126,0.052,-0.947,-0.318,0.409,0.528,-0.744,2451.94,-2.910,-4.476,0.783,-0.589,-0.751,0.300,0.345,-0.468,-0.814,2481.68,-0.336,2.686,0.000,-0.822,0.525,0.221,-0.516,0.663,-0.542,2501.51,-1.902,0.671,1.343,0.105,-0.378,0.920,0.990,0.036,-0.134,10.084,12.092,0.595,1.115,0.929,0.152,-0.337,10.819,0.489,-7.725,2.443,none
1.985904,-0.090,0.985,-0.145,2470.13,-1.567,-1.679,-2.798,0.056,-0.958,-0.281,0.402,0.546,-0.735,2496.41,-2.798,-1.902,0.448,-0.586,-0.767,0.260,0.355,-0.464,-0.811,2499.49,0.000,2.350,0.000,-0.823,0.516,0.237,-0.511,0.668,-0.540,2507.69,-0.560,0.560,1.007,0.105,-0.371,0.923,0.992,0.028,-0.125,10.148,13.130,0.611,0.244,0.933,0.146,-0.330,10.894,1.405,-7.985,1.435,none
1.985998,-0.098,0.985,-0.144,2479.89,-2.126,-0.895,-1.567,0.049,-0.944,-0.326,0.407,0.539,-0.738,2514.13,-1.007,-1.567,-0.112,-0.585,-0.780,0.221,0.360,-0.464,-0.809,2544.27,0.560,0.783,0.336,-0.822,0.515,0.243,-0.505,0.669,-0.545,2519.61,0.112,0.000,0.000,0.109,-0.372,0.922,0.993,0.035,-0.116,10.172,11.740,1.038,-0.565,0.932,0.154,-0.329,10.877,-0.275,-7.069,0.336,none
1.986092,-0.094,0.985,-0.143,2489.77,-0.112,-0.448,-0.336,0.044,-0.958,-0.283,0.401,0.548,-0.734,2525.84,0.112,-1.343,0.224,-0.568,-0.773,0.283,0.351,-0.465,-0.813,2496.78,-1.455,-1.007,0.112,-0.834,0.515,0.197,-0.509,0.666,-0.546,2518.68,0.448,-0.448,-0.783,0.116,-0.382,0.917,0.993,0.041,-0.115,10.099,8.916,1.176,-2.015,0.931,0.160,-0.328,10.824,-3.008,-6.168,-1.252,none
1.988925,-0.082,0.987,-0.141,2467.96,0.336,-0.336,1.231,0.030,-0.930,-0.367,0.415,0.520,-0.746,2510.53,1.679,-1.902,1.007,-0.586,-0.754,0.299,0.345,-0.470,-0.812,2510.77,-1.679,-1.790,1.343,-0.829,0.523,0.201,-0.516,0.665,-0.541,2506.16,0.112,-0.671,-1.231,0.123,-0.382,0.916,0.992,0.037,-0.118,10.040,7.908,1.160,-2.366,0.931,0.155,-0.330,10.774,-3.771,-5.542,-1.634,none
1.989037,-0.079,0.987,-0.141,2457.37,1.007,-0.112,1.679,0.047,-0.950,-0.309,0.395,0.545,-0.740,2466.17,1.231,-1.567,0.895,-0.564,-0.753,0.338,0.345,-0.466,-0.815,2514.23,-1.902,-1.343,1.231,-0.834,0.515,0.197,-0.519,0.658,-0.545,2487.64,0.783,-0.560,-1.343,0.121,-0.384,0.915,0.993,0.036,-0.117,10.037,8.840,1.817,-1.786,0.931,0.151,-0.332,10.796,-2.916,-4.366,-1.252,none
1.989131,-0.080,0.987,-0.142,2436.65,0.895,0.783,1.231,0.046,-0.951,-0.304,0.407,0.524,-0.748,2490.72,1.007,-2.350,-0.671,-0.577,-0.760,0.300,0.345,-0.466,-0.815,2427.73,-0.895,-1.679,0.671,-0.827,0.512,0.232,-0.519,0.662,-0.540,2489.48,-0.336,-0.112,-1.007,0.116,-0.376,0.919,0.991,0.045,-0.122,10.004,8.443,1.450,-1.985,0.928,0.161,-0.336,10.690,-3.145,-4.046,-1.573,none
1.989221,-0.079,0.987,-0.142,2446.52,-2.126,-0.112,0.783,0.055,-0.946,-0.320,0.417,0.521,-0.745,2503.82,0.783,-1.119,-0.336,-0.584,-0.782,0.217,0.341,-0.472,-0.813,2482.94,2.014,-0.671,1.567,-0.836,0.509,0.203,-0.508,0.666,-0.546,2502.02,-0.783,-0.560,-1.231,0.101,-0.381,0.919,0.992,0.039,-0.123,10.032,5.679,0.519,-3.450,0.928,0.160,-0.336,10.757,-5.832,-5.145,-2.641,none
3.512811,-0.083,0.988,-0.130,2453.18,-2.462,-1.007,2.126,0.051,-0.949,-0.311,0.410,0.536,-0.738,2471.06,2.126,-1.343,2.574,-0.575,-0.781,0.244,0.348,-0.473,-0.810,2518.48,1.007,-1.007,2.686,-0.826,0.505,0.250,-0.518,0.658,-0.547,2476.53,0.560,-1.231,-1.455,0.111,-0.385,0.916,0.993,0.023,-0.118,10.051,6.534,2.031,-1.893,0.931,0.145,-0.334,10.783,-4.977,-3.313,-1.298,none
3.512986,-0.082,0.987,-0.141,2467.96,0.112,-0.560,0.895,0.042,-0.943,-0.331,0.405,0.531,-0.744,2476.88,1.343,-1.455,0.224,-0.588,-0.765,0.263,0.346,-0.467,-0.813,2505.27,-1.231,-0.336,1.343,-0.824,0.518,0.231,-0.518,0.665,-0.539,2496.11,-0.336,-1.679,-0.336,0.098,-0.374,0.922,0.992,0.036,-0.117,10.065,6.794,2.550,-1.084,0.931,0.154,-0.332,10.764,-4.962,-2.947,-0.779,none
3.513094,-0.087,0.986,-0.145,2459.39,1.343,0.000,1.231,0.043,-0.932,-0.359,0.396,0.545,-0.739,2483.71,0.000,-4.364,0.783,-0.605,-0.752,0.261,0.345,-0.463,-0.816,2484.36,-1.455,-1.119,1.231,-0.815,0.525,0.246,-0.514,0.667,-0.539,2513.49,-1.119,-1.119,-0.224,0.105,-0.367,0.924,0.992,0.032,-0.123,10.044,6.000,1.878,-2.427,0.930,0.151,-0.334,10.733,-5.557,-3.573,-1.985,none
3.513195,-0.086,0.986,-0.145,2469.25,-3.245,-1.455,1.790,0.039,-0.939,-0.342,0.395,0.533,-0.748,2464.87,1.679,-1.567,0.783,-0.579,-0.765,0.282,0.353,-0.461,-0.814,2515.75,3.805,-0.112,3.021,-0.832,0.505,0.229,-0.516,0.663,-0.542,2501.51,-0.783,-1.119,-1.231,0.122,-0.383,0.916,0.992,0.030,-0.122,10.064,8.183,1.634,-2.840,0.931,0.148,-0.334,10.811,-3.527,-4.015,-2.336,none
3.513285,-0.083,0.987,-0.137,2456.71,-4.141,-1.119,1.679,0.045,-0.947,-0.317,0.391,0.547,-0.740,2491.89,2.798,-1.119,0.448,-0.594,-0.739,0.318,0.345,-0.466,-0.815,2514.23,3.917,-0.448,3.133,-0.832,0.517,0.202,-0.521,0.663,-0.538,2500.64,0.671,-1.679,-2.014,0.112,-0.374,0.921,0.992,0.036,-0.119,10.020,10.321,1.374,-2.366,0.931,0.153,-0.332,10.736,-1.481,-5.481,-1.710,none
3.513369,-0.079,0.987,-0.138,2445.12,-2.126,-0.224,1.790,0.024,-0.941,-0.336,0.409,0.521,-0.749,2503.03,2.014,-0.560,0.000,-0.577,-0.781,0.241,0.341,-0.469,-0.815,2456.29,1.007,-1.343,2.014,-0.837,0.510,0.199,-0.526,0.658,-0.539,2476.10,1.007,-1.231,-1.679,0.109,-0.372,0.922,0.994,0.039,-0.106,10.017,9.542,1.802,-1.847,0.930,0.162,-0.331,10.781,-2.458,-4.672,-1.450,none
3.513453,-0.083,0.989,-0.126,2443.01,-0.224,0.448,1.567,0.046,-0.950,-0.308,0.420,0.509,-0.751,2483.20,1.679,-2.014,-0.448,-0.580,-0.751,0.317,0.342,-0.481,-0.807,2453.04,-1.007,-2.014,0.783,-0.843,0.500,0.200,-0.521,0.656,-0.546,2481.06,-0.895,-1.343,-1.343,0.092,-0.367,0.926,0.991,0.036,-0.130,10.052,9.344,2.962,-1.618,0.926,0.149,-0.347,10.778,-2.656,-4.061,-1.206,none
3.513535,-0.079,0.988,-0.129,2462.34,0.448,-0.671,1.679,0.029,-0.928,-0.372,0.417,0.510,-0.752,2478.27,1.567,-4.812,1.231,-0.564,-0.754,0.336,0.341,-0.483,-0.807,2488.69,-2.350,-0.895,1.902,-0.840,0.504,0.199,-0.518,0.657,-0.548,2493.10,-1.231,-2.126,-1.007,0.102,-0.372,0.923,0.988,0.011,-0.151,10.171,17.954,3.359,0.351,0.920,0.137,-0.367,10.550,5.221,-6.656,-1.893,none
3.513617,-0.079,0.987,-0.141,2457.37,-1.231,-2.238,0.224,0.037,-0.932,-0.361,0.403,0.526,-0.749,2463.55,-0.224,-6.043,1.343,-0.609,-0.755,0.243,0.350,-0.456,-0.818,2479.91,-2.910,1.679,3.133,-0.836,0.498,0.230,-0.526,0.657,-0.539,2493.33,-1.343,-2.126,-0.671,0.089,-0.368,0.926,0.992,0.028,-0.121,9.951,25.069,3.145,2.595,0.929,0.140,-0.342,10.792,11.435,-11.359,-0.855,none
3.513705,-0.080,0.988,-0.135,2435.00,-1.790,-1.567,-0.448,0.046,-0.937,-0.346,0.385,0.541,-0.748,2428.72,0.000,-2.574,-0.783,-0.600,-0.742,0.299,0.349,-0.462,-0.815,2429.48,-1.902,0.448,2.126,-0.832,0.517,0.202,-0.524,0.662,-0.537,2505.86,-0.336,-1.343,-0.560,0.105,-0.367,0.924,0.994,0.039,-0.102,10.023,25.344,0.076,1.771,0.930,0.164,-0.328,10.697,11.863,-11.893,-0.076,none
3.513797,-0.079,0.987,-0.142,2446.52,-5.371,-1.343,-1.902,0.036,-0.942,-0.333,0.397,0.529,-0.750,2501.33,0.783,-1.455,-0.224,-0.579,-0.767,0.278,0.346,-0.460,-0.818,2504.62,1.679,1.679,2.014,-0.822,0.527,0.217,-0.519,0.666,-0.536,2490.74,-0.448,0.000,-0.895,0.109,-0.372,0.922,0.996,0.013,-0.092,10.116,20.534,0.947,1.221,0.937,0.140,-0.321,10.928,7.908,-13.893,-2.916,none
3.513878,-0.090,0.985,-0.148,2480.46,-2.350,-0.560,-0.336,0.029,-0.940,-0.340,0.389,0.537,-0.749,2504.12,1.119,-2.126,-0.448,-0.592,-0.764,0.258,0.357,-0.450,-0.819,2538.68,-0.560,-0.336,1.007,-0.824,0.513,0.238,-0.523,0.669,-0.528,2507.85,-1.231,0.224,-1.119,0.105,-0.379,0.919,0.995,0.027,-0.091,10.060,15.557,0.733,0.626,0.932,0.151,-0.329,10.790,3.603,-9.221,-1.557,none
3.516732,-0.091,0.986,-0.142,2448.99,0.783,1.567,-0.112,0.035,-0.925,-0.379,0.386,0.537,-0.750,2523.73,1.790,-3.133,-1.119,-0.595,-0.761,0.260,0.351,-0.455,-0.818,2467.17,-1.902,-2.014,-0.783,-0.830,0.508,0.228,-0.514,0.667,-0.539,2513.49,-1.455,1.231,-2.350,0.093,-0.378,0.921,0.989,-0.013,-0.150,10.137,19.634,-2.214,1.924,0.920,0.112,-0.375,10.821,8.397,-15.924,-0.840,none
3.516850,-0.083,0.987,-0.141,2458.10,-1.343,2.126,0.560,0.033,-0.935,-0.352,0.379,0.540,-0.752,2416.22,4.700,-4.924,2.910,-0.600,-0.761,0.246,0.345,-0.471,-0.812,2485.56,-0.336,-2.462,-0.112,-0.798,0.553,0.238,-0.523,0.662,-0.536,2488.64,-0.112,1.455,-4.476,0.109,-0.376,0.920,0.995,0.045,-0.084,9.972,19.084,-2.137,1.679,0.928,0.172,-0.331,10.760,7.481,-14.763,-1.420,none
3.516939,-0.075,0.989,-0.126,2450.41,-2.238,2.014,-0.448,0.044,-0.931,-0.362,0.396,0.530,-0.750,2460.84,3.357,-0.448,0.112,-0.590,-0.756,0.282,0.337,-0.471,-0.815,2487.22,-1.231,-2.014,-0.560,-0.798,0.550,0.246,-0.527,0.659,-0.537,2487.95,0.560,0.895,-3.469,0.093,-0.373,0.923,0.993,0.045,-0.107,9.926,14.076,-0.824,-0.962,0.922,0.169,-0.348,10.681,2.565,-9.420,-2.534,none
3.517023,-0.064,0.990,-0.123,2417.39,-2.014,2.126,-0.112,0.030,-0.942,-0.335,0.403,0.516,-0.756,2414.16,3.133,-0.336,0.783,-0.594,-0.754,0.281,0.324,-0.474,-0.819,2431.81,1.902,-1.007,-0.671,-0.833,0.498,0.240,-0.529,0.653,-0.542,2479.58,0.448,1.455,-2.910,0.122,-0.381,0.916,0.993,0.029,-0.112,9.943,7.511,-1.176,-2.397,0.921,0.156,-0.356,10.729,-3.634,-6.641,-2.168,none
3.518016,-0.079,0.990,-0.121,2468.74,-0.671,0.671,-0.560,0.056,-0.944,-0.324,0.409,0.521,-0.749,2503.03,0.112,1.231,-0.783,-0.577,-0.744,0.338,0.335,-0.480,-0.811,2501.49,1.343,-0.224,-1.007,-0.814,0.530,0.236,-0.524,0.655,-0.545,2486.94,-1.343,0.560,-0.112,0.116,-0.380,0.917,0.992,0.023,-0.123,10.094,6.641,0.458,-1.695,0.921,0.145,-0.363,10.820,-4.611,-4.534,-1.359,none
3.518107,-0.082,0.988,-0.133,2464.38,-1.231,-0.336,0.112,0.035,-0.949,-0.313,0.391,0.540,-0.745,2488.44,-0.112,-0.448,0.112,-0.570,-0.758,0.316,0.345,-0.470,-0.812,2510.77,0.671,-1.119,0.336,-0.811,0.535,0.235,-0.516,0.665,-0.541,2506.16,-0.224,-0.112,-0.112,0.115,-0.381,0.918,0.993,0.008,-0.119,10.131,6.229,-0.137,-2.565,0.923,0.134,-0.360,10.853,-4.931,-6.168,-2.031,none
3.518192,-0.090,0.987,-0.136,2485.08,-0.895,-0.560,0.783,0.050,-0.931,-0.361,0.402,0.517,-0.756,2543.83,1.007,1.567,0.560,-0.586,-0.769,0.257,0.351,-0.460,-0.815,2524.36,-0.112,-1.343,0.895,-0.831,0.514,0.212,-0.522,0.661,-0.539,2494.02,0.336,-0.560,-1.007,0.116,-0.387,0.915,0.994,0.011,-0.113,10.109,6.779,0.931,-2.611,0.924,0.138,-0.356,10.857,-4.519,-5.344,-2.290,none
3.518273,-0.082,0.988,-0.133,2464.38,0.560,0.560,1.790,0.039,-0.936,-0.351,0.391,0.530,-0.753,2464.42,1.679,-1.231,0.112,-0.586,-0.754,0.299,0.341,-0.465,-0.817,2457.33,-2.014,-3.357,0.000,-0.822,0.514,0.247,-0.528,0.658,-0.537,2503.99,0.000,-0.336,-1.455,0.113,-0.378,0.919,0.993,0.026,-0.118,10.012,6.977,1.405,-2.641,0.921,0.151,-0.358,10.730,-4.443,-4.351,-2.275,none
3.518838,-0.071,0.989,-0.130,2441.06,0.783,1.231,1.119,0.030,-0.942,-0.335,0.405,0.507,-0.761,2476.89,1.455,-0.671,-0.671,-0.592,-0.764,0.258,0.331,-0.471,-0.818,2468.95,-0.560,-2.350,0.112,-0.810,0.534,0.240,-0.527,0.659,-0.537,2487.95,-0.560,-0.112,-1.007,0.118,-0.381,0.917,0.992,0.023,-0.126,9.972,6.595,0.092,-3.252,0.918,0.143,-0.369,10.714,-4.580,-6.061,-2.458,none
3.518923,-0.080,0.988,-0.131,2433.68,-0.560,0.336,1.231,0.033,-0.937,-0.347,0.393,0.524,-0.756,2453.13,1.343,0.336,1.231,-0.608,-0.764,0.214,0.336,-0.473,-0.814,2433.23,1.231,-1.119,1.567,-0.819,0.519,0.246,-0.535,0.652,-0.537,2467.05,1.007,0.000,-1.679,0.122,-0.387,0.914,0.992,0.017,-0.125,9.960,8.779,-0.626,-2.366,0.921,0.138,-0.364,10.690,-2.305,-7.130,-1.481,none
3.519006,-0.075,0.989,-0.130,2442.79,-3.021,0.000,0.448,0.039,-0.936,-0.351,0.406,0.509,-0.758,2445.73,1.679,1.455,0.783,-0.600,-0.742,0.299,0.336,-0.476,-0.813,2461.06,1.902,-1.007,1.455,-0.808,0.534,0.249,-0.532,0.648,-0.545,2467.22,1.455,0.448,-1.343,0.109,-0.387,0.916,0.990,-0.002,-0.139,10.108,12.687,0.870,0.031,0.916,0.119,-0.384,10.894,1.557,-6.656,0.382,none
3.519093,-0.086,0.988,-0.125,2462.64,-1.790,0.336,-0.895,0.034,-0.946,-0.321,0.407,0.515,-0.754,2512.88,0.000,0.224,-0.671,-0.615,-0.768,0.179,0.343,-0.470,-0.813,2470.92,0.224,0.112,0.448,-0.801,0.530,0.279,-0.528,0.655,-0.541,2486.77,0.224,-0.224,-0.448,0.121,-0.377,0.918,0.992,0.018,-0.127,10.038,19.099,0.718,2.031,0.918,0.144,-0.369,10.795,6.977,-10.595,0.733,none
3.519900,-0.079,0.990,-0.118,2448.75,-3.133,0.224,-1.902,0.047,-0.939,-0.340,0.408,0.514,-0.754,2459.53,0.671,-1.007,-0.895,-0.600,-0.742,0.299,0.332,-0.483,-0.811,2467.31,0.224,1.007,0.448,-0.819,0.515,0.253,-0.522,0.660,-0.540,2511.24,-1.007,-0.448,-0.671,0.126,-0.395,0.910,0.991,0.013,-0.133,10.068,21.924,0.336,2.427,0.915,0.133,-0.381,10.794,9.664,-12.656,-0.260,none
3.519986,-0.082,0.989,-0.125,2461.79,-4.141,-1.679,-2.462,0.046,-0.948,-0.314,0.396,0.526,-0.753,2462.32,-0.224,-0.448,0.560,-0.574,-0.770,0.280,0.338,-0.470,-0.815,2511.61,0.783,2.798,1.790,-0.815,0.521,0.253,-0.528,0.655,-0.541,2486.77,-0.560,-0.560,-0.336,0.098,-0.375,0.922,0.993,0.007,-0.114,10.095,25.466,0.550,3.191,0.921,0.135,-0.364,10.863,13.267,-12.351,-0.168,none
3.520067,-0.082,0.988,-0.133,2473.27,-2.350,-1.343,-3.021,0.030,-0.942,-0.335,0.395,0.526,-0.753,2515.60,-0.895,0.336,-0.224,-0.577,-0.766,0.282,0.344,-0.462,-0.818,2517.40,-2.462,2.574,1.679,-0.803,0.536,0.260,-0.526,0.660,-0.536,2510.58,0.112,-1.007,-0.224,0.118,-0.382,0.917,0.995,0.017,-0.099,10.073,26.092,2.122,3.069,0.924,0.144,-0.354,10.828,14.351,-9.924,-2.137,none
3.520147,-0.082,0.988,-0.133,2464.38,-2.238,-0.783,-2.238,0.046,-0.938,-0.344,0.384,0.533,-0.754,2485.33,0.671,-0.448,-0.895,-0.588,-0.767,0.257,0.344,-0.462,-0.818,2517.40,-2.014,0.112,0.000,-0.805,0.541,0.244,-0.525,0.662,-0.534,2516.54,0.671,-0.112,-0.783,0.111,-0.385,0.916,0.994,0.012,-0.106,10.058,23.145,0.977,0.901,0.921,0.142,-0.362,10.817,10.931,-7.939,-1.618,none
3.521088,-0.082,0.988,-0.129,2463.06,-1.007,0.448,-1.567,0.031,-0.943,-0.331,0.395,0.520,-0.757,2489.68,1.119,0.336,-1.455,-0.583,-0.770,0.260,0.343,-0.461,-0.819,2501.17,-1.343,0.224,0.112,-0.826,0.512,0.234,-0.529,0.660,-0.534,2498.63,0.000,0.112,-1.679,0.095,-0.386,0.918,0.995,0.025,-0.097,9.999,17.282,0.382,-1.176,0.920,0.156,-0.360,10.708,5.160,-7.527,-2.687,none
3.521195,-0.079,0.990,-0.118,2448.75,-1.231,1.455,0.112,0.032,-0.928,-0.371,0.400,0.512,-0.760,2507.64,2.574,0.112,-0.336,-0.569,-0.766,0.299,0.330,-0.471,-0.818,2505.74,-0.560,-2.126,0.000,-0.814,0.540,0.213,-0.530,0.654,-0.540,2491.53,-0.336,0.448,-2.686,0.129,-0.393,0.910,0.994,0.020,-0.105,9.977,11.908,0.366,-1.893,0.917,0.148,-0.371,10.767,0.198,-6.916,-2.824,none
3.521281,-0.076,0.991,-0.114,2437.03,0.671,1.231,1.567,0.034,-0.937,-0.348,0.401,0.519,-0.755,2455.85,2.014,-1.455,0.895,-0.580,-0.764,0.282,0.329,-0.486,-0.810,2431.88,-1.902,-3.693,0.112,-0.812,0.519,0.267,-0.533,0.649,-0.543,2478.50,0.336,0.560,-1.790,0.118,-0.388,0.914,0.994,0.012,-0.112,9.986,8.336,0.992,-1.832,0.916,0.141,-0.376,10.760,-3.176,-4.748,-2.229,none
3.521363,-0.080,0.990,-0.119,2419.05,0.448,0.448,0.560,0.038,-0.934,-0.356,0.401,0.507,-0.763,2456.15,0.895,-0.895,-0.112,-0.581,-0.758,0.297,0.328,-0.479,-0.815,2407.31,-1.343,-0.783,0.336,-0.812,0.531,0.241,-0.529,0.656,-0.538,2498.08,0.000,-0.336,-0.783,0.114,-0.385,0.916,0.994,0.011,-0.113,10.024,6.763,0.412,-2.565,0.917,0.140,-0.373,10.783,-4.687,-5.023,-2.351,none
3.521859,-0.079,0.989,-0.126,2451.18,-1.455,-0.560,-0.224,0.042,-0.939,-0.342,0.386,0.539,-0.749,2475.66,0.112,-2.238,1.679,-0.559,-0.774,0.298,0.340,-0.471,-0.814,2466.69,0.224,0.560,0.560,-0.798,0.545,0.259,-0.529,0.656,-0.538,2498.08,0.000,0.000,-0.895,0.115,-0.380,0.918,0.994,0.006,-0.113,10.024,6.031,0.061,-2.794,0.918,0.135,-0.374,10.781,-5.298,-5.176,-2.168,none
3.521946,-0.079,0.989,-0.121,2459.84,-1.343,-0.112,0.448,0.035,-0.937,-0.347,0.398,0.517,-0.758,2447.43,1.231,0.336,0.560,-0.583,-0.770,0.260,0.338,-0.467,-0.817,2507.74,0.560,-0.448,0.783,-0.819,0.525,0.231,-0.529,0.656,-0.538,2498.08,-0.224,0.112,-0.895,0.109,-0.383,0.917,0.994,0.006,-0.113,10.060,5.359,0.489,-2.718,0.917,0.132,-0.376,10.809,-5.878,-4.061,-2.107,none
3.522033,-0.087,0.989,-0.122,2451.52,0.448,0.560,0.560,0.031,-0.925,-0.379,0.403,0.516,-0.756,2491.73,1.231,0.671,-0.224,-0.577,-0.760,0.298,0.343,-0.467,-0.815,2526.23,-0.560,-1.007,-0.671,-0.813,0.516,0.268,-0.528,0.655,-0.541,2486.77,0.336,0.336,-0.783,0.118,-0.376,0.919,0.993,0.006,-0.119,10.026,5.084,0.840,-2.504,0.915,0.132,-0.380,10.759,-6.198,-3.786,-1.924,none
3.522119,-0.083,0.989,-0.122,2441.77,1.679,0.448,1.007,0.026,-0.929,-0.368,0.402,0.512,-0.759,2470.60,0.783,-0.112,-0.448,-0.583,-0.756,0.299,0.334,-0.473,-0.815,2476.53,-1.679,-1.679,-0.560,-0.808,0.536,0.244,-0.526,0.657,-0.539,2493.33,0.112,0.224,-0.783,0.119,-0.385,0.915,0.993,0.015,-0.117,9.972,4.702,0.595,-2.931,0.915,0.139,-0.379,10.720,-6.656,-3.969,-2.198,none
3.523860,-0.080,0.989,-0.124,2410.37,0.448,0.224,1.455,0.030,-0.930,-0.367,0.386,0.528,-0.756,2450.99,0.671,-0.336,0.224,-0.593,-0.739,0.320,0.331,-0.471,-0.818,2468.95,1.902,-0.895,0.895,-0.825,0.504,0.255,-0.529,0.656,-0.538,2498.08,0.336,0.000,-0.783,0.132,-0.385,0.913,0.993,0.007,-0.114,10.019,4.061,0.229,-3.298,0.917,0.136,-0.374,10.765,-7.191,-4.015,-2.427,none
3.523948,-0.083,0.989,-0.126,2451.91,-1.567,0.000,0.783,0.033,-0.935,-0.352,0.403,0.519,-0.754,2513.25,0.224,0.895,0.783,-0.578,-0.752,0.317,0.340,-0.471,-0.814,2466.69,1.567,-0.448,0.671,-0.798,0.536,0.276,-0.530,0.658,-0.535,2475.35,0.000,0.224,-0.560,0.107,-0.380,0.919,0.994,0.008,-0.109,10.015,3.847,1.603,-3.252,0.919,0.139,-0.370,10.760,-7.557,-2.107,-2.794,none
3.524030,-0.079,0.989,-0.126,2451.18,-0.336,0.112,0.448,0.045,-0.936,-0.349,0.387,0.522,-0.760,2441.24,0.671,-1.231,-0.336,-0.605,-0.752,0.261,0.332,-0.470,-0.818,2492.86,0.224,-0.783,-0.336,-0.814,0.535,0.226,-0.533,0.656,-0.535,2497.36,-0.224,0.336,-0.224,0.102,-0.373,0.922,0.993,0.012,-0.114,9.959,4.092,1.145,-3.191,0.917,0.139,-0.374,10.713,-7.237,-2.443,-2.626,none
3.526072,-0.076,0.988,-0.131,2422.03,0.671,0.895,0.448,0.044,-0.944,-0.328,0.402,0.500,-0.767,2471.19,0.671,0.448,-0.895,-0.579,-0.773,0.260,0.330,-0.467,-0.821,2447.26,0.671,-0.224,-0.671,-0.809,0.532,0.251,-0.531,0.655,-0.537,2486.14,0.112,0.671,-0.560,0.119,-0.391,0.913,0.993,0.011,-0.118,9.989,4.855,0.534,-2.947,0.916,0.136,-0.378,10.743,-6.443,-3.511,-2.229,none
3.526159,-0.079,0.989,-0.126,2442.28,-1.231,0.000,0.000,0.028,-0.938,-0.345,0.390,0.529,-0.753,2447.32,-0.224,-0.448,0.671,-0.575,-0.789,0.214,0.334,-0.468,-0.818,2480.46,2.350,0.783,-0.112,-0.803,0.532,0.267,-0.534,0.650,-0.540,2490.33,-0.224,0.671,-0.224,0.099,-0.382,0.919,0.994,0.011,-0.112,10.060,4.565,-0.275,-2.275,0.917,0.142,-0.372,10.827,-6.641,-4.443,-1.435,none
3.526241,-0.079,0.989,-0.121,2459.84,-0.895,0.448,-0.560,0.037,-0.930,-0.364,0.405,0.513,-0.757,2503.68,-0.224,2.014,-0.224,-0.599,-0.750,0.281,0.332,-0.478,-0.813,2494.17,0.000,-0.336,-1.119,-0.828,0.514,0.223,-0.525,0.656,-0.542,2498.74,-0.112,0.895,0.448,0.125,-0.390,0.912,0.992,0.004,-0.124,10.136,4.779,0.351,-1.649,0.917,0.131,-0.376,10.857,-6.229,-4.107,-0.809,none
3.526322,-0.082,0.989,-0.125,2470.69,-0.671,-0.448,-0.112,0.030,-0.942,-0.335,0.395,0.521,-0.756,2464.63,-0.895,-0.671,0.000,-0.577,-0.760,0.300,0.338,-0.470,-0.816,2535.66,2.238,-0.448,0.336,-0.799,0.545,0.254,-0.526,0.657,-0.540,2509.38,-0.671,0.224,0.448,0.110,-0.377,0.920,0.993,0.003,-0.118,10.107,6.031,-0.122,-0.824,0.918,0.132,-0.374,10.856,-4.855,-5.267,-0.260,none
3.527608,-0.086,0.989,-0.121,2470.31,-0.895,-0.783,0.224,0.031,-0.928,-0.370,0.387,0.532,-0.753,2488.80,-1.231,-0.671,0.112,-0.606,-0.744,0.281,0.339,-0.466,-0.817,2555.37,-0.224,-1.119,-0.448,-0.818,0.525,0.237,-0.528,0.658,-0.537,2521.88,-0.895,0.448,0.560,0.116,-0.380,0.917,0.993,0.015,-0.115,10.141,5.618,-0.580,-1.649,0.917,0.142,-0.373,10.856,-5.466,-6.244,-1.069,none
3.527723,-0.086,0.989,-0.124,2481.42,1.343,0.448,0.112,0.029,-0.937,-0.349,0.394,0.529,-0.751,2521.63,0.000,0.895,0.224,-0.579,-0.773,0.260,0.336,-0.471,-0.816,2549.33,-3.469,-4.588,-0.336,-0.825,0.504,0.255,-0.522,0.660,-0.540,2511.24,0.448,0.336,-0.336,0.118,-0.381,0.917,0.994,0.014,-0.113,10.083,4.931,0.168,-3.160,0.916,0.143,-0.375,10.825,-6.275,-4.779,-2.534,none
3.530375,-0.076,0.989,-0.127,2431.61,0.895,0.224,1.567,0.034,-0.939,-0.342,0.392,0.521,-0.758,2484.99,1.790,1.343,0.560,-0.587,-0.752,0.298,0.331,-0.473,-0.816,2413.19,-1.231,-1.231,0.671,-0.830,0.519,0.202,-0.532,0.654,-0.537,2502.72,1.231,-1.007,-1.231,0.105,-0.379,0.919,0.994,0.008,-0.110,10.009,5.542,-0.198,-2.992,0.919,0.137,-0.369,10.728,-5.420,-4.489,-2.351,none
3.530479,-0.075,0.989,-0.130,2451.68,-4.252,-0.336,-0.783,0.031,-0.925,-0.379,0.405,0.502,-0.765,2503.42,0.783,1.343,0.112,-0.579,-0.773,0.260,0.334,-0.463,-0.821,2508.38,4.700,3.021,0.895,-0.817,0.517,0.253,-0.534,0.654,-0.536,2474.23,0.671,-0.112,-0.895,0.126,-0.399,0.908,0.993,0.011,-0.114,10.006,7.496,0.198,-2.229,0.917,0.138,-0.375,10.714,-3.618,-4.183,-1.817,none
3.530563,-0.079,0.989,-0.126,2442.28,-3.469,-0.224,-1.119,0.024,-0.941,-0.336,0.382,0.529,-0.758,2447.91,0.000,-1.902,0.112,-0.568,-0.781,0.259,0.335,-0.470,-0.817,2471.47,4.924,2.910,0.336,-0.823,0.518,0.232,-0.532,0.654,-0.537,2502.72,-0.783,0.336,-1.007,0.118,-0.392,0.912,0.992,0.006,-0.123,10.005,9.160,-1.557,-1.710,0.917,0.134,-0.377,10.780,-1.786,-6.885,-1.084,none
3.530652,-0.083,0.989,-0.122,2441.77,-6.043,0.000,-1.790,0.031,-0.927,-0.374,0.402,0.519,-0.755,2496.90,-0.336,-0.448,1.343,-0.584,-0.762,0.280,0.337,-0.475,-0.812,2483.81,6.043,3.133,1.007,-0.801,0.530,0.279,-0.532,0.651,-0.541,2484.35,0.671,0.895,-1.455,0.130,-0.379,0.916,0.994,0.006,-0.111,10.080,9.603,-0.718,-0.885,0.918,0.135,-0.372,10.877,-1.450,-6.092,-0.489,none
3.534473,-0.086,0.990,-0.108,2486.78,-5.483,0.000,-2.126,0.039,-0.934,-0.354,0.446,0.459,-0.768,2605.52,0.671,-2.910,0.448,-0.612,-0.748,0.258,0.333,-0.487,-0.808,2547.95,3.357,2.798,0.671,-0.811,0.535,0.235,-0.525,0.652,-0.547,2497.64,0.000,1.231,-0.895,0.116,-0.389,0.914,0.990,0.004,-0.139,10.062,12.290,0.321,1.115,0.911,0.129,-0.392,10.811,1.053,-5.985,0.992,none
3.534577,-0.095,0.990,-0.101,2458.76,-2.574,-1.343,-1.790,0.031,-0.928,-0.370,0.422,0.523,-0.740,2399.56,-2.574,-17.010,6.602,-0.589,-0.758,0.280,0.342,-0.496,-0.798,2480.40,1.231,4.588,2.574,-0.813,0.527,0.247,-0.530,0.652,-0.543,2513.53,0.112,0.000,-0.783,0.130,-0.384,0.914,0.992,0.021,-0.126,9.996,11.710,0.076,0.718,0.913,0.144,-0.381,10.736,0.260,-6.611,0.489,none
3.534668,-0.083,0.991,-0.106,2447.23,-3.581,-2.126,-2.238,0.032,-0.933,-0.357,0.335,0.598,-0.728,2412.32,-5.036,-12.310,6.155,-0.596,-0.745,0.299,0.335,-0.480,-0.811,2501.49,1.343,4.364,2.350,-0.822,0.527,0.217,-0.532,0.654,-0.537,2502.72,0.000,-0.336,0.000,0.117,-0.378,0.918,0.994,0.006,-0.110,10.035,11.679,0.244,0.489,0.918,0.135,-0.372,10.763,0.168,-7.023,-0.061,none
3.534752,-0.083,0.989,-0.122,2450.67,-3.245,-1.902,-2.126,0.029,-0.932,-0.362,0.368,0.540,-0.757,2488.58,-1.119,-3.133,1.679,-0.613,-0.739,0.279,0.344,-0.462,-0.818,2517.40,0.783,2.014,1.119,-0.810,0.527,0.258,-0.534,0.658,-0.532,2492.69,-0.560,-0.560,0.112,0.115,-0.380,0.918,0.996,0.014,-0.093,10.074,8.931,0.275,-0.305,0.922,0.146,-0.360,10.830,-2.382,-5.115,-0.183,none
3.537827,-0.078,0.990,-0.116,2477.46,-1.455,0.336,-1.231,0.029,-0.924,-0.380,0.446,0.433,-0.783,2693.32,0.224,-3.581,0.336,-0.589,-0.751,0.299,0.336,-0.474,-0.814,2554.06,0.336,0.448,-0.224,-0.819,0.530,0.220,-0.524,0.660,-0.538,2482.69,-0.783,0.895,-0.671,0.122,-0.388,0.914,0.993,0.019,-0.113,10.077,5.603,2.168,-1.435,0.915,0.144,-0.378,10.833,-5.893,-2.412,-1.328,none
3.537918,-0.079,0.992,-0.101,2455.37,0.783,-0.448,1.790,0.028,-0.935,-0.354,0.405,0.503,-0.763,2455.12,-2.910,-19.360,6.938,-0.580,-0.742,0.337,0.329,-0.490,-0.807,2487.89,-0.112,-2.014,0.895,-0.798,0.545,0.259,-0.528,0.651,-0.545,2502.38,-0.560,1.007,-1.231,0.123,-0.391,0.912,0.993,0.017,-0.114,9.993,4.382,2.183,-2.137,0.915,0.141,-0.379,10.748,-7.084,-2.656,-1.618,none
3.537999,-0.076,0.991,-0.106,2434.82,-0.224,-1.902,1.790,0.039,-0.932,-0.360,0.340,0.565,-0.751,2376.76,-3.021,-13.988,5.707,-0.581,-0.756,0.300,0.339,-0.478,-0.810,2470.02,-0.112,-1.007,2.014,-0.810,0.532,0.246,-0.541,0.645,-0.539,2477.36,0.783,0.448,-0.560,0.110,-0.381,0.918,0.994,0.002,-0.107,9.907,5.603,1.603,-1.603,0.920,0.130,-0.369,10.657,-5.725,-3.023,-1.298,none
3.538086,-0.084,0.989,-0.120,2409.90,0.448,-0.560,0.783,0.039,-0.929,-0.368,0.359,0.521,-0.774,2409.51,0.336,-3.357,0.224,-0.577,-0.744,0.338,0.345,-0.461,-0.818,2456.13,-0.336,-0.671,0.224,-0.825,0.521,0.218,-0.536,0.656,-0.530,2481.34,-0.671,0.224,-0.112,0.112,-0.384,0.917,0.994,0.005,-0.113,9.933,7.344,-0.198,-1.160,0.919,0.131,-0.371,10.648,-3.695,-5.008,-0.763,none
3.538897,-0.083,0.990,-0.118,2440.57,0.560,1.343,-0.895,0.035,-0.940,-0.338,0.362,0.537,-0.762,2447.41,0.112,1.119,-1.007,-0.593,-0.762,0.260,0.342,-0.471,-0.813,2423.76,-0.448,-0.783,-2.014,-0.812,0.530,0.245,-0.531,0.662,-0.529,2489.20,-1.567,0.895,-0.336,0.124,-0.380,0.917,0.993,0.009,-0.116,9.980,7.252,-1.496,-2.397,0.917,0.137,-0.375,10.712,-3.603,-6.260,-1.786,none
3.539004,-0.086,0.990,-0.109,2466.98,-2.014,2.126,-1.007,0.033,-0.935,-0.352,0.400,0.508,-0.763,2531.80,2.014,5.260,-0.671,-0.560,-0.740,0.373,0.340,-0.486,-0.805,2493.53,1.679,0.112,-0.895,-0.820,0.529,0.221,-0.529,0.652,-0.543,2496.94,1.007,1.343,-1.343,0.133,-0.387,0.912,0.994,0.005,-0.112,10.077,7.664,-0.443,-2.092,0.918,0.134,-0.374,10.855,-3.481,-5.130,-1.664,none
3.539097,-0.086,0.991,-0.105,2464.92,-1.567,1.679,-0.895,0.025,-0.928,-0.372,0.385,0.523,-0.760,2477.60,1.007,2.462,-1.119,-0.589,-0.758,0.280,0.343,-0.482,-0.806,2470.16,1.119,-0.336,-1.567,-0.819,0.534,0.210,-0.527,0.653,-0.544,2508.90,0.783,0.895,-0.671,0.130,-0.391,0.911,0.993,0.012,-0.121,10.052,7.038,-0.626,-2.382,0.915,0.137,-0.380,10.789,-4.107,-5.160,-1.893,none
3.539181,-0.083,0.991,-0.109,2457.22,-0.895,1.902,-1.007,0.041,-0.937,-0.346,0.392,0.517,-0.761,2487.40,1.119,4.029,-1.902,-0.591,-0.765,0.257,0.335,-0.485,-0.808,2499.02,1.679,0.112,-1.567,-0.804,0.538,0.254,-0.523,0.657,-0.544,2510.07,-0.112,0.895,-0.895,0.118,-0.389,0.914,0.993,0.007,-0.117,10.071,5.847,-0.977,-3.298,0.917,0.133,-0.377,10.817,-5.237,-5.725,-2.489,none
3.539261,-0.086,0.991,-0.105,2464.92,-2.014,0.783,0.224,0.034,-0.933,-0.357,0.393,0.513,-0.764,2506.57,2.014,4.588,-0.560,-0.598,-0.752,0.279,0.341,-0.484,-0.806,2542.24,0.783,-1.343,-0.336,-0.822,0.522,0.227,-0.529,0.652,-0.543,2496.94,0.448,0.671,-1.455,0.116,-0.376,0.919,0.994,0.006,-0.112,10.042,6.458,-0.031,-2.519,0.918,0.133,-0.373,10.776,-4.748,-4.748,-1.939,none
3.539342,-0.083,0.991,-0.105,2457.14,0.336,1.231,0.448,0.035,-0.921,-0.388,0.382,0.522,-0.762,2498.05,0.671,3.805,-1.343,-0.578,-0.759,0.299,0.342,-0.481,-0.807,2477.42,-0.560,-1.231,-0.671,-0.810,0.532,0.246,-0.534,0.650,-0.540,2490.33,-0.336,0.000,-0.671,0.115,-0.384,0.916,0.993,0.014,-0.117,9.970,6.718,-0.244,-2.611,0.916,0.138,-0.378,10.703,-4.443,-4.763,-2.122,none
3.539421,-0.080,0.991,-0.106,2435.59,-0.224,1.567,-0.560,0.021,-0.917,-0.398,0.377,0.525,-0.763,2429.79,1.902,5.036,-2.014,-0.568,-0.759,0.317,0.338,-0.477,-0.811,2475.70,1.119,-0.336,-0.783,-0.810,0.525,0.262,-0.532,0.651,-0.541,2484.35,0.112,0.112,-0.783,0.107,-0.385,0.917,0.993,0.007,-0.120,9.966,6.748,-1.420,-3.191,0.914,0.135,-0.382,10.724,-4.275,-6.351,-2.336,none
3.539501,-0.080,0.991,-0.106,2435.59,-1.567,1.679,-0.112,0.037,-0.925,-0.378,0.407,0.488,-0.772,2490.53,3.021,7.162,-1.455,-0.580,-0.758,0.298,0.331,-0.486,-0.809,2472.96,2.126,-0.895,-0.560,-0.800,0.530,0.281,-0.533,0.649,-0.543,2478.50,0.895,0.783,-1.567,0.140,-0.385,0.912,0.993,0.010,-0.114,9.992,7.435,-1.069,-1.527,0.916,0.139,-0.377,10.784,-3.603,-5.924,-0.794,none
3.542795,-0.075,0.992,-0.097,2461.55,-1.455,1.231,-1.007,0.049,-0.927,-0.371,0.408,0.489,-0.771,2506.44,0.000,1.567,-0.112,-0.583,-0.739,0.338,0.335,-0.487,-0.807,2503.40,1.119,0.448,-0.895,-0.802,0.535,0.264,-0.538,0.641,-0.547,2475.75,0.112,0.895,-0.112,0.122,-0.383,0.916,0.993,0.009,-0.118,10.035,7.588,0.229,0.611,0.915,0.139,-0.379,10.811,-3.481,-4.336,0.855,none
3.542884,-0.083,0.991,-0.109,2457.22,1.231,1.119,-2.126,0.051,-0.933,-0.356,0.391,0.512,-0.765,2489.88,-1.679,1.343,-2.462,-0.568,-0.733,0.373,0.338,-0.482,-0.808,2510.47,-1.007,1.231,-2.126,-0.793,0.549,0.264,-0.523,0.660,-0.540,2527.28,-2.126,0.560,1.567,0.134,-0.382,0.914,0.993,0.008,-0.117,10.097,6.840,-0.733,-0.107,0.916,0.133,-0.378,10.831,-4.137,-5.817,0.244,none
3.542971,-0.086,0.989,-0.121,2470.31,0.336,0.336,-1.790,0.030,-0.926,-0.376,0.383,0.526,-0.760,2519.06,-1.567,1.343,-0.671,-0.583,-0.771,0.257,0.347,-0.475,-0.809,2530.97,0.224,0.783,-1.455,-0.816,0.520,0.252,-0.520,0.664,-0.537,2523.16,-1.790,0.671,0.560,0.132,-0.379,0.916,0.993,0.001,-0.117,10.154,6.718,-0.977,-1.481,0.918,0.130,-0.374,10.901,-4.137,-6.198,-1.084,none
3.543056,-0.094,0.989,-0.112,2488.69,-1.119,-0.112,-0.224,0.025,-0.928,-0.372,0.381,0.540,-0.751,2508.94,0.000,0.224,0.112,-0.572,-0.747,0.338,0.350,-0.474,-0.808,2535.27,1.231,-0.448,-0.112,-0.827,0.526,0.197,-0.530,0.652,-0.543,2513.53,0.000,0.336,-0.895,0.137,-0.381,0.914,0.993,0.007,-0.119,10.080,6.840,-0.779,-2.183,0.917,0.135,-0.376,10.843,-4.153,-6.214,-1.771,none
3.543544,-0.082,0.991,-0.109,2466.13,-0.448,1.119,0.560,0.031,-0.925,-0.378,0.397,0.505,-0.767,2506.46,1.567,2.462,-0.448,-0.574,-0.755,0.317,0.340,-0.483,-0.807,2465.93,0.224,-1.567,-0.224,-0.814,0.538,0.219,-0.532,0.654,-0.537,2502.72,1.455,0.224,-1.119,0.136,-0.395,0.909,0.993,0.011,-0.115,10.023,6.550,-0.656,-2.534,0.916,0.139,-0.377,10.789,-4.458,-5.908,-2.046,none
3.543631,-0.079,0.991,-0.110,2456.49,-1.455,1.119,0.112,0.030,-0.925,-0.380,0.383,0.519,-0.764,2439.05,1.567,1.007,0.000,-0.613,-0.752,0.243,0.333,-0.484,-0.809,2519.56,1.679,-0.112,-0.336,-0.779,0.552,0.298,-0.536,0.648,-0.542,2483.19,1.343,0.336,-1.231,0.139,-0.390,0.910,0.993,0.002,-0.121,9.997,7.847,-0.947,-1.695,0.915,0.127,-0.382,10.735,-3.176,-6.550,-1.221,none
3.543717,-0.087,0.991,-0.105,2457.98,1.455,0.336,-0.112,0.025,-0.911,-0.411,0.395,0.523,-0.755,2494.14,-0.336,0.560,0.224,-0.587,-0.752,0.298,0.341,-0.483,-0.807,2488.69,-2.350,-0.895,0.112,-0.819,0.520,0.242,-0.526,0.654,-0.544,2492.19,-1.007,-0.336,0.112,0.142,-0.402,0.905,0.987,-0.036,-0.158,10.009,15.130,-6.183,3.634,0.908,0.111,-0.404,10.692,1.008,-16.183,-2.947,none
3.543803,-0.087,0.990,-0.114,2450.27,0.000,-0.448,-0.895,0.036,-0.928,-0.370,0.385,0.519,-0.763,2455.71,0.783,0.895,0.000,-0.595,-0.737,0.320,0.342,-0.471,-0.813,2507.34,-0.448,1.007,0.112,-0.793,0.547,0.270,-0.536,0.651,-0.538,2502.19,-0.671,-1.119,-0.224,0.145,-0.395,0.907,0.993,0.001,-0.116,10.016,15.649,-7.588,3.878,0.913,0.134,-0.386,10.795,3.191,-16.763,-0.397,none
3.544271,-0.087,0.990,-0.109,2458.07,0.895,0.448,-1.119,0.037,-0.932,-0.360,0.384,0.526,-0.758,2534.23,-1.007,2.014,-0.671,-0.577,-0.753,0.316,0.341,-0.475,-0.811,2488.02,-0.783,0.000,-1.007,-0.820,0.530,0.215,-0.539,0.650,-0.536,2489.66,0.448,-0.112,-0.671,0.128,-0.382,0.915,0.992,0.007,-0.127,10.022,13.130,-5.985,1.679,0.908,0.137,-0.397,10.816,1.466,-15.924,-1.878,none
3.544356,-0.087,0.991,-0.102,2436.14,-0.336,0.783,-0.224,0.032,-0.933,-0.357,0.405,0.502,-0.765,2503.42,0.560,1.119,-0.112,-0.579,-0.743,0.337,0.331,-0.488,-0.808,2440.53,0.560,-0.783,-0.336,-0.822,0.527,0.217,-0.529,0.652,-0.543,2496.94,0.112,0.000,-1.119,0.130,-0.391,0.911,0.992,0.014,-0.125,10.003,8.733,-3.756,-0.443,0.907,0.140,-0.398,10.828,-2.458,-12.397,-2.046,none
3.544435,-0.083,0.992,-0.097,2454.12,-1.679,-0.560,0.336,0.030,-0.926,-0.376,0.402,0.511,-0.760,2494.93,1.231,1.231,0.671,-0.584,-0.738,0.337,0.335,-0.487,-0.807,2503.40,0.000,-0.671,0.560,-0.810,0.532,0.245,-0.534,0.647,-0.544,2472.02,0.336,-0.224,-0.783,0.153,-0.395,0.906,0.992,-0.004,-0.126,9.995,6.000,-0.260,-1.252,0.907,0.129,-0.400,10.795,-5.160,-6.718,-1.344,none
3.544517,-0.087,0.990,-0.110,2448.16,1.790,-0.224,0.224,0.027,-0.930,-0.367,0.387,0.521,-0.760,2465.54,-0.336,-0.560,-0.336,-0.593,-0.747,0.299,0.339,-0.478,-0.810,2470.02,-2.014,-0.671,-0.224,-0.812,0.531,0.241,-0.532,0.654,-0.537,2502.72,-0.671,-0.560,0.336,0.130,-0.391,0.911,0.991,-0.003,-0.134,9.964,6.626,-0.443,-1.374,0.906,0.128,-0.403,10.740,-4.672,-6.611,-1.053,none
3.548468,-0.083,0.990,-0.114,2438.53,0.671,0.336,-0.224,0.037,-0.925,-0.378,0.390,0.516,-0.763,2471.47,0.224,1.343,-0.560,-0.604,-0.761,0.237,0.340,-0.478,-0.810,2492.78,-1.343,0.000,-0.112,-0.814,0.527,0.246,-0.533,0.652,-0.539,2496.19,0.224,0.112,0.112,0.137,-0.381,0.914,0.991,-0.004,-0.130,10.019,6.107,-0.351,-1.847,0.907,0.129,-0.401,10.832,-5.206,-5.969,-1.359,none
3.548581,-0.091,0.989,-0.113,2461.06,1.119,0.336,-0.224,0.029,-0.923,-0.384,0.398,0.513,-0.761,2525.69,-0.448,1.343,0.112,-0.570,-0.750,0.336,0.337,-0.475,-0.812,2483.81,-1.343,0.000,-0.112,-0.815,0.543,0.202,-0.528,0.655,-0.541,2503.48,0.112,0.112,0.000,0.139,-0.386,0.912,0.991,-0.005,-0.133,10.047,5.450,0.107,-2.519,0.905,0.126,-0.406,10.792,-5.924,-4.947,-1.847,none
3.548681,-0.087,0.990,-0.109,2458.07,-0.224,0.000,0.112,0.024,-0.922,-0.386,0.395,0.521,-0.756,2464.63,0.336,0.448,0.112,-0.587,-0.752,0.298,0.341,-0.477,-0.810,2516.01,0.336,0.224,0.000,-0.821,0.523,0.230,-0.532,0.651,-0.542,2501.59,0.560,0.224,-0.224,0.135,-0.383,0.914,0.991,-0.006,-0.136,10.039,5.466,0.565,-2.321,0.906,0.127,-0.404,10.834,-5.924,-4.412,-1.664,none
3.548766,-0.087,0.991,-0.105,2457.98,1.343,0.560,0.224,0.022,-0.935,-0.354,0.400,0.515,-0.758,2512.78,0.112,1.567,-0.783,-0.586,-0.761,0.278,0.338,-0.479,-0.810,2505.66,-1.119,-1.007,-0.448,-0.813,0.527,0.247,-0.531,0.650,-0.544,2489.78,0.224,0.224,-0.112,0.139,-0.380,0.914,0.991,-0.003,-0.137,10.011,5.008,1.008,-2.305,0.904,0.129,-0.408,10.787,-6.443,-3.786,-1.573,none
3.552067,-0.087,0.990,-0.110,2448.16,1.455,0.448,0.895,0.031,-0.928,-0.370,0.400,0.509,-0.762,2485.05,0.336,1.119,-0.895,-0.614,-0.752,0.238,0.338,-0.480,-0.810,2480.48,-1.567,-1.455,-0.336,-0.807,0.527,0.266,-0.531,0.650,-0.544,2489.78,-0.112,-0.112,0.000,0.125,-0.378,0.917,0.991,-0.004,-0.133,9.999,4.565,0.947,-2.641,0.906,0.128,-0.403,10.789,-6.779,-3.756,-1.786,none
3.552184,-0.091,0.990,-0.106,2438.07,1.119,0.000,0.560,0.033,-0.934,-0.356,0.400,0.514,-0.759,2482.56,0.224,0.560,0.000,-0.594,-0.729,0.339,0.340,-0.480,-0.809,2461.12,-0.783,-0.671,0.336,-0.815,0.532,0.230,-0.533,0.649,-0.543,2478.50,0.448,-0.336,0.000,0.134,-0.392,0.910,0.992,-0.007,-0.128,10.004,4.733,1.679,-2.397,0.906,0.127,-0.403,10.779,-6.672,-2.840,-1.679,none
3.552292,-0.095,0.990,-0.106,2449.90,1.343,-0.448,0.336,0.038,-0.929,-0.368,0.399,0.516,-0.757,2488.47,-0.224,-0.783,-0.783,-0.598,-0.759,0.258,0.345,-0.473,-0.811,2456.30,-2.014,-0.448,0.224,-0.816,0.525,0.241,-0.536,0.648,-0.542,2483.19,-0.895,-0.560,0.448,0.134,-0.389,0.912,0.991,-0.017,-0.132,9.993,6.183,1.374,-1.252,0.902,0.119,-0.415,10.774,-5.282,-3.618,-0.702,none
4.035750,-0.096,0.990,-0.102,2437.97,1.567,0.224,-0.224,0.037,-0.927,-0.373,0.396,0.523,-0.755,2457.07,-0.112,-1.119,-1.231,-0.583,-0.756,0.299,0.345,-0.476,-0.809,2459.77,-1.902,-0.112,-0.448,-0.807,0.540,0.239,-0.529,0.652,-0.543,2496.94,-0.895,-0.671,0.560,0.134,-0.389,0.912,0.992,-0.019,-0.126,10.066,4.153,0.855,-2.840,0.906,0.113,-0.407,10.847,-7.206,-4.153,-1.649,none
4.035909,-0.094,0.989,-0.113,2468.91,-1.007,-1.455,0.895,0.039,-0.936,-0.351,0.396,0.513,-0.762,2486.19,0.560,-0.448,0.112,-0.591,-0.741,0.321,0.347,-0.464,-0.815,2501.89,-0.671,-0.112,1.007,-0.826,0.518,0.222,-0.540,0.647,-0.538,2500.43,0.671,-0.560,0.000,0.141,-0.381,0.914,0.991,-0.017,-0.133,10.070,6.595,0.763,-2.214,0.902,0.117,-0.417,10.822,-4.931,-4.565,-1.542,none
4.036013,-0.091,0.990,-0.106,2448.97,1.119,1.119,0.336,0.027,-0.928,-0.371,0.404,0.510,-0.759,2482.23,1.455,0.783,-0.448,-0.582,-0.748,0.321,0.331,-0.481,-0.812,2474.61,-0.112,-0.448,0.336,-0.795,0.543,0.271,-0.532,0.651,-0.542,2519.49,0.336,0.000,-0.671,0.138,-0.385,0.913,0.992,-0.009,-0.125,10.046,6.305,0.061,-2.092,0.903,0.122,-0.411,10.843,-5.023,-5.282,-1.282,none
4.036106,-0.086,0.991,-0.105,2464.92,-1.007,-0.560,0.336,0.047,-0.941,-0.335,0.402,0.508,-0.762,2473.62,0.336,-0.112,0.560,-0.593,-0.748,0.299,0.338,-0.474,-0.813,2533.05,0.224,-0.336,0.783,-0.833,0.521,0.186,-0.543,0.643,-0.541,2488.18,0.224,-0.336,-0.560,0.158,-0.395,0.905,0.992,-0.009,-0.129,10.021,6.824,0.931,-1.802,0.902,0.122,-0.415,10.793,-4.656,-3.939,-1.450,none
4.036207,-0.083,0.991,-0.102,2435.28,0.783,0.560,0.224,0.049,-0.928,-0.370,0.405,0.513,-0.757,2503.68,0.336,-0.112,-0.671,-0.623,-0.764,0.167,0.331,-0.486,-0.809,2472.96,-0.560,-0.336,-0.560,-0.821,0.526,0.222,-0.536,0.647,-0.542,2500.45,-0.336,-0.448,-0.336,0.132,-0.379,0.916,0.992,-0.005,-0.128,9.990,6.534,0.382,-2.092,0.901,0.126,-0.415,10.770,-4.885,-4.840,-1.374,none
4.036320,-0.083,0.991,-0.106,2436.33,-0.783,-0.336,0.112,0.028,-0.923,-0.385,0.397,0.519,-0.757,2476.16,-0.224,-0.560,0.560,-0.586,-0.737,0.337,0.332,-0.480,-0.812,2462.50,0.783,0.224,1.343,-0.825,0.510,0.245,-0.540,0.648,-0.537,2483.83,0.336,-0.448,-0.336,0.151,-0.392,0.908,0.993,-0.012,-0.120,10.019,6.351,0.473,-1.939,0.904,0.123,-0.408,10.798,-4.977,-4.580,-1.176,none
4.036413,-0.087,0.990,-0.109,2458.07,-1.343,-0.783,0.112,0.027,-0.927,-0.374,0.402,0.511,-0.760,2494.93,0.224,0.224,0.560,-0.582,-0.731,0.357,0.341,-0.470,-0.814,2514.66,0.336,-0.112,0.448,-0.813,0.526,0.252,-0.537,0.645,-0.543,2476.73,0.000,0.112,0.000,0.149,-0.382,0.912,0.992,-0.012,-0.127,10.039,6.290,1.191,-1.420,0.902,0.123,-0.413,10.819,-5.099,-3.664,-0.885,none
4.036495,-0.091,0.989,-0.113,2461.06,0.336,0.224,0.112,0.012,-0.924,-0.383,0.398,0.520,-0.755,2469.35,0.224,-0.671,-0.448,-0.582,-0.763,0.280,0.341,-0.477,-0.810,2516.01,-0.783,-0.224,-0.336,-0.813,0.516,0.269,-0.537,0.645,-0.543,2476.73,-0.448,-0.112,0.112,0.138,-0.384,0.913,0.991,-0.011,-0.131,10.026,5.435,0.809,-2.076,0.901,0.122,-0.415,10.796,-5.954,-4.092,-1.420,none
4.036578,-0.091,0.990,-0.106,2448.97,-0.336,-0.112,0.224,0.046,-0.936,-0.348,0.404,0.510,-0.759,2482.23,0.112,-0.112,-0.112,-0.596,-0.752,0.283,0.342,-0.479,-0.809,2508.72,0.560,0.448,0.112,-0.821,0.526,0.222,-0.529,0.656,-0.538,2498.08,0.671,-0.448,-0.560,0.148,-0.409,0.900,0.992,-0.020,-0.126,10.046,5.206,0.702,-2.397,0.906,0.114,-0.408,10.797,-6.107,-4.260,-1.588,none
4.036677,-0.095,0.990,-0.105,2459.80,-0.895,-0.783,0.783,0.036,-0.923,-0.382,0.401,0.517,-0.756,2504.45,0.336,-1.007,0.671,-0.589,-0.765,0.262,0.339,-0.476,-0.812,2524.93,-1.007,-0.560,1.007,-0.815,0.519,0.258,-0.537,0.645,-0.543,2476.73,0.112,-0.560,-0.336,0.129,-0.384,0.914,0.993,-0.015,-0.119,9.922,6.397,1.221,-1.847,0.905,0.120,-0.408,10.712,-5.069,-3.664,-1.389,none
4.036764,-0.092,0.989,-0.115,2430.39,1.007,0.112,0.783,0.054,-0.940,-0.337,0.384,0.523,-0.761,2436.63,0.448,-0.895,-0.112,-0.591,-0.749,0.299,0.342,-0.468,-0.815,2418.24,-0.112,0.112,0.000,-0.819,0.519,0.246,-0.541,0.649,-0.535,2477.82,0.336,-0.336,-0.112,0.147,-0.395,0.907,0.993,-0.007,-0.121,9.894,6.305,0.183,-2.168,0.904,0.125,-0.410,10.645,-4.901,-4.550,-1.557,none
4.036845,-0.084,0.991,-0.108,2407.60,-1.119,0.336,-0.336,0.028,-0.921,-0.389,0.394,0.515,-0.761,2421.75,0.671,0.783,-0.336,-0.583,-0.739,0.338,0.334,-0.478,-0.812,2449.58,2.686,0.448,-0.112,-0.777,0.557,0.294,-0.537,0.649,-0.539,2477.79,0.112,0.560,-0.448,0.140,-0.382,0.913,0.992,-0.017,-0.126,9.962,6.183,-0.733,-1.740,0.903,0.118,-0.413,10.749,-4.779,-5.649,-0.809,none
4.036943,-0.091,0.990,-0.105,2458.87,-2.798,-0.448,-0.671,0.036,-0.928,-0.370,0.409,0.507,-0.759,2456.63,0.336,1.343,0.224,-0.605,-0.729,0.320,0.338,-0.479,-0.810,2505.66,2.350,0.671,0.448,-0.797,0.543,0.265,-0.537,0.646,-0.543,2460.12,-0.112,0.560,0.448,0.138,-0.388,0.911,0.992,-0.018,-0.126,10.005,7.725,0.458,-0.397,0.904,0.115,-0.412,10.800,-3.450,-4.122,-0.092,none
4.037024,-0.095,0.990,-0.106,2449.90,0.336,0.448,-1.119,0.046,-0.920,-0.388,0.394,0.520,-0.758,2472.96,-0.895,0.112,-0.895,-0.566,-0.744,0.356,0.340,-0.481,-0.808,2436.74,-1.007,0.336,-1.679,-0.816,0.520,0.252,-0.538,0.645,-0.543,2494.63,-1.007,0.448,0.448,0.150,-0.390,0.908,0.990,-0.008,-0.139,9.971,8.702,0.183,-0.519,0.898,0.119,-0.423,10.749,-2.382,-4.366,-0.321,none
4.037117,-0.087,0.992,-0.094,2435.26,0.000,1.231,-2.014,0.039,-0.934,-0.354,0.413,0.500,-0.761,2451.01,-0.448,0.895,-1.790,-0.581,-0.756,0.300,0.331,-0.490,-0.806,2468.96,0.000,1.455,-1.679,-0.834,0.515,0.198,-0.531,0.646,-0.548,2505.47,-0.336,0.783,0.448,0.144,-0.385,0.911,0.991,-0.008,-0.137,10.040,7.740,-0.626,-0.702,0.899,0.123,-0.421,10.850,-3.115,-4.977,-0.031,none
4.037199,-0.091,0.991,-0.094,2454.99,-1.567,-0.336,-1.790,0.025,-0.915,-0.402,0.417,0.506,-0.755,2498.26,-1.119,1.455,0.448,-0.589,-0.752,0.297,0.336,-0.486,-0.807,2490.95,1.007,3.133,0.448,-0.827,0.512,0.233,-0.534,0.645,-0.547,2511.44,0.336,0.560,1.119,0.133,-0.384,0.914,0.992,-0.026,-0.127,10.187,6.458,0.107,-0.229,0.904,0.110,-0.412,10.996,-4.290,-4.382,0.550,none
4.037285,-0.100,0.989,-0.111,2521.19,-1.679,-1.455,-2.126,0.038,-0.929,-0.368,0.397,0.523,-0.754,2550.23,-2.350,0.112,0.336,-0.599,-0.743,0.299,0.349,-0.474,-0.808,2572.01,-0.112,2.350,-0.336,-0.826,0.516,0.228,-0.532,0.651,-0.542,2519.49,-0.671,-0.112,1.902,0.132,-0.394,0.910,0.992,-0.027,-0.119,10.248,8.076,2.153,0.275,0.910,0.106,-0.402,11.024,-3.038,-2.321,0.214,none
4.037371,-0.101,0.987,-0.127,2495.21,1.567,0.000,-0.783,0.032,-0.935,-0.352,0.376,0.536,-0.756,2542.95,-0.895,-1.902,-1.567,-0.588,-0.727,0.355,0.356,-0.456,-0.816,2547.74,-1.455,0.336,-0.895,-0.795,0.543,0.271,-0.528,0.664,-0.530,2557.54,-2.686,-0.560,0.783,0.141,-0.392,0.909,0.992,-0.021,-0.125,10.145,8.229,1.588,-1.893,0.907,0.113,-0.405,10.885,-3.084,-2.809,-1.924,none
4.037452,-0.102,0.987,-0.125,2467.30,0.671,0.671,0.112,0.037,-0.938,-0.346,0.380,0.538,-0.752,2533.54,0.112,-0.560,-1.007,-0.575,-0.762,0.298,0.349,-0.460,-0.817,2483.67,1.455,-1.119,0.224,-0.806,0.525,0.272,-0.523,0.666,-0.532,2546.37,-1.343,-0.112,-1.679,0.133,-0.386,0.913,0.992,-0.019,-0.128,10.105,7.282,-0.366,-3.786,0.906,0.111,-0.409,10.848,-3.847,-5.649,-3.267,none
4.037532,-0.091,0.990,-0.109,2458.95,-2.126,0.224,1.679,0.024,-0.926,-0.377,0.393,0.522,-0.757,2501.70,2.350,1.343,1.567,-0.575,-0.745,0.339,0.340,-0.478,-0.810,2492.78,2.126,-1.343,1.790,-0.822,0.520,0.232,-0.543,0.646,-0.536,2489.24,2.126,-0.224,-2.462,0.147,-0.391,0.908,0.993,-0.016,-0.118,10.024,9.084,0.565,-3.313,0.906,0.116,-0.407,10.810,-2.015,-4.260,-2.977,none
4.037611,-0.086,0.991,-0.105,2464.92,-1.455,0.671,1.231,0.040,-0.931,-0.364,0.402,0.508,-0.762,2473.62,2.350,1.231,0.783,-0.578,-0.735,0.355,0.341,-0.474,-0.812,2512.06,-0.448,-2.014,-0.336,-0.806,0.549,0.223,-0.548,0.637,-0.542,2463.57,2.350,-0.224,-1.567,0.134,-0.392,0.910,0.992,-0.009,-0.126,9.932,9.802,1.542,-2.321,0.902,0.127,-0.412,10.685,-1.420,-2.763,-2.275,none
4.037698,-0.080,0.992,-0.095,2412.83,0.336,1.567,0.336,0.026,-0.917,-0.398,0.410,0.498,-0.764,2401.73,2.014,-0.112,-1.343,-0.588,-0.727,0.355,0.329,-0.486,-0.810,2431.88,0.560,-0.783,-0.671,-0.786,0.556,0.269,-0.539,0.643,-0.544,2470.29,0.112,0.560,-1.007,0.140,-0.391,0.910,0.992,0.000,-0.130,9.883,6.901,-0.305,-2.458,0.899,0.130,-0.418,10.659,-4.214,-5.069,-1.878,none
4.037786,-0.080,0.993,-0.087,2412.00,-0.783,0.336,-0.112,0.035,-0.922,-0.387,0.413,0.511,-0.753,2474.12,-0.224,1.343,0.560,-0.599,-0.764,0.238,0.337,-0.493,-0.802,2456.22,1.007,-0.671,0.560,-0.801,0.541,0.255,-0.537,0.638,-0.551,2458.22,-0.560,0.336,-0.560,0.143,-0.382,0.913,0.991,-0.013,-0.133,9.922,5.771,0.183,-1.878,0.899,0.118,-0.421,10.732,-5.298,-4.321,-1.099,none
4.037879,-0.087,0.992,-0.090,2434.34,-0.895,-0.448,0.000,0.036,-0.931,-0.364,0.410,0.509,-0.757,2449.05,0.112,0.560,0.336,-0.586,-0.744,0.321,0.338,-0.490,-0.804,2451.30,0.671,1.902,-0.112,-0.809,0.532,0.251,-0.542,0.638,-0.547,2457.48,-0.560,0.112,0.560,0.137,-0.385,0.913,0.992,-0.015,-0.127,9.953,6.733,1.008,-0.580,0.902,0.115,-0.416,10.738,-4.550,-3.481,-0.076,none
4.224845,-0.092,0.990,-0.107,2428.17,0.783,-0.112,-1.679,0.034,-0.939,-0.342,0.402,0.516,-0.757,2450.67,-1.790,0.224,-1.231,-0.607,-0.720,0.337,0.343,-0.478,-0.809,2472.62,-0.560,1.902,-0.560,-0.826,0.518,0.222,-0.532,0.651,-0.541,2484.35,-0.224,-0.336,1.343,0.130,-0.389,0.912,0.992,-0.023,-0.127,10.044,5.985,0.244,-0.885,0.906,0.110,-0.409,10.801,-5.130,-4.504,-0.153,none
4.528491,-0.099,0.989,-0.113,2461.96,-0.112,-0.783,-1.007,0.049,-0.929,-0.367,0.393,0.518,-0.760,2479.79,-1.119,1.119,-0.336,-0.604,-0.761,0.237,0.346,-0.473,-0.811,2477.45,-0.336,1.119,0.112,-0.807,0.534,0.251,-0.536,0.651,-0.538,2519.43,-0.895,0.560,0.671,0.148,-0.381,0.913,0.992,-0.030,-0.122,10.105,8.107,0.092,-1.008,0.907,0.103,-0.407,10.888,-3.008,-4.718,-0.550,none
4.528650,-0.102,0.988,-0.117,2471.80,-0.448,0.224,-1.567,0.039,-0.931,-0.363,0.389,0.531,-0.753,2529.78,0.112,1.902,-1.567,-0.554,-0.727,0.406,0.342,-0.478,-0.809,2533.10,0.000,0.895,-0.895,-0.794,0.537,0.286,-0.535,0.653,-0.537,2525.30,-0.671,0.671,-0.112,0.136,-0.393,0.910,0.992,-0.014,-0.123,10.167,8.458,0.733,-1.603,0.906,0.119,-0.407,10.929,-2.824,-3.985,-1.221,none
4.528786,-0.089,0.991,-0.099,2505.40,0.560,1.231,-0.783,0.032,-0.932,-0.361,0.413,0.510,-0.754,2575.23,-0.336,1.455,-1.343,-0.599,-0.750,0.281,0.340,-0.482,-0.807,2550.31,-0.336,-0.112,-0.895,-0.813,0.526,0.252,-0.533,0.652,-0.539,2514.09,0.336,0.224,-0.112,0.146,-0.400,0.905,0.992,-0.008,-0.127,10.126,6.824,1.603,-2.580,0.903,0.124,-0.411,10.870,-4.901,-3.374,-2.015,none
4.528884,-0.083,0.992,-0.097,2454.12,-0.448,-0.112,1.119,0.031,-0.939,-0.342,0.411,0.500,-0.762,2511.58,1.567,-0.448,0.000,-0.581,-0.742,0.336,0.338,-0.480,-0.810,2480.48,0.224,-0.895,0.783,-0.809,0.543,0.223,-0.535,0.646,-0.545,2505.88,0.448,-0.783,-0.783,0.148,-0.382,0.912,0.992,-0.014,-0.126,10.029,5.420,0.824,-2.855,0.902,0.119,-0.414,10.808,-6.015,-4.290,-1.985,none
4.545929,-0.087,0.991,-0.102,2447.04,-1.231,-0.783,1.119,0.048,-0.940,-0.339,0.404,0.514,-0.757,2462.27,0.671,-0.783,1.231,-0.573,-0.763,0.299,0.339,-0.481,-0.809,2474.82,0.895,-0.224,1.343,-0.810,0.532,0.246,-0.540,0.644,-0.542,2482.76,0.112,-1.007,-0.783,0.145,-0.395,0.907,0.993,-0.019,-0.116,9.967,6.473,1.344,-1.893,0.906,0.116,-0.407,10.756,-4.916,-3.664,-1.237,none
4.546092,-0.087,0.991,-0.105,2457.98,-0.783,-1.007,-0.895,0.029,-0.932,-0.361,0.396,0.511,-0.763,2458.01,-0.448,-0.895,-0.336,-0.596,-0.752,0.281,0.334,-0.471,-0.817,2509.06,-1.231,1.119,0.112,-0.822,0.515,0.243,-0.541,0.649,-0.535,2477.82,-0.448,-0.783,-0.112,0.149,-0.402,0.903,0.992,-0.018,-0.122,9.983,7.328,1.328,-1.176,0.906,0.113,-0.408,10.732,-4.031,-3.786,-0.702,none
4.546188,-0.100,0.989,-0.110,2441.07,1.679,0.224,-0.560,0.009,-0.920,-0.393,0.391,0.526,-0.755,2442.05,-0.560,-1.231,-0.671,-0.580,-0.764,0.282,0.348,-0.475,-0.808,2462.88,-1.902,0.448,-0.671,-0.804,0.538,0.254,-0.529,0.656,-0.538,2498.08,0.000,0.112,-0.112,0.139,-0.386,0.912,0.992,-0.021,-0.123,10.019,7.924,0.290,-1.817,0.905,0.110,-0.411,10.785,-3.359,-4.794,-1.237,none
4.546279,-0.099,0.990,-0.105,2459.77,-1.343,0.000,-0.448,0.034,-0.946,-0.321,0.397,0.522,-0.755,2481.36,0.224,0.000,0.224,-0.584,-0.762,0.280,0.345,-0.473,-0.811,2515.49,1.902,0.000,0.224,-0.789,0.555,0.262,-0.529,0.652,-0.543,2496.94,0.448,0.112,-0.560,0.141,-0.396,0.907,0.993,-0.013,-0.120,10.046,7.786,0.733,-1.908,0.906,0.118,-0.406,10.811,-3.573,-3.847,-1.496,none
4.546366,-0.099,0.990,-0.101,2458.74,-1.007,0.336,-0.336,0.043,-0.931,-0.363,0.403,0.523,-0.751,2511.17,0.000,0.448,-0.112,-0.597,-0.772,0.218,0.348,-0.478,-0.806,2491.23,0.448,-0.112,-0.560,-0.833,0.498,0.240,-0.536,0.648,-0.542,2483.19,-0.112,0.000,-0.336,0.142,-0.394,0.908,0.991,-0.016,-0.132,10.045,5.969,0.779,-2.046,0.902,0.113,-0.417,10.793,-5.328,-4.229,-1.450,none
4.546451,-0.095,0.991,-0.097,2456.78,-0.224,0.112,0.112,0.031,-0.927,-0.375,0.405,0.514,-0.756,2479.02,0.448,0.000,-0.336,-0.586,-0.754,0.299,0.344,-0.486,-0.803,2490.98,0.000,0.224,0.560,-0.807,0.540,0.239,-0.532,0.647,-0.546,2501.19,0.671,-0.224,-0.112,0.148,-0.386,0.911,0.992,-0.016,-0.125,10.025,6.107,0.595,-1.924,0.904,0.114,-0.413,10.776,-5.191,-4.580,-1.145,none
4.546536,-0.095,0.990,-0.106,2449.90,-0.112,-0.448,0.000,0.044,-0.928,-0.370,0.398,0.528,-0.750,2471.56,0.000,-0.224,0.224,-0.601,-0.756,0.259,0.340,-0.478,-0.810,2492.78,-0.336,0.112,0.671,-0.816,0.532,0.225,-0.535,0.646,-0.544,2488.62,0.224,-0.112,-0.336,0.146,-0.390,0.909,0.992,-0.014,-0.126,9.966,6.550,0.489,-1.939,0.903,0.117,-0.414,10.747,-4.748,-4.626,-1.328,none
4.546617,-0.092,0.991,-0.098,2437.02,-0.560,-0.112,0.112,0.023,-0.920,-0.391,0.407,0.514,-0.755,2443.28,0.783,-0.224,0.112,-0.569,-0.751,0.336,0.340,-0.483,-0.807,2465.93,0.895,0.895,-0.224,-0.823,0.525,0.216,-0.540,0.640,-0.546,2481.78,-0.112,0.336,-0.224,0.138,-0.386,0.912,0.992,-0.012,-0.126,10.034,6.305,0.656,-1.099,0.902,0.121,-0.415,10.820,-4.947,-4.244,-0.626,none
4.546727,-0.095,0.991,-0.090,2455.00,0.112,0.112,-0.560,0.020,-0.916,-0.400,0.417,0.498,-0.760,2479.52,-0.895,-0.671,-0.560,-0.617,-0.744,0.257,0.336,-0.491,-0.804,2465.05,0.224,0.783,-0.560,-0.815,0.531,0.230,-0.535,0.642,-0.549,2487.65,0.112,0.224,0.560,0.141,-0.392,0.909,0.992,-0.014,-0.126,10.036,6.244,1.542,-0.885,0.903,0.116,-0.413,10.811,-5.130,-3.405,-0.458,none
4.546833,-0.091,0.991,-0.101,2457.84,0.336,-0.448,-0.560,0.041,-0.939,-0.342,0.397,0.515,-0.760,2455.02,-0.560,-2.014,-0.448,-0.582,-0.748,0.321,0.341,-0.472,-0.813,2460.99,-0.560,1.343,0.112,-0.803,0.544,0.244,-0.540,0.647,-0.538,2500.43,-0.895,-0.448,0.560,0.126,-0.379,0.917,0.992,-0.008,-0.125,9.955,5.863,0.718,-1.435,0.903,0.122,-0.411,10.690,-5.435,-4.137,-0.947,none
4.546921,-0.088,0.991,-0.103,2426.23,-0.224,-0.336,-0.560,0.034,-0.939,-0.342,0.406,0.506,-0.761,2423.91,0.895,0.783,-0.448,-0.580,-0.758,0.298,0.339,-0.484,-0.807,2442.37,0.560,1.231,-0.112,-0.805,0.538,0.251,-0.534,0.650,-0.540,2490.33,-0.336,0.000,0.112,0.145,-0.393,0.908,0.992,-0.012,-0.125,9.984,4.534,-0.137,-1.496,0.903,0.120,-0.412,10.789,-6.595,-4.977,-0.534,none
4.547002,-0.091,0.992,-0.093,2463.92,-1.007,-1.455,-1.007,0.042,-0.927,-0.372,0.410,0.507,-0.759,2496.80,-1.231,-0.224,0.895,-0.595,-0.760,0.261,0.340,-0.485,-0.806,2517.87,1.007,1.679,0.336,-0.809,0.537,0.238,-0.537,0.645,-0.543,2476.73,0.671,0.224,0.671,0.156,-0.391,0.907,0.992,-0.024,-0.122,10.084,4.626,1.069,-0.275,0.907,0.111,-0.406,10.872,-6.489,-3.527,0.489,none
4.547083,-0.098,0.989,-0.113,2470.86,0.448,-2.238,-1.007,0.035,-0.904,-0.427,0.386,0.526,-0.758,2498.63,-2.014,-2.014,0.224,-0.573,-0.763,0.299,0.357,-0.463,-0.811,2488.02,-0.224,1.679,0.112,-0.822,0.525,0.221,-0.541,0.652,-0.531,2513.48,-1.007,-0.448,1.679,0.139,-0.378,0.915,0.992,-0.033,-0.120,10.072,6.626,1.099,0.092,0.909,0.096,-0.406,10.821,-4.412,-3.603,0.336,none
4.547165,-0.106,0.987,-0.117,2465.93,0.560,-0.336,-1.679,0.041,-0.926,-0.376,0.377,0.540,-0.752,2451.31,-1.231,-1.790,-1.343,-0.581,-0.756,0.300,0.356,-0.468,-0.809,2521.29,0.224,1.679,-1.343,-0.787,0.552,0.275,-0.532,0.658,-0.533,2521.16,-2.350,0.336,0.783,0.157,-0.394,0.906,0.992,-0.024,-0.120,10.079,8.611,-0.275,-0.672,0.907,0.110,-0.407,10.840,-2.595,-5.557,-0.412,none
4.547247,-0.099,0.990,-0.105,2459.77,0.783,1.343,-1.231,0.045,-0.930,-0.366,0.396,0.523,-0.755,2511.11,-0.560,1.231,-0.783,-0.580,-0.764,0.282,0.351,-0.478,-0.805,2471.95,0.448,-0.448,-0.448,-0.785,0.542,0.300,-0.524,0.662,-0.537,2505.86,-0.671,0.895,-0.783,0.152,-0.394,0.907,0.993,-0.020,-0.120,10.068,8.382,0.611,-1.802,0.905,0.110,-0.410,10.923,-3.389,-4.275,-1.664,none
4.547329,-0.094,0.990,-0.101,2475.60,-2.350,-0.112,-0.560,0.032,-0.930,-0.366,0.396,0.516,-0.759,2508.04,0.112,-0.224,0.560,-0.602,-0.747,0.281,0.342,-0.483,-0.806,2504.65,2.014,1.231,0.336,-0.827,0.508,0.238,-0.541,0.645,-0.539,2477.36,1.231,0.112,-1.007,0.135,-0.398,0.907,0.991,-0.054,-0.125,10.211,10.427,1.725,-0.565,0.906,0.098,-0.412,11.059,-1.679,-3.420,-0.198,none
4.547409,-0.086,0.991,-0.105,2464.92,-0.448,0.336,-0.783,0.048,-0.926,-0.375,0.401,0.511,-0.760,2477.44,0.224,-1.679,0.112,-0.579,-0.750,0.319,0.343,-0.485,-0.804,2474.19,0.448,1.343,0.000,-0.798,0.545,0.259,-0.538,0.641,-0.547,2493.65,2.126,0.224,-0.336,0.156,-0.394,0.906,0.992,-0.016,-0.128,10.102,16.427,2.809,0.473,0.901,0.122,-0.417,10.848,4.183,-1.435,-0.901,none
4.547489,-0.108,0.989,-0.098,2430.02,1.679,0.112,0.448,0.038,-0.932,-0.360,0.396,0.514,-0.761,2461.86,-1.119,-1.343,1.119,-0.586,-0.744,0.321,0.347,-0.491,-0.799,2382.90,-1.007,-0.112,0.224,-0.793,0.564,0.229,-0.540,0.644,-0.542,2500.02,-1.231,-0.112,-0.448,0.156,-0.394,0.906,0.992,-0.031,-0.123,10.097,13.908,1.527,0.565,0.905,0.102,-0.413,10.910,1.649,-5.496,0.153,none
4.547569,-0.098,0.990,-0.101,2467.65,-1.902,-0.783,-2.126,0.050,-0.930,-0.365,0.391,0.523,-0.757,2513.97,-0.783,0.560,0.448,-0.591,-0.741,0.321,0.353,-0.474,-0.807,2513.57,1.567,3.133,0.560,-0.802,0.554,0.222,-0.536,0.644,-0.546,2482.17,-2.350,-0.336,-0.224,0.150,-0.387,0.910,0.993,-0.029,-0.118,10.140,17.359,2.595,0.550,0.907,0.115,-0.406,10.899,4.489,-3.817,-0.275,none
4.572299,-0.106,0.990,-0.093,2466.76,0.224,0.224,-0.895,0.040,-0.936,-0.349,0.402,0.525,-0.750,2446.77,0.448,0.000,-0.671,-0.610,-0.733,0.299,0.360,-0.477,-0.802,2517.41,-0.224,0.336,0.000,-0.819,0.527,0.226,-0.532,0.647,-0.546,2501.19,-1.455,-0.895,-0.783,0.139,-0.389,0.911,0.991,-0.037,-0.127,9.951,16.733,3.038,-0.351,0.905,0.091,-0.415,10.706,3.115,-6.305,0.305,none
4.596247,-0.083,0.994,-0.077,2458.77,1.902,-4.252,-5.931,0.041,-0.938,-0.345,0.395,0.518,-0.759,2443.47,-1.343,0.895,-1.231,-0.591,-0.741,0.321,0.317,-0.538,-0.781,2523.37,-0.112,5.371,-0.560,-0.821,0.531,0.210,-0.537,0.648,-0.539,2495.04,0.783,-1.343,-0.336,0.157,-0.391,0.907,0.995,-0.029,-0.099,10.054,18.779,5.786,-0.595,0.911,0.121,-0.394,10.816,3.313,-2.718,-0.092,none
4.615994,-0.110,0.988,-0.105,2463.80,2.574,0.224,-2.686,0.038,-0.934,-0.354,0.394,0.515,-0.761,2550.68,-1.790,2.126,-1.902,-0.598,-0.752,0.279,0.373,-0.456,-0.808,2484.95,-2.574,2.126,-1.343,-0.789,0.562,0.247,-0.532,0.654,-0.537,2502.72,-2.014,-0.224,-0.112,0.156,-0.388,0.908,0.994,-0.008,-0.109,9.960,12.489,3.038,-1.160,0.907,0.121,-0.403,10.741,-2.519,-6.046,0.229,none
5.041740,-0.095,0.989,-0.110,2441.08,2.462,0.671,-2.574,0.036,-0.939,-0.342,0.388,0.528,-0.755,2508.52,0.224,3.693,-1.567,-0.571,-0.764,0.299,0.343,-0.485,-0.804,2474.19,-0.783,0.895,-0.895,-0.802,0.531,0.272,-0.533,0.652,-0.539,2496.19,-1.231,-0.112,-0.448,0.157,-0.389,0.908,0.993,-0.034,-0.113,9.999,12.779,2.595,-1.069,0.905,0.097,-0.414,10.795,-2.214,-6.565,0.061,none
5.042006,-0.099,0.990,-0.097,2458.74,-1.007,0.448,-3.021,0.063,-0.935,-0.349,0.399,0.518,-0.756,2439.86,-0.448,2.238,-1.119,-0.579,-0.734,0.356,0.346,-0.483,-0.805,2508.09,0.448,2.462,-0.671,-0.813,0.533,0.236,-0.543,0.646,-0.536,2489.24,-0.112,0.000,-0.671,0.157,-0.393,0.906,0.994,-0.011,-0.109,10.017,11.603,2.214,-0.489,0.905,0.117,-0.409,10.781,-1.969,-5.618,0.458,none
5.042118,-0.095,0.990,-0.101,2458.76,1.231,0.671,-2.910,0.049,-0.941,-0.334,0.401,0.524,-0.752,2454.28,-1.790,2.238,-2.350,-0.599,-0.750,0.281,0.340,-0.490,-0.803,2492.29,-2.014,1.790,-1.231,-0.824,0.519,0.227,-0.537,0.648,-0.539,2495.04,0.448,0.000,-0.112,0.145,-0.392,0.909,0.993,-0.027,-0.116,10.038,11.969,2.550,-0.366,0.905,0.103,-0.414,10.800,-1.130,-5.099,0.718,none
5.042214,-0.095,0.990,-0.102,2448.86,0.560,-0.112,-2.574,0.060,-0.938,-0.340,0.409,0.502,-0.762,2499.86,-1.343,2.126,-1.455,-0.570,-0.757,0.320,0.345,-0.480,-0.806,2480.51,-1.231,2.686,-0.112,-0.814,0.528,0.241,-0.540,0.648,-0.537,2483.83,-0.560,-0.112,0.000,0.156,-0.393,0.906,0.989,-0.071,-0.127,9.994,15.603,3.649,-2.076,0.902,0.049,-0.429,10.802,0.763,-4.931,-0.275,none
5.042304,-0.087,0.991,-0.098,2436.13,0.895,-0.112,-1.790,0.038,-0.927,-0.373,0.403,0.525,-0.750,2539.94,-1.902,1.119,-0.560,-0.587,-0.774,0.237,0.371,-0.467,-0.802,2443.84,-1.007,1.455,-0.336,-0.834,0.517,0.193,-0.537,0.648,-0.539,2495.04,-1.455,0.112,-0.224,0.151,-0.386,0.910,0.995,-0.009,-0.104,10.070,12.687,2.092,-1.023,0.906,0.119,-0.407,10.875,-2.168,-6.962,0.794,none
5.087943,-0.095,0.990,-0.106,2449.90,0.895,-0.448,-2.126,0.043,-0.926,-0.375,0.398,0.528,-0.750,2524.84,-1.790,0.224,0.336,-0.593,-0.768,0.241,0.347,-0.477,-0.808,2499.31,-1.679,1.679,-0.224,-0.817,0.527,0.235,-0.537,0.648,-0.539,2495.04,1.119,0.560,0.336,0.153,-0.391,0.907,0.994,-0.019,-0.103,10.080,8.962,1.069,-1.038,0.905,0.108,-0.411,10.871,-4.351,-6.290,0.351,none
5.088099,-0.102,0.990,-0.101,2468.55,1.119,-0.112,-1.231,0.051,-0.934,-0.355,0.416,0.512,-0.751,2507.69,-0.448,0.112,0.000,-0.589,-0.758,0.280,0.352,-0.479,-0.804,2488.29,-1.007,0.895,-0.112,-0.809,0.531,0.251,-0.532,0.648,-0.546,2483.94,1.007,0.000,0.224,0.143,-0.400,0.905,0.993,-0.033,-0.114,10.050,8.443,1.924,-1.542,0.905,0.095,-0.416,10.818,-4.885,-5.145,-0.214,none
5.088200,-0.111,0.989,-0.094,2450.03,0.448,-0.783,0.000,0.055,-0.942,-0.332,0.409,0.516,-0.752,2451.99,0.112,-1.343,0.895,-0.586,-0.744,0.321,0.354,-0.480,-0.803,2479.46,-1.231,0.224,1.119,-0.808,0.530,0.256,-0.533,0.649,-0.543,2495.75,0.783,0.000,0.671,0.158,-0.400,0.903,0.994,-0.026,-0.104,10.030,7.710,1.298,-0.916,0.907,0.109,-0.407,10.789,-4.702,-4.748,0.015,none
5.088301,-0.106,0.989,-0.105,2461.72,0.336,-0.895,-1.007,0.063,-0.943,-0.327,0.391,0.532,-0.751,2468.44,-1.679,-1.119,0.336,-0.567,-0.742,0.356,0.357,-0.471,-0.807,2487.99,-1.119,0.560,0.000,-0.832,0.512,0.213,-0.530,0.654,-0.540,2491.53,-0.224,0.336,0.783,0.159,-0.400,0.903,0.993,-0.035,-0.116,10.056,5.496,0.473,-1.237,0.904,0.096,-0.417,10.825,-6.061,-5.313,0.107,none
5.088401,-0.103,0.989,-0.102,2449.75,0.224,-1.119,-0.224,0.052,-0.933,-0.355,0.420,0.498,-0.759,2482.94,-1.231,-1.790,1.567,-0.586,-0.737,0.337,0.352,-0.474,-0.807,2489.17,-0.671,1.119,1.679,-0.830,0.513,0.218,-0.535,0.650,-0.540,2507.58,1.119,0.336,0.783,0.152,-0.401,0.903,0.994,-0.026,-0.104,10.138,4.870,0.550,-0.977,0.905,0.102,-0.412,10.921,-6.565,-5.145,0.473,none
5.088491,-0.110,0.989,-0.100,2479.57,0.448,-2.238,-0.112,0.044,-0.931,-0.361,0.397,0.531,-0.749,2530.14,-1.119,-1.902,1.231,-0.575,-0.736,0.357,0.354,-0.483,-0.801,2507.06,-1.119,0.671,1.679,-0.808,0.523,0.272,-0.536,0.647,-0.542,2518.35,1.679,-0.336,1.231,0.145,-0.398,0.906,0.994,-0.032,-0.102,10.167,5.588,1.267,-1.282,0.906,0.099,-0.411,10.897,-5.924,-4.092,-0.397,none
5.088587,-0.110,0.988,-0.112,2482.77,0.112,-1.790,0.000,0.051,-0.931,-0.361,0.389,0.525,-0.757,2502.50,-0.224,-1.567,0.560,-0.589,-0.765,0.262,0.362,-0.463,-0.809,2530.73,-1.231,0.783,0.895,-0.814,0.523,0.251,-0.544,0.647,-0.534,2517.85,1.343,-0.448,0.224,0.146,-0.393,0.908,0.994,-0.032,-0.106,10.109,6.397,1.023,-1.328,0.907,0.098,-0.409,10.842,-5.069,-4.275,-0.824,none
5.088684,-0.102,0.989,-0.109,2469.66,0.895,-0.448,0.336,0.042,-0.927,-0.372,0.397,0.519,-0.757,2476.16,0.895,-0.783,0.112,-0.568,-0.759,0.319,0.352,-0.469,-0.810,2517.75,-2.126,-1.343,-0.560,-0.833,0.513,0.209,-0.539,0.650,-0.536,2507.56,-0.560,0.336,-0.336,0.153,-0.394,0.906,0.994,-0.026,-0.102,10.047,6.687,1.359,-0.931,0.905,0.107,-0.411,10.826,-4.916,-3.817,-0.824,none
5.088767,-0.103,0.989,-0.106,2450.79,1.567,0.448,0.336,0.048,-0.940,-0.339,0.405,0.518,-0.754,2501.28,0.336,-0.448,-0.448,-0.589,-0.758,0.280,0.347,-0.477,-0.808,2499.31,-0.560,-0.671,-0.671,-0.822,0.522,0.227,-0.525,0.656,-0.542,2498.74,-1.007,0.560,-0.112,0.150,-0.386,0.910,0.993,-0.039,-0.114,10.042,5.084,2.321,-1.481,0.904,0.091,-0.418,10.802,-6.687,-3.130,-1.191,none
5.088847,-0.115,0.989,-0.097,2452.02,0.336,-1.343,1.007,0.048,-0.938,-0.344,0.396,0.536,-0.746,2487.74,0.000,-2.686,1.679,-0.576,-0.753,0.318,0.361,-0.476,-0.802,2482.63,-0.448,0.336,1.455,-0.808,0.534,0.249,-0.534,0.651,-0.540,2473.08,0.560,-0.895,0.112,0.163,-0.395,0.904,0.994,-0.046,-0.103,9.887,6.794,3.374,-1.740,0.908,0.088,-0.410,10.616,-4.916,-2.519,-1.221,none
5.088927,-0.109,0.987,-0.116,2405.64,1.343,-0.448,0.112,0.051,-0.933,-0.356,0.386,0.521,-0.761,2372.04,1.567,-0.895,0.336,-0.581,-0.756,0.300,0.351,-0.465,-0.813,2413.19,-1.007,0.560,0.783,-0.834,0.523,0.174,-0.539,0.652,-0.533,2451.02,0.671,-0.671,-0.783,0.136,-0.393,0.910,0.993,-0.043,-0.107,9.744,8.427,2.046,-1.725,0.905,0.068,-0.419,10.474,-2.595,-3.282,-1.191,none
5.089006,-0.082,0.992,-0.097,2364.23,0.112,-0.336,-0.560,0.048,-0.940,-0.339,0.391,0.521,-0.759,2392.61,0.336,1.119,0.000,-0.562,-0.778,0.281,0.335,-0.498,-0.800,2353.60,0.224,1.007,-0.336,-0.820,0.529,0.221,-0.552,0.641,-0.533,2430.72,-0.336,0.224,-1.231,0.125,-0.376,0.918,0.996,-0.019,-0.092,9.783,9.893,0.366,-0.397,0.907,0.114,-0.407,10.594,-0.977,-4.870,0.397,none
5.089086,-0.097,0.990,-0.100,2398.34,-0.783,0.336,-3.469,0.041,-0.919,-0.393,0.391,0.526,-0.755,2442.05,-0.895,1.679,-1.119,-0.560,-0.765,0.320,0.332,-0.490,-0.806,2408.45,1.567,2.910,-1.790,-0.839,0.515,0.177,-0.548,0.641,-0.537,2429.93,-0.895,1.343,0.783,0.151,-0.388,0.909,0.994,-0.023,-0.103,9.919,8.641,0.290,0.366,0.903,0.106,-0.417,10.697,-2.092,-4.595,1.206,none
5.089165,-0.100,0.990,-0.095,2427.17,0.112,0.448,-3.581,0.056,-0.928,-0.369,0.431,0.482,-0.763,2443.08,-1.231,2.910,-2.238,-0.593,-0.747,0.299,0.347,-0.484,-0.803,2441.19,0.560,2.798,-0.895,-0.824,0.512,0.243,-0.529,0.648,-0.547,2495.23,-0.671,1.119,1.455,0.138,-0.396,0.908,0.993,-0.027,-0.112,10.084,5.969,-0.153,-0.779,0.902,0.101,-0.419,10.860,-4.718,-5.069,0.733,none
5.089258,-0.114,0.989,-0.093,2469.95,-1.007,-1.455,-2.910,0.054,-0.923,-0.380,0.410,0.523,-0.747,2494.80,-1.902,1.567,0.112,-0.567,-0.752,0.337,0.355,-0.478,-0.803,2551.36,0.112,3.245,0.336,-0.822,0.516,0.239,-0.532,0.647,-0.546,2501.19,1.119,0.560,2.014,0.141,-0.399,0.906,0.994,-0.042,-0.102,10.163,5.710,0.534,0.214,0.907,0.088,-0.412,10.930,-4.947,-4.122,1.344,none
5.089342,-0.117,0.988,-0.104,2493.73,1.119,-1.007,-2.238,0.047,-0.938,-0.344,0.401,0.532,-0.746,2527.00,-2.798,-1.119,-0.671,-0.589,-0.717,0.374,0.368,-0.472,-0.801,2544.80,-1.343,2.686,-0.560,-0.827,0.519,0.217,-0.531,0.649,-0.544,2507.02,-0.112,0.112,2.462,0.150,-0.390,0.908,0.994,-0.037,-0.104,10.223,4.702,0.687,-0.107,0.907,0.094,-0.411,10.953,-6.076,-3.786,0.611,none
5.090324,-0.118,0.986,-0.116,2476.20,0.671,-1.007,-1.119,0.056,-0.944,-0.324,0.396,0.529,-0.750,2538.38,-1.455,-0.671,-0.671,-0.584,-0.762,0.280,0.368,-0.465,-0.805,2518.23,-0.560,2.014,-0.224,-0.832,0.518,0.197,-0.526,0.661,-0.535,2550.98,-0.783,0.000,1.119,0.133,-0.387,0.912,0.994,-0.041,-0.106,10.251,3.985,-0.809,-1.450,0.909,0.087,-0.408,10.984,-6.855,-5.725,-0.336,none
5.106547,-0.120,0.987,-0.111,2515.70,-1.343,-1.455,-0.448,0.049,-0.927,-0.373,0.397,0.538,-0.743,2549.97,0.000,0.000,1.007,-0.567,-0.752,0.337,0.370,-0.470,-0.801,2556.51,0.000,0.448,0.783,-0.811,0.528,0.250,-0.525,0.657,-0.542,2537.39,1.007,-0.112,0.336,0.147,-0.396,0.906,0.994,-0.041,-0.105,10.255,4.122,0.061,-2.504,0.909,0.087,-0.408,11.015,-6.962,-4.901,-1.603,none
5.131382,-0.120,0.987,-0.111,2506.82,-0.112,-0.336,1.007,0.049,-0.944,-0.326,0.395,0.531,-0.750,2514.12,1.567,-0.671,0.671,-0.589,-0.735,0.337,0.368,-0.465,-0.805,2518.23,-0.112,-0.560,0.671,-0.830,0.525,0.190,-0.528,0.657,-0.538,2537.79,1.679,-0.671,-0.224,0.136,-0.393,0.909,0.994,-0.040,-0.102,10.143,4.229,-0.015,-3.466,0.908,0.092,-0.409,10.900,-7.038,-4.901,-2.595,none
5.551899,-0.118,0.987,-0.113,2476.16,-0.560,-0.112,1.455,0.061,-0.942,-0.330,0.399,0.528,-0.749,2488.55,2.014,0.000,0.112,-0.624,-0.763,0.172,0.366,-0.472,-0.802,2503.17,0.560,-1.007,0.560,-0.811,0.525,0.257,-0.526,0.657,-0.540,2509.38,1.007,-0.336,-1.007,0.135,-0.389,0.911,0.994,-0.039,-0.104,10.037,4.595,-0.321,-3.496,0.908,0.090,-0.410,10.788,-6.656,-5.298,-2.580,none
5.552059,-0.115,0.987,-0.110,2446.24,-0.112,0.000,1.790,0.067,-0.926,-0.371,0.395,0.533,-0.748,2464.87,1.231,-0.560,0.671,-0.586,-0.761,0.278,0.360,-0.472,-0.805,2461.99,0.112,-1.790,0.895,-0.812,0.530,0.245,-0.534,0.651,-0.540,2473.08,0.000,-0.560,-1.455,0.138,-0.396,0.908,0.994,-0.031,-0.102,9.923,4.305,-0.198,-3.389,0.906,0.098,-0.411,10.677,-6.931,-4.977,-2.519,none
5.552161,-0.108,0.989,-0.103,2421.13,-0.336,0.224,1.567,0.042,-0.927,-0.372,0.403,0.515,-0.756,2439.22,1.790,0.112,0.224,-0.589,-0.735,0.337,0.350,-0.478,-0.805,2447.56,-0.112,-1.119,0.560,-0.810,0.540,0.229,-0.538,0.647,-0.540,2454.06,1.231,-0.336,-1.119,0.134,-0.384,0.914,0.995,-0.026,-0.101,9.870,3.939,-0.412,-2.809,0.906,0.102,-0.410,10.624,-7.099,-5.206,-1.893,none
5.552261,-0.101,0.989,-0.108,2401.41,0.224,-0.112,1.231,0.050,-0.932,-0.360,0.399,0.515,-0.759,2417.72,0.336,0.448,1.119,-0.548,-0.750,0.371,0.351,-0.476,-0.806,2419.22,-0.112,-0.448,0.895,-0.816,0.527,0.236,-0.542,0.647,-0.536,2455.27,1.902,-0.112,-0.336,0.127,-0.385,0.914,0.994,-0.030,-0.102,9.898,3.618,-0.824,-2.473,0.907,0.100,-0.409,10.666,-7.206,-5.145,-1.603,none
5.552345,-0.108,0.988,-0.106,2433.05,-1.007,0.000,0.336,0.051,-0.946,-0.320,0.396,0.524,-0.754,2433.55,0.000,1.119,0.783,-0.590,-0.725,0.354,0.359,-0.473,-0.805,2473.48,1.455,-0.560,-0.224,-0.810,0.532,0.245,-0.540,0.644,-0.542,2464.86,0.783,0.671,0.000,0.144,-0.397,0.906,0.994,-0.036,-0.105,10.005,4.992,-0.718,-1.802,0.907,0.095,-0.411,10.760,-5.557,-4.901,-1.191,none
5.552437,-0.111,0.989,-0.102,2442.00,0.448,0.895,-0.560,0.049,-0.925,-0.376,0.401,0.518,-0.756,2480.15,-0.224,1.231,-0.224,-0.593,-0.748,0.299,0.353,-0.476,-0.805,2458.32,0.224,-0.224,-1.343,-0.821,0.509,0.259,-0.538,0.645,-0.543,2494.63,-0.783,1.231,-0.112,0.150,-0.392,0.908,0.994,-0.026,-0.110,10.052,4.870,-0.931,-1.359,0.903,0.102,-0.418,10.820,-5.802,-5.099,-0.885,none
5.552531,-0.111,0.989,-0.097,2460.78,0.336,1.231,-1.007,0.070,-0.934,-0.350,0.422,0.511,-0.749,2516.83,-0.783,1.679,-0.448,-0.565,-0.744,0.357,0.359,-0.485,-0.797,2496.24,0.112,-0.336,-1.119,-0.813,0.547,0.199,-0.531,0.646,-0.548,2505.47,0.000,1.455,0.112,0.131,-0.398,0.908,0.993,-0.029,-0.110,10.090,4.611,-0.489,-1.832,0.904,0.096,-0.417,10.887,-6.290,-5.053,-1.191,none
5.552660,-0.114,0.989,-0.097,2470.81,0.336,0.112,0.336,0.049,-0.943,-0.329,0.402,0.524,-0.751,2471.05,0.224,0.448,0.224,-0.582,-0.763,0.280,0.362,-0.480,-0.799,2479.41,-0.224,-0.560,0.112,-0.817,0.529,0.229,-0.539,0.642,-0.545,2505.46,0.783,0.560,-0.112,0.143,-0.391,0.909,0.994,-0.027,-0.110,10.080,5.603,-0.076,-1.908,0.903,0.100,-0.417,10.829,-5.435,-4.595,-1.267,none
5.552750,-0.106,0.989,-0.105,2461.72,0.224,0.448,-0.224,0.046,-0.935,-0.352,0.407,0.512,-0.757,2490.23,0.112,1.567,-0.783,-0.549,-0.765,0.337,0.353,-0.476,-0.806,2483.52,-0.112,-0.336,-0.112,-0.810,0.540,0.228,-0.532,0.647,-0.546,2501.19,0.560,0.224,0.000,0.133,-0.392,0.910,0.993,-0.027,-0.113,10.061,5.130,-0.275,-2.443,0.902,0.103,-0.419,10.837,-5.924,-4.763,-1.649,none
5.553745,-0.107,0.990,-0.094,2459.83,-1.343,-0.224,-0.224,0.047,-0.939,-0.340,0.418,0.511,-0.751,2495.07,0.783,1.343,-0.112,-0.581,-0.732,0.355,0.354,-0.483,-0.801,2507.06,1.007,0.560,0.112,-0.809,0.536,0.241,-0.535,0.642,-0.549,2487.65,0.448,0.000,-0.336,0.147,-0.396,0.906,0.994,-0.026,-0.103,10.123,5.176,0.504,-1.695,0.906,0.102,-0.410,10.909,-5.863,-3.771,-1.145,none
5.553863,-0.110,0.988,-0.104,2480.60,-0.560,-0.112,-0.224,0.055,-0.929,-0.367,0.405,0.524,-0.749,2527.20,-0.783,-0.336,-1.007,-0.562,-0.763,0.318,0.354,-0.478,-0.804,2534.67,-0.224,-0.224,-0.671,-0.808,0.528,0.262,-0.539,0.646,-0.541,2505.82,-1.679,-0.112,0.112,0.137,-0.386,0.912,0.994,-0.025,-0.108,10.087,5.099,1.206,-1.634,0.904,0.103,-0.415,10.846,-6.092,-3.206,-1.221,none
5.553955,-0.106,0.990,-0.097,2460.69,1.343,0.336,0.560,0.035,-0.938,-0.346,0.410,0.507,-0.759,2496.80,0.560,-0.336,-1.007,-0.563,-0.746,0.355,0.350,-0.479,-0.805,2507.57,-1.455,-0.895,-0.112,-0.825,0.515,0.234,-0.542,0.645,-0.539,2494.62,-1.007,-0.671,0.000,0.130,-0.396,0.909,0.994,-0.029,-0.104,10.008,5.695,1.160,-1.298,0.907,0.100,-0.408,10.767,-5.618,-3.618,-0.687,none
5.554041,-0.103,0.989,-0.110,2441.98,0.560,0.000,-0.448,0.060,-0.937,-0.345,0.393,0.525,-0.755,2429.99,-0.895,-1.119,-0.448,-0.599,-0.750,0.281,0.354,-0.469,-0.810,2480.21,-0.560,0.783,-0.336,-0.825,0.521,0.218,-0.541,0.648,-0.535,2495.07,-0.783,-0.671,0.671,0.136,-0.400,0.906,0.994,-0.032,-0.101,10.067,5.878,0.534,-0.519,0.909,0.096,-0.406,10.803,-5.099,-4.076,-0.107,none
5.555617,-0.114,0.987,-0.113,2474.01,0.895,0.448,-1.231,0.051,-0.933,-0.356,0.398,0.522,-0.754,2498.10,-1.343,0.671,-1.455,-0.586,-0.761,0.278,0.362,-0.467,-0.806,2527.30,-0.448,0.671,-1.567,-0.841,0.501,0.204,-0.529,0.656,-0.539,2515.31,-1.790,0.560,1.007,0.146,-0.392,0.908,0.994,-0.036,-0.106,10.129,6.183,0.137,-1.069,0.908,0.092,-0.410,10.904,-4.885,-4.580,-0.641,none
5.555737,-0.118,0.987,-0.113,2476.16,1.007,0.560,-0.224,0.047,-0.923,-0.383,0.395,0.533,-0.748,2519.44,-0.560,0.671,-0.560,-0.587,-0.760,0.280,0.362,-0.470,-0.805,2531.99,-1.007,-0.671,-1.007,-0.828,0.521,0.206,-0.529,0.656,-0.539,2515.31,-1.007,-0.112,0.336,0.141,-0.392,0.909,0.994,-0.036,-0.101,10.049,6.198,-0.229,-2.107,0.907,0.095,-0.409,10.819,-5.023,-5.176,-1.542,none
5.555829,-0.111,0.987,-0.114,2456.10,0.000,0.671,0.560,0.058,-0.933,-0.356,0.393,0.528,-0.752,2450.85,0.783,0.336,0.224,-0.604,-0.760,0.238,0.362,-0.463,-0.809,2507.13,-0.224,-1.007,-0.224,-0.835,0.521,0.179,-0.534,0.654,-0.536,2490.82,0.112,0.000,-0.783,0.151,-0.384,0.911,0.995,-0.038,-0.097,10.024,6.947,0.122,-1.588,0.909,0.094,-0.407,10.813,-4.168,-4.595,-1.206,none
5.555914,-0.111,0.987,-0.117,2456.16,1.007,1.455,-0.112,0.036,-0.920,-0.389,0.395,0.527,-0.752,2491.33,-0.224,1.119,-0.783,-0.608,-0.750,0.262,0.361,-0.467,-0.807,2488.16,-0.895,-1.231,-1.007,-0.835,0.508,0.210,-0.537,0.653,-0.535,2478.93,-0.895,0.448,-0.448,0.143,-0.393,0.908,0.994,-0.031,-0.104,10.046,7.664,0.275,-1.374,0.908,0.098,-0.408,10.773,-3.588,-4.443,-1.252,none
5.557370,-0.107,0.988,-0.114,2445.14,1.231,1.902,-0.560,0.061,-0.940,-0.337,0.392,0.533,-0.750,2485.94,0.000,1.119,-1.119,-0.564,-0.754,0.336,0.357,-0.468,-0.809,2484.57,0.000,-0.783,-1.119,-0.795,0.545,0.268,-0.529,0.656,-0.538,2498.08,-1.343,0.336,-0.671,0.144,-0.393,0.908,0.994,-0.031,-0.108,10.028,6.626,-0.733,-2.412,0.906,0.096,-0.412,10.783,-4.519,-5.618,-1.954,none
5.557492,-0.115,0.988,-0.106,2444.18,-0.560,1.343,0.224,0.046,-0.936,-0.348,0.405,0.519,-0.753,2476.64,1.455,1.455,0.112,-0.551,-0.771,0.318,0.362,-0.473,-0.803,2477.08,1.231,-1.119,-0.112,-0.802,0.530,0.277,-0.536,0.648,-0.542,2483.19,-0.112,0.336,-1.455,0.153,-0.400,0.904,0.993,-0.029,-0.111,10.000,6.595,-0.794,-2.443,0.904,0.097,-0.417,10.775,-4.489,-5.466,-1.939,none
5.557585,-0.103,0.990,-0.098,2449.74,-1.007,1.455,-0.448,0.049,-0.941,-0.334,0.417,0.512,-0.751,2455.22,1.231,1.790,-0.560,-0.585,-0.746,0.318,0.359,-0.480,-0.800,2500.20,1.007,-0.448,-1.007,-0.833,0.508,0.218,-0.536,0.644,-0.546,2482.17,0.448,0.671,-1.007,0.151,-0.397,0.905,0.993,-0.032,-0.112,10.066,6.947,0.168,-1.359,0.905,0.096,-0.414,10.856,-4.137,-4.427,-0.977,none
5.575332,-0.110,0.988,-0.105,2470.71,0.448,1.231,-0.895,0.053,-0.940,-0.337,0.417,0.521,-0.745,2503.82,-0.783,0.895,-1.343,-0.570,-0.766,0.298,0.360,-0.476,-0.802,2542.26,-0.560,0.112,-1.231,-0.834,0.517,0.193,-0.528,0.651,-0.545,2502.38,-1.007,0.000,0.112,0.150,-0.386,0.910,0.993,-0.030,-0.112,10.059,5.573,0.916,-1.817,0.905,0.099,-0.415,10.815,-5.695,-3.924,-1.298,none
5.598805,-0.111,0.988,-0.106,2453.91,2.014,1.007,0.895,0.048,-0.938,-0.344,0.407,0.520,-0.751,2469.12,0.895,-0.112,-0.336,-0.578,-0.735,0.355,0.354,-0.473,-0.807,2477.98,-2.126,-1.567,0.448,-0.830,0.503,0.239,-0.536,0.651,-0.538,2502.19,-1.679,-0.448,-0.224,0.147,-0.420,0.895,0.994,-0.033,-0.105,10.009,5.481,0.595,-1.847,0.907,0.095,-0.411,10.766,-5.634,-4.427,-1.084,none
5.619760,-0.111,0.987,-0.114,2445.24,0.895,0.336,0.448,0.049,-0.944,-0.326,0.390,0.528,-0.754,2471.95,-0.112,0.000,-0.112,-0.598,-0.782,0.174,0.362,-0.471,-0.805,2448.42,-1.119,-0.783,0.000,-0.801,0.543,0.253,-0.538,0.654,-0.532,2490.84,-0.560,-0.336,0.000,0.145,-0.388,0.910,0.994,-0.030,-0.105,10.056,6.504,0.000,-1.481,0.907,0.099,-0.410,10.808,-4.641,-4.840,-0.992,none
5.641198,-0.106,0.987,-0.117,2465.93,-1.119,0.560,-1.007,0.046,-0.935,-0.352,0.394,0.530,-0.751,2497.37,-0.336,0.783,-0.560,-0.593,-0.748,0.299,0.359,-0.466,-0.809,2496.24,1.231,0.671,-0.560,-0.817,0.529,0.231,-0.535,0.653,-0.536,2508.71,0.671,0.224,-0.336,0.148,-0.394,0.907,0.994,-0.031,-0.108,10.122,6.427,-0.656,-1.985,0.906,0.097,-0.412,10.889,-4.626,-5.389,-1.389,none
6.061534,-0.114,0.988,-0.100,2480.69,-1.231,1.007,-0.336,0.050,-0.945,-0.324,0.409,0.523,-0.747,2548.81,0.336,1.343,-0.112,-0.589,-0.751,0.299,0.359,-0.471,-0.806,2529.56,1.567,-0.224,-0.671,-0.823,0.523,0.221,-0.532,0.647,-0.546,2501.19,-0.112,0.224,-1.007,0.146,-0.394,0.907,0.994,-0.025,-0.108,10.093,6.198,0.580,-2.153,0.905,0.102,-0.414,10.852,-5.145,-4.229,-1.710,none
6.061693,-0.103,0.989,-0.102,2449.75,0.224,1.007,0.783,0.047,-0.940,-0.339,0.411,0.516,-0.752,2491.91,1.343,-0.112,-0.560,-0.559,-0.749,0.356,0.349,-0.479,-0.805,2483.98,-0.448,-1.343,-0.112,-0.829,0.510,0.228,-0.535,0.646,-0.544,2488.62,-1.231,-0.448,-0.783,0.146,-0.391,0.909,0.994,-0.026,-0.108,10.017,5.084,0.458,-2.473,0.903,0.104,-0.417,10.776,-6.214,-4.534,-1.725,none
6.061787,-0.103,0.989,-0.106,2441.89,0.448,0.224,1.231,0.046,-0.920,-0.388,0.405,0.515,-0.755,2454.71,0.448,0.000,0.336,-0.594,-0.723,0.354,0.352,-0.475,-0.807,2466.38,-0.224,-0.671,0.560,-0.819,0.520,0.242,-0.536,0.652,-0.537,2484.94,0.112,-0.448,-0.671,0.151,-0.390,0.909,0.994,-0.031,-0.102,10.000,4.992,0.168,-2.382,0.907,0.099,-0.410,10.760,-6.244,-4.718,-1.634,none
6.061877,-0.107,0.988,-0.114,2445.14,-0.336,-0.336,0.671,0.054,-0.937,-0.345,0.398,0.523,-0.754,2474.57,0.560,0.112,0.224,-0.573,-0.763,0.299,0.355,-0.466,-0.810,2469.87,0.895,0.448,0.560,-0.813,0.532,0.235,-0.543,0.647,-0.536,2471.34,0.895,-0.336,-0.336,0.150,-0.396,0.906,0.995,-0.034,-0.099,10.029,5.863,0.595,-1.496,0.907,0.097,-0.409,10.814,-5.298,-4.107,-0.947,none
6.061977,-0.111,0.987,-0.117,2456.16,0.000,0.336,-0.112,0.040,-0.933,-0.358,0.396,0.525,-0.754,2487.35,-0.560,0.112,-0.783,-0.589,-0.758,0.280,0.361,-0.467,-0.807,2488.16,-0.783,-0.224,-1.119,-0.844,0.495,0.205,-0.537,0.652,-0.535,2496.83,-0.448,0.112,0.336,0.135,-0.390,0.911,0.993,-0.031,-0.111,10.058,6.427,0.061,-1.817,0.906,0.096,-0.413,10.787,-4.794,-4.718,-1.359,none
6.062077,-0.115,0.987,-0.110,2446.24,-0.671,0.783,-0.112,0.044,-0.931,-0.361,0.400,0.533,-0.746,2485.62,0.448,0.895,-0.448,-0.585,-0.746,0.318,0.364,-0.471,-0.803,2465.61,0.671,-0.336,-0.336,-0.821,0.525,0.225,-0.526,0.657,-0.540,2509.38,-0.783,0.448,-0.671,0.151,-0.398,0.905,0.994,-0.031,-0.108,10.045,5.359,-0.992,-3.099,0.907,0.097,-0.410,10.805,-5.710,-5.924,-2.153,none
6.062157,-0.114,0.987,-0.109,2465.00,-1.679,0.224,0.560,0.047,-0.937,-0.347,0.413,0.519,-0.749,2477.66,1.567,1.902,0.783,-0.583,-0.747,0.320,0.356,-0.473,-0.806,2517.12,2.126,-0.783,0.671,-0.825,0.520,0.222,-0.532,0.651,-0.541,2484.35,0.560,0.336,-1.231,0.145,-0.392,0.909,0.994,-0.034,-0.101,10.070,5.374,0.000,-2.305,0.908,0.096,-0.408,10.826,-5.695,-4.901,-1.649,none
6.062256,-0.110,0.988,-0.109,2472.77,0.448,0.671,0.448,0.034,-0.939,-0.342,0.406,0.526,-0.747,2496.20,0.112,0.671,-0.336,-0.579,-0.758,0.299,0.356,-0.473,-0.806,2517.12,0.000,-1.231,-0.336,-0.833,0.506,0.223,-0.535,0.646,-0.544,2488.62,0.224,0.224,-0.336,0.153,-0.396,0.905,0.993,-0.030,-0.112,10.044,5.313,0.718,-2.275,0.905,0.099,-0.414,10.814,-5.969,-3.985,-1.802,none
6.062342,-0.111,0.988,-0.106,2443.04,0.671,0.895,0.783,0.064,-0.934,-0.352,0.407,0.520,-0.751,2469.12,0.895,0.336,-1.007,-0.612,-0.761,0.215,0.359,-0.470,-0.806,2470.04,-0.560,-1.343,-0.448,-0.846,0.493,0.205,-0.529,0.652,-0.543,2496.94,0.112,-0.112,-0.560,0.146,-0.399,0.905,0.994,-0.023,-0.110,10.012,4.412,0.153,-3.282,0.904,0.104,-0.415,10.750,-6.870,-4.611,-2.565,none
6.062836,-0.103,0.989,-0.106,2441.89,-0.336,-0.112,1.231,0.043,-0.929,-0.366,0.405,0.522,-0.751,2481.84,1.567,0.783,0.224,-0.589,-0.766,0.256,0.345,-0.480,-0.806,2480.51,0.336,-1.007,0.336,-0.822,0.525,0.221,-0.534,0.650,-0.540,2490.33,0.336,-0.112,-1.567,0.150,-0.390,0.908,0.994,-0.026,-0.104,9.950,3.588,-0.244,-3.313,0.905,0.105,-0.412,10.730,-7.527,-4.901,-2.275,none
6.062927,-0.100,0.990,-0.102,2439.93,-0.112,-0.448,1.679,0.036,-0.924,-0.381,0.407,0.506,-0.760,2440.65,1.902,0.336,1.007,-0.587,-0.760,0.280,0.349,-0.477,-0.807,2454.81,-0.448,-1.679,1.007,-0.814,0.523,0.251,-0.550,0.634,-0.543,2457.22,1.007,0.000,-0.224,0.170,-0.402,0.900,0.995,-0.017,-0.095,9.977,3.695,1.008,-1.420,0.906,0.107,-0.409,10.765,-7.695,-2.565,-1.084,none
6.063016,-0.091,0.991,-0.094,2445.08,1.679,0.560,0.112,0.060,-0.938,-0.340,0.414,0.506,-0.756,2517.68,-0.671,0.112,-1.007,-0.591,-0.741,0.321,0.354,-0.478,-0.804,2451.08,-1.567,-0.671,-1.231,-0.807,0.527,0.268,-0.532,0.647,-0.546,2501.19,-0.336,0.224,1.343,0.154,-0.404,0.902,0.992,-0.040,-0.116,10.098,2.656,1.511,-1.832,0.905,0.090,-0.416,10.848,-8.397,-2.122,-1.267,none
6.063114,-0.122,0.986,-0.116,2477.28,1.679,-0.448,-0.112,0.076,-0.949,-0.306,0.397,0.532,-0.748,2505.89,-0.783,-0.448,-0.224,-0.567,-0.744,0.353,0.368,-0.462,-0.807,2514.87,-1.119,0.448,-1.007,-0.830,0.513,0.218,-0.528,0.660,-0.534,2538.36,-1.790,0.671,1.119,0.150,-0.397,0.906,0.993,-0.039,-0.108,10.147,2.336,1.603,-3.008,0.908,0.089,-0.408,10.892,-8.809,-2.366,-1.924,none
6.063196,-0.122,0.985,-0.121,2471.56,1.343,-0.671,1.007,0.052,-0.935,-0.352,0.397,0.531,-0.749,2530.14,-1.567,0.224,0.336,-0.575,-0.761,0.302,0.368,-0.462,-0.807,2514.87,-1.119,-1.790,-0.448,-0.813,0.520,0.263,-0.528,0.654,-0.542,2520.71,-1.007,0.112,-0.112,0.144,-0.395,0.907,0.994,-0.036,-0.107,10.108,3.847,1.313,-2.702,0.907,0.093,-0.410,10.847,-7.328,-3.252,-1.725,none
6.063282,-0.111,0.987,-0.114,2456.10,1.007,-0.112,1.119,0.045,-0.933,-0.356,0.403,0.525,-0.750,2539.94,0.336,-2.014,0.671,-0.559,-0.758,0.335,0.358,-0.469,-0.807,2477.30,-0.448,-0.895,0.000,-0.799,0.541,0.263,-0.541,0.648,-0.535,2495.07,0.783,0.000,-0.560,0.156,-0.396,0.905,0.994,-0.027,-0.102,10.043,5.710,0.611,-1.893,0.908,0.102,-0.407,10.798,-5.527,-4.137,-1.344,none
6.063369,-0.099,0.988,-0.117,2454.10,0.224,0.224,0.112,0.041,-0.938,-0.345,0.388,0.525,-0.758,2487.08,-0.560,0.224,-0.112,-0.587,-0.766,0.262,0.350,-0.461,-0.815,2476.33,0.560,0.112,-0.448,-0.824,0.514,0.238,-0.542,0.650,-0.532,2490.38,1.119,0.000,-0.560,0.147,-0.393,0.908,0.995,-0.025,-0.101,10.053,6.214,-0.595,-1.969,0.908,0.105,-0.407,10.792,-4.748,-5.557,-1.176,none
6.063454,-0.099,0.989,-0.114,2452.07,-1.007,0.560,-0.336,0.040,-0.933,-0.358,0.395,0.515,-0.760,2438.06,-0.560,0.895,0.112,-0.576,-0.753,0.318,0.352,-0.464,-0.813,2460.86,2.126,0.224,-0.671,-0.823,0.516,0.237,-0.541,0.648,-0.535,2495.07,-0.224,1.343,-0.783,0.144,-0.390,0.909,0.994,-0.022,-0.103,10.086,6.641,-0.733,-1.756,0.908,0.107,-0.406,10.843,-4.397,-5.542,-1.206,none
6.065250,-0.106,0.988,-0.109,2470.70,-1.455,1.007,-0.783,0.036,-0.939,-0.342,0.419,0.507,-0.753,2514.29,0.336,0.224,-0.336,-0.566,-0.752,0.337,0.353,-0.474,-0.807,2513.57,1.007,-0.671,-0.671,-0.831,0.504,0.234,-0.532,0.651,-0.542,2501.59,-0.560,0.895,-0.783,0.153,-0.396,0.905,0.994,-0.023,-0.109,10.064,5.786,-0.427,-2.290,0.904,0.107,-0.415,10.851,-5.298,-5.328,-1.588,none
6.065338,-0.106,0.989,-0.101,2469.59,-1.455,0.112,0.336,0.043,-0.929,-0.366,0.402,0.536,-0.742,2470.74,-0.112,-0.336,0.783,-0.586,-0.754,0.299,0.354,-0.480,-0.802,2502.25,1.343,-0.112,0.448,-0.821,0.514,0.248,-0.531,0.649,-0.544,2507.02,0.895,0.448,-0.783,0.148,-0.396,0.906,0.994,-0.028,-0.110,10.063,5.313,-0.397,-2.504,0.906,0.102,-0.411,10.859,-5.817,-5.328,-1.725,none
6.065419,-0.110,0.988,-0.105,2470.71,-1.119,0.336,0.448,0.039,-0.930,-0.366,0.411,0.516,-0.752,2491.91,1.119,0.671,0.560,-0.578,-0.751,0.319,0.354,-0.475,-0.806,2506.31,0.336,-0.336,0.224,-0.822,0.516,0.239,-0.535,0.646,-0.544,2488.62,1.679,0.000,-0.671,0.155,-0.383,0.911,0.994,-0.026,-0.107,10.052,5.466,0.198,-1.908,0.905,0.101,-0.413,10.815,-5.664,-4.626,-1.252,none
6.086404,-0.111,0.988,-0.106,2453.91,0.448,0.448,0.336,0.042,-0.927,-0.372,0.402,0.524,-0.751,2471.05,0.112,0.112,0.000,-0.577,-0.744,0.338,0.357,-0.472,-0.806,2482.34,-0.448,-0.783,-0.112,-0.822,0.514,0.247,-0.533,0.649,-0.543,2495.75,-0.783,0.224,-0.112,0.151,-0.392,0.907,0.994,-0.028,-0.105,10.048,5.634,-0.107,-1.695,0.906,0.100,-0.411,10.831,-5.511,-5.084,-1.023,none
6.108676,-0.115,0.988,-0.105,2455.04,0.448,0.336,0.224,0.037,-0.927,-0.373,0.409,0.520,-0.750,2526.80,0.224,0.336,0.000,-0.565,-0.726,0.392,0.357,-0.473,-0.806,2457.59,-0.224,-0.336,0.224,-0.810,0.534,0.240,-0.532,0.647,-0.546,2501.19,-0.560,0.224,-0.224,0.150,-0.397,0.906,0.994,-0.026,-0.109,10.042,5.389,-0.046,-2.183,0.904,0.102,-0.415,10.836,-5.740,-4.916,-1.420,none
6.132534,-0.111,0.988,-0.106,2453.91,-1.119,0.112,0.224,0.036,-0.943,-0.332,0.405,0.519,-0.753,2476.64,0.671,0.560,0.112,-0.586,-0.737,0.336,0.357,-0.471,-0.807,2487.99,1.231,0.336,0.336,-0.821,0.518,0.242,-0.539,0.646,-0.540,2489.21,1.231,-0.112,-0.224,0.153,-0.396,0.905,0.994,-0.023,-0.103,10.042,5.649,0.046,-1.863,0.906,0.105,-0.410,10.794,-5.542,-4.763,-1.298,none
6.155374,-0.107,0.989,-0.102,2450.80,0.671,0.560,0.448,0.046,-0.935,-0.351,0.405,0.529,-0.745,2500.73,-0.336,0.560,0.112,-0.573,-0.755,0.318,0.348,-0.475,-0.808,2462.88,-0.448,-1.007,-0.336,-0.835,0.508,0.213,-0.535,0.646,-0.544,2488.62,0.336,-0.448,-0.560,0.163,-0.391,0.906,0.994,-0.024,-0.107,10.021,4.992,0.382,-2.107,0.906,0.105,-0.410,10.773,-6.244,-4.641,-1.313,none
6.573765,-0.099,0.990,-0.102,2448.84,-0.224,-0.224,0.671,0.047,-0.923,-0.383,0.409,0.515,-0.753,2475.13,0.000,-0.448,0.448,-0.586,-0.737,0.337,0.349,-0.475,-0.808,2486.47,-0.448,-0.448,0.336,-0.808,0.545,0.223,-0.537,0.645,-0.543,2476.73,-0.560,-0.448,-0.224,0.165,-0.406,0.899,0.995,-0.023,-0.102,10.005,5.282,0.901,-1.832,0.907,0.106,-0.408,10.748,-5.939,-3.924,-1.237,none
6.573910,-0.107,0.989,-0.106,2442.94,1.119,0.000,0.448,0.032,-0.939,-0.343,0.406,0.509,-0.758,2445.73,0.895,-0.448,-0.560,-0.591,-0.749,0.299,0.345,-0.469,-0.813,2458.90,-0.783,0.000,-0.224,-0.826,0.516,0.228,-0.537,0.648,-0.539,2495.04,-1.007,-0.336,-0.224,0.163,-0.399,0.902,0.994,-0.022,-0.110,9.980,4.809,0.000,-1.618,0.905,0.108,-0.412,10.729,-6.244,-4.962,-0.885,none
6.574040,-0.103,0.989,-0.110,2441.98,-0.224,-0.448,-0.112,0.036,-0.953,-0.300,0.403,0.515,-0.756,2439.22,-0.224,-0.112,0.783,-0.571,-0.764,0.299,0.347,-0.471,-0.811,2466.72,0.336,0.224,0.000,-0.809,0.531,0.251,-0.539,0.646,-0.540,2489.21,0.560,0.112,0.000,0.158,-0.400,0.903,0.994,-0.027,-0.104,10.076,5.069,0.061,-1.374,0.908,0.100,-0.408,10.852,-5.939,-4.611,-0.550,none
6.574133,-0.110,0.988,-0.109,2463.88,-0.560,-0.671,-0.336,0.049,-0.945,-0.324,0.398,0.522,-0.754,2498.10,-0.448,0.112,0.000,-0.593,-0.739,0.320,0.359,-0.461,-0.812,2523.33,0.560,1.007,0.448,-0.805,0.535,0.255,-0.540,0.647,-0.538,2500.43,0.671,0.000,0.560,0.150,-0.389,0.909,0.994,-0.027,-0.103,10.094,5.832,0.290,-1.374,0.907,0.102,-0.409,10.810,-5.298,-4.427,-0.855,none
6.574219,-0.114,0.987,-0.113,2467.10,0.895,0.783,0.000,0.030,-0.937,-0.347,0.398,0.534,-0.746,2499.16,-0.112,0.336,-0.336,-0.578,-0.759,0.299,0.355,-0.472,-0.807,2501.58,-0.448,-0.671,-0.671,-0.808,0.523,0.273,-0.530,0.652,-0.543,2513.53,-0.560,0.112,-0.112,0.135,-0.398,0.907,0.994,-0.024,-0.109,10.075,4.977,-0.580,-2.626,0.905,0.104,-0.412,10.817,-6.153,-5.649,-1.679,none
6.574959,-0.107,0.989,-0.106,2451.84,-1.119,-0.448,0.671,0.037,-0.929,-0.367,0.411,0.513,-0.754,2487.52,1.119,0.895,1.119,-0.592,-0.776,0.218,0.352,-0.479,-0.804,2488.29,0.895,-0.336,1.231,-0.811,0.530,0.247,-0.533,0.649,-0.543,2495.75,1.567,-0.336,-0.783,0.164,-0.393,0.905,0.994,-0.024,-0.104,10.036,5.328,-0.092,-2.321,0.907,0.103,-0.408,10.793,-5.817,-4.992,-1.496,none
6.575074,-0.107,0.989,-0.106,2451.84,-0.336,0.224,0.336,0.056,-0.943,-0.328,0.413,0.508,-0.756,2453.51,1.119,0.783,0.224,-0.577,-0.760,0.298,0.354,-0.473,-0.807,2477.98,-0.112,-0.336,0.224,-0.818,0.525,0.237,-0.542,0.642,-0.543,2476.33,1.119,0.112,-0.224,0.157,-0.392,0.907,0.994,-0.022,-0.106,10.026,5.969,0.809,-0.992,0.905,0.108,-0.411,10.799,-5.282,-4.061,-0.519,none
6.575169,-0.107,0.989,-0.106,2451.84,0.783,0.336,-0.224,0.042,-0.921,-0.388,0.407,0.517,-0.753,2464.68,-0.671,-1.119,-0.560,-0.585,-0.746,0.318,0.351,-0.476,-0.807,2501.99,-0.895,-0.336,-0.560,-0.818,0.525,0.237,-0.532,0.647,-0.546,2501.19,-0.336,-0.224,0.560,0.171,-0.407,0.897,0.994,-0.021,-0.108,10.048,5.221,0.656,-1.908,0.905,0.107,-0.411,10.795,-6.015,-4.351,-1.252,none
6.575261,-0.107,0.988,-0.114,2454.03,-0.112,-0.112,0.000,0.049,-0.925,-0.376,0.398,0.527,-0.751,2495.30,1.343,0.000,0.336,-0.573,-0.763,0.299,0.354,-0.469,-0.810,2480.21,0.336,-0.224,1.119,-0.827,0.512,0.233,-0.537,0.648,-0.539,2495.04,-1.119,-0.448,-0.336,0.134,-0.399,0.907,0.994,-0.028,-0.106,9.984,5.679,-0.153,-2.076,0.905,0.103,-0.412,10.751,-5.420,-5.115,-1.389,none
7.086079,-0.100,0.989,-0.106,2440.97,-1.455,-0.336,0.336,0.058,-0.946,-0.318,0.397,0.521,-0.756,2428.32,0.448,0.448,0.112,-0.595,-0.746,0.299,0.351,-0.470,-0.810,2470.21,0.783,0.224,0.000,-0.803,0.531,0.271,-0.543,0.643,-0.540,2470.92,0.112,0.224,-0.671,0.162,-0.396,0.904,0.994,-0.020,-0.106,10.040,6.000,0.031,-0.931,0.905,0.109,-0.410,10.812,-4.992,-4.687,-0.305,none
7.086246,-0.102,0.990,-0.101,2459.65,0.224,0.448,-0.560,0.039,-0.928,-0.371,0.421,0.506,-0.753,2501.70,-0.895,-0.112,-0.783,-0.579,-0.734,0.356,0.352,-0.478,-0.805,2493.93,-0.783,0.112,-1.231,-0.817,0.517,0.258,-0.536,0.644,-0.546,2482.17,0.783,0.560,0.560,0.145,-0.383,0.912,0.993,-0.021,-0.112,10.074,5.099,0.611,-0.702,0.904,0.107,-0.415,10.832,-6.015,-4.198,-0.153,none
7.086340,-0.106,0.989,-0.105,2461.72,1.231,-0.336,-0.336,0.036,-0.936,-0.351,0.405,0.525,-0.749,2502.93,-0.895,-0.895,0.224,-0.585,-0.746,0.319,0.353,-0.471,-0.808,2485.25,-1.007,-0.671,0.000,-0.817,0.523,0.242,-0.534,0.648,-0.543,2513.00,-0.112,-0.224,0.671,0.145,-0.398,0.906,0.994,-0.025,-0.109,10.027,4.809,-0.534,-1.740,0.905,0.102,-0.412,10.800,-6.260,-5.481,-0.870,none
7.086426,-0.106,0.988,-0.109,2463.78,-0.560,-1.007,0.448,0.047,-0.937,-0.347,0.408,0.522,-0.749,2461.62,0.448,0.336,0.895,-0.568,-0.759,0.319,0.354,-0.470,-0.809,2474.55,1.007,-0.112,0.336,-0.825,0.508,0.249,-0.539,0.646,-0.540,2489.21,-0.224,0.000,-0.336,0.156,-0.396,0.905,0.994,-0.026,-0.102,10.058,5.313,0.473,-1.160,0.908,0.102,-0.407,10.848,-5.878,-4.458,-0.489,none
8.392926,-0.106,0.989,-0.105,2470.62,-0.112,-0.448,-0.224,0.058,-0.946,-0.320,0.413,0.506,-0.757,2500.91,-0.783,-0.783,-0.448,-0.561,-0.779,0.278,0.351,-0.475,-0.807,2526.38,-0.783,0.000,-0.336,-0.814,0.517,0.264,-0.537,0.648,-0.539,2495.04,-0.560,0.000,0.336,0.163,-0.396,0.904,0.994,-0.023,-0.104,10.050,5.725,1.695,-0.534,0.907,0.107,-0.408,10.817,-5.542,-3.191,-0.198,none
8.393109,-0.099,0.988,-0.117,2454.10,2.126,0.112,-0.112,0.045,-0.933,-0.356,0.385,0.534,-0.752,2478.55,-1.790,-3.469,-0.448,-0.599,-0.743,0.299,0.351,-0.465,-0.812,2497.24,-1.343,-0.336,-0.671,-0.805,0.535,0.255,-0.539,0.653,-0.532,2508.73,-1.119,-0.112,0.783,0.158,-0.396,0.904,0.994,-0.024,-0.105,10.033,4.962,0.107,-1.679,0.905,0.106,-0.411,10.783,-6.076,-5.115,-0.977,none
8.393202,-0.103,0.988,-0.118,2444.14,0.448,-0.112,1.007,0.041,-0.938,-0.345,0.402,0.520,-0.754,2473.36,0.112,-1.119,0.895,-0.572,-0.755,0.319,0.347,-0.471,-0.811,2466.72,-0.560,-1.790,0.560,-0.830,0.519,0.202,-0.536,0.651,-0.538,2502.19,0.448,0.336,-0.560,0.149,-0.403,0.903,0.994,-0.027,-0.103,10.058,5.252,0.275,-1.863,0.908,0.103,-0.407,10.825,-5.771,-4.580,-1.145,none
8.393293,-0.102,0.988,-0.113,2462.86,0.000,-0.112,0.224,0.047,-0.926,-0.374,0.396,0.523,-0.755,2457.07,0.112,-1.119,0.560,-0.607,-0.751,0.260,0.351,-0.468,-0.811,2500.63,-0.112,-0.112,0.112,-0.830,0.510,0.225,-0.542,0.645,-0.539,2494.62,0.112,0.224,-0.112,0.155,-0.387,0.909,0.994,-0.022,-0.106,10.016,6.015,0.656,-1.145,0.906,0.106,-0.411,10.772,-5.160,-4.061,-0.748,none
8.393381,-0.103,0.989,-0.110,2441.98,1.119,0.560,-0.336,0.041,-0.941,-0.335,0.412,0.502,-0.760,2480.38,-0.112,-0.448,-1.007,-0.572,-0.790,0.220,0.350,-0.469,-0.811,2477.50,-0.895,0.000,-0.783,-0.820,0.512,0.255,-0.536,0.647,-0.542,2500.45,0.000,0.336,0.112,0.153,-0.399,0.904,0.994,-0.021,-0.106,10.035,5.298,0.031,-1.618,0.906,0.106,-0.411,10.800,-5.740,-4.748,-0.916,none
8.393465,-0.110,0.988,-0.109,2463.88,0.112,0.000,0.000,0.047,-0.938,-0.344,0.402,0.527,-0.749,2475.56,-0.448,-0.336,0.560,-0.576,-0.752,0.320,0.355,-0.469,-0.808,2496.06,0.000,0.000,0.000,-0.826,0.518,0.222,-0.539,0.646,-0.540,2489.21,-0.112,0.112,-0.112,0.163,-0.399,0.902,0.994,-0.026,-0.103,10.050,5.649,0.534,-1.282,0.908,0.100,-0.407,10.818,-5.359,-4.229,-0.718,none
8.393548,-0.111,0.987,-0.117,2456.16,0.112,0.224,-0.224,0.056,-0.928,-0.367,0.398,0.535,-0.745,2474.18,-0.560,-0.671,-0.336,-0.570,-0.757,0.320,0.351,-0.468,-0.811,2500.63,-0.112,0.000,-0.224,-0.822,0.520,0.232,-0.535,0.650,-0.540,2507.58,-1.007,0.224,0.112,0.162,-0.397,0.903,0.994,-0.024,-0.105,10.018,5.832,0.092,-1.527,0.906,0.105,-0.411,10.785,-5.298,-4.687,-0.885,none
8.393632,-0.103,0.988,-0.114,2452.98,0.000,0.224,0.000,0.039,-0.928,-0.371,0.401,0.519,-0.755,2455.85,-0.112,-0.671,0.000,-0.575,-0.745,0.339,0.350,-0.469,-0.811,2477.50,0.895,0.224,-0.112,-0.835,0.508,0.210,-0.536,0.651,-0.538,2502.19,0.000,0.560,0.000,0.144,-0.385,0.911,0.994,-0.023,-0.103,10.093,5.313,-0.260,-1.374,0.907,0.107,-0.408,10.864,-5.664,-5.176,-0.641,none
8.393732,-0.106,0.989,-0.105,2470.62,0.112,-0.224,-0.448,0.042,-0.943,-0.331,0.407,0.522,-0.749,2515.22,-1.007,0.000,0.112,-0.596,-0.759,0.261,0.349,-0.477,-0.807,2540.02,-0.336,0.448,-0.560,-0.821,0.515,0.244,-0.535,0.646,-0.545,2505.88,0.895,0.336,0.336,0.155,-0.389,0.908,0.994,-0.024,-0.105,10.105,5.130,1.099,-1.160,0.906,0.103,-0.410,10.886,-6.000,-3.573,-0.641,none
8.393816,-0.106,0.988,-0.109,2470.70,1.567,-0.112,0.112,0.041,-0.940,-0.339,0.397,0.529,-0.750,2501.33,-1.455,-3.357,0.000,-0.583,-0.722,0.373,0.352,-0.470,-0.810,2493.34,-1.119,-0.336,-0.224,-0.821,0.531,0.210,-0.538,0.648,-0.539,2512.94,-0.224,0.000,0.448,0.163,-0.395,0.904,0.994,-0.021,-0.111,10.041,5.176,0.565,-1.679,0.905,0.106,-0.413,10.775,-6.000,-4.366,-1.145,none
8.393896,-0.099,0.988,-0.114,2443.18,0.560,-0.112,0.448,0.043,-0.944,-0.326,0.401,0.515,-0.757,2475.74,0.224,-0.560,0.000,-0.596,-0.774,0.214,0.351,-0.466,-0.812,2472.83,-0.560,-0.560,0.112,-0.814,0.528,0.241,-0.535,0.653,-0.536,2508.71,-0.224,0.112,-0.671,0.148,-0.397,0.906,0.994,-0.023,-0.104,10.007,5.038,-0.489,-2.244,0.907,0.105,-0.408,10.773,-5.954,-5.481,-1.389,none
8.393983,-0.103,0.989,-0.106,2441.89,-1.343,-0.336,0.224,0.056,-0.943,-0.327,0.397,0.520,-0.756,2452.62,0.448,0.000,0.783,-0.584,-0.776,0.238,0.351,-0.468,-0.811,2500.63,1.119,-0.336,0.448,-0.840,0.483,0.249,-0.541,0.645,-0.539,2477.36,0.671,0.336,-0.448,0.161,-0.389,0.907,0.994,-0.026,-0.102,10.030,6.046,0.412,-1.221,0.909,0.103,-0.404,10.785,-5.008,-4.260,-0.611,none
8.394067,-0.103,0.988,-0.114,2452.98,0.895,0.560,-0.560,0.036,-0.943,-0.332,0.406,0.510,-0.758,2497.80,-0.560,-0.783,-0.671,-0.578,-0.772,0.264,0.350,-0.469,-0.811,2477.50,-0.336,0.336,-0.895,-0.800,0.549,0.243,-0.539,0.646,-0.540,2489.21,-0.112,0.560,0.448,0.156,-0.387,0.909,0.994,-0.021,-0.107,10.053,6.168,0.473,-0.962,0.906,0.105,-0.411,10.803,-4.962,-4.229,-0.458,none
8.394147,-0.107,0.988,-0.110,2443.03,0.336,0.224,-0.448,0.042,-0.939,-0.340,0.411,0.512,-0.754,2511.84,-1.343,-2.910,0.224,-0.582,-0.755,0.301,0.352,-0.475,-0.807,2466.38,-0.224,0.000,-0.560,-0.817,0.522,0.247,-0.534,0.648,-0.543,2513.00,0.112,0.783,-0.224,0.154,-0.387,0.909,0.994,-0.024,-0.110,10.074,5.084,-0.336,-1.695,0.906,0.104,-0.411,10.842,-6.046,-5.191,-0.885,none
8.394227,-0.110,0.988,-0.109,2472.77,-1.119,-0.783,0.112,0.050,-0.945,-0.324,0.406,0.526,-0.747,2496.20,-1.343,-3.469,1.567,-0.574,-0.754,0.320,0.357,-0.472,-0.806,2482.34,0.783,0.000,0.560,-0.815,0.531,0.230,-0.532,0.648,-0.546,2483.94,-0.112,0.783,-0.112,0.141,-0.393,0.909,0.994,-0.027,-0.104,10.105,5.008,0.718,-1.588,0.907,0.100,-0.409,10.850,-6.168,-4.046,-0.977,none
8.394306,-0.110,0.988,-0.105,2470.71,0.000,-0.448,0.224,0.042,-0.941,-0.335,0.396,0.535,-0.746,2457.40,-0.895,-4.700,1.231,-0.588,-0.743,0.320,0.352,-0.477,-0.805,2519.13,0.000,-0.112,0.112,-0.820,0.528,0.220,-0.531,0.646,-0.548,2489.41,-0.224,0.112,0.000,0.133,-0.387,0.912,0.994,-0.027,-0.109,10.018,5.344,1.023,-1.420,0.905,0.103,-0.412,10.778,-5.939,-3.771,-0.947,none
8.394386,-0.108,0.988,-0.111,2433.15,0.336,-0.336,-0.336,0.031,-0.936,-0.352,0.379,0.546,-0.747,2442.50,-0.895,-2.238,-0.112,-0.569,-0.772,0.281,0.358,-0.461,-0.812,2475.28,-0.224,0.671,0.224,-0.818,0.518,0.248,-0.533,0.656,-0.535,2497.36,-0.112,-0.336,0.112,0.143,-0.380,0.914,0.995,-0.027,-0.100,10.023,5.450,-0.458,-1.908,0.909,0.101,-0.404,10.801,-5.618,-5.313,-1.191,none
8.394466,-0.107,0.987,-0.121,2457.25,-0.895,-0.224,-0.224,0.037,-0.932,-0.360,0.393,0.529,-0.752,2504.13,0.000,0.895,0.224,-0.570,-0.757,0.320,0.361,-0.459,-0.812,2486.99,1.007,0.560,0.336,-0.811,0.530,0.247,-0.536,0.652,-0.537,2484.94,0.112,0.560,-0.560,0.145,-0.395,0.907,0.994,-0.023,-0.102,10.037,6.015,-0.168,-2.000,0.908,0.105,-0.406,10.791,-5.145,-4.885,-1.450,none
8.394546,-0.103,0.989,-0.110,2452.85,-0.671,0.336,0.000,0.040,-0.931,-0.362,0.399,0.525,-0.752,2467.04,0.336,-0.671,0.224,-0.585,-0.768,0.261,0.353,-0.471,-0.808,2485.25,1.343,0.000,-0.224,-0.822,0.516,0.239,-0.537,0.648,-0.539,2495.04,-0.224,0.336,-0.783,0.159,-0.407,0.900,0.994,-0.019,-0.104,10.011,5.466,0.198,-2.260,0.905,0.110,-0.411,10.769,-5.771,-4.534,-1.695,none
8.394625,-0.100,0.989,-0.106,2440.97,-0.224,0.671,0.224,0.032,-0.929,-0.370,0.410,0.508,-0.758,2472.97,1.007,0.560,-0.112,-0.595,-0.746,0.299,0.345,-0.476,-0.809,2483.00,0.560,-0.336,0.336,-0.801,0.534,0.270,-0.535,0.646,-0.544,2488.62,0.671,-0.112,-0.671,0.151,-0.393,0.907,0.994,-0.021,-0.107,10.007,4.687,-0.015,-1.878,0.905,0.109,-0.410,10.773,-6.382,-4.901,-0.977,none
8.394717,-0.099,0.990,-0.102,2448.84,-0.224,-0.224,0.448,0.054,-0.939,-0.341,0.405,0.515,-0.755,2454.71,-0.224,0.112,0.336,-0.552,-0.770,0.320,0.349,-0.475,-0.808,2486.47,-0.448,0.000,0.000,-0.828,0.515,0.223,-0.538,0.641,-0.547,2493.65,0.671,0.000,0.224,0.153,-0.403,0.902,0.994,-0.024,-0.109,10.065,5.130,0.473,-0.611,0.903,0.109,-0.415,10.903,-5.924,-4.244,-0.076,none
8.394800,-0.102,0.990,-0.101,2468.55,1.231,-0.224,-0.336,0.057,-0.932,-0.359,0.397,0.529,-0.750,2501.33,-1.231,0.112,-0.336,-0.583,-0.739,0.338,0.356,-0.471,-0.807,2465.66,-1.119,0.336,-0.560,-0.805,0.524,0.278,-0.536,0.651,-0.538,2519.43,-1.343,0.112,0.895,0.150,-0.392,0.908,0.994,-0.026,-0.107,10.113,5.344,0.137,-0.885,0.908,0.103,-0.407,10.862,-5.863,-4.504,-0.519,none
8.394886,-0.114,0.987,-0.113,2474.01,-0.336,-0.336,-0.224,0.055,-0.938,-0.342,0.390,0.530,-0.753,2371.28,-0.224,0.895,-0.448,-0.586,-0.737,0.337,0.357,-0.465,-0.810,2540.23,1.007,1.007,-0.560,-0.809,0.525,0.263,-0.532,0.654,-0.538,2519.96,-2.126,-0.112,0.224,0.146,-0.392,0.908,0.995,-0.029,-0.100,10.080,5.542,-0.153,-1.847,0.910,0.101,-0.402,10.857,-5.588,-5.023,-1.359,none
8.394970,-0.109,0.987,-0.116,2484.78,-0.783,-0.224,-0.224,0.045,-0.933,-0.356,0.400,0.515,-0.758,2458.25,1.567,1.119,-0.448,-0.578,-0.726,0.373,0.355,-0.467,-0.810,2552.99,0.560,-0.783,-0.224,-0.834,0.515,0.198,-0.541,0.652,-0.531,2513.48,-0.112,-0.560,-0.560,0.135,-0.398,0.907,0.994,-0.025,-0.104,10.044,6.137,0.321,-1.908,0.907,0.105,-0.407,10.818,-5.099,-4.397,-1.573,none
9.827395,-0.107,0.988,-0.110,2453.90,0.112,0.560,0.448,0.038,-0.934,-0.354,0.414,0.496,-0.763,2493.99,1.007,1.231,-1.119,-0.578,-0.772,0.264,0.349,-0.467,-0.812,2509.56,-0.560,-0.783,-0.560,-0.836,0.501,0.224,-0.537,0.648,-0.539,2495.04,0.112,-0.112,-0.560,0.145,-0.388,0.910,0.994,-0.019,-0.111,10.004,5.817,0.031,-2.305,0.905,0.112,-0.411,10.742,-5.359,-4.962,-1.802,none
9.827557,-0.096,0.990,-0.103,2428.07,0.560,1.119,0.671,0.039,-0.935,-0.353,0.401,0.519,-0.755,2455.85,0.336,-0.671,0.560,-0.579,-0.734,0.356,0.341,-0.477,-0.810,2457.15,0.783,-1.007,0.560,-0.810,0.532,0.246,-0.538,0.645,-0.543,2494.63,0.671,0.000,-1.007,0.140,-0.391,0.910,0.994,-0.021,-0.103,9.982,5.466,-0.351,-1.954,0.907,0.109,-0.408,10.753,-5.557,-5.344,-1.237,none
9.827658,-0.103,0.989,-0.106,2441.89,-0.336,0.112,0.000,0.032,-0.934,-0.355,0.396,0.523,-0.755,2457.07,-0.224,0.448,0.560,-0.572,-0.755,0.319,0.352,-0.472,-0.808,2462.93,0.671,0.000,0.112,-0.817,0.523,0.242,-0.546,0.642,-0.539,2476.36,-0.336,0.336,-0.112,0.150,-0.384,0.911,0.994,-0.022,-0.107,10.017,6.076,0.137,-1.344,0.906,0.105,-0.410,10.763,-4.901,-4.626,-0.870,none
9.827758,-0.107,0.989,-0.106,2451.84,0.224,0.671,-0.671,0.061,-0.943,-0.326,0.410,0.512,-0.755,2470.00,0.000,1.343,-1.007,-0.574,-0.770,0.280,0.349,-0.479,-0.805,2483.98,-0.112,0.112,-0.895,-0.838,0.506,0.203,-0.535,0.646,-0.544,2488.62,-0.336,0.224,0.112,0.156,-0.393,0.906,0.994,-0.023,-0.110,10.077,5.481,0.122,-1.634,0.904,0.106,-0.414,10.844,-5.664,-4.748,-1.038,none
9.827844,-0.110,0.989,-0.101,2462.76,0.112,-0.224,0.000,0.045,-0.949,-0.312,0.401,0.529,-0.748,2504.57,-0.336,0.560,0.224,-0.595,-0.737,0.320,0.352,-0.470,-0.810,2493.34,0.000,0.336,0.112,-0.813,0.534,0.230,-0.536,0.647,-0.542,2500.45,0.000,-0.336,-0.112,0.171,-0.404,0.899,0.994,-0.028,-0.107,10.040,5.542,0.366,-1.695,0.907,0.100,-0.409,10.833,-5.664,-4.519,-1.023,none
9.827931,-0.107,0.988,-0.110,2453.90,-0.336,-0.224,0.112,0.038,-0.943,-0.332,0.403,0.516,-0.756,2491.73,0.895,1.007,-0.224,-0.586,-0.769,0.257,0.355,-0.466,-0.810,2469.87,-0.224,0.000,0.560,-0.825,0.510,0.245,-0.539,0.646,-0.540,2489.21,0.112,-0.112,0.112,0.162,-0.405,0.900,0.994,-0.026,-0.105,10.050,5.725,0.397,-1.435,0.906,0.102,-0.410,10.802,-5.466,-4.427,-0.809,none
9.828014,-0.107,0.989,-0.106,2451.84,0.112,0.224,-0.112,0.062,-0.944,-0.325,0.388,0.537,-0.749,2463.54,-0.671,-0.671,0.112,-0.574,-0.788,0.221,0.353,-0.471,-0.808,2485.25,0.000,0.336,0.112,-0.836,0.512,0.197,-0.536,0.647,-0.542,2500.45,0.000,0.000,0.336,0.162,-0.393,0.905,0.994,-0.024,-0.105,10.067,5.618,0.046,-1.725,0.906,0.105,-0.410,10.807,-5.481,-4.962,-0.992,none
9.828096,-0.106,0.988,-0.109,2470.70,-0.671,0.000,-0.224,0.061,-0.940,-0.335,0.405,0.514,-0.756,2479.02,0.336,1.007,0.000,-0.567,-0.752,0.337,0.352,-0.479,-0.804,2488.29,0.112,0.448,0.000,-0.827,0.494,0.268,-0.535,0.646,-0.544,2488.62,0.560,0.224,0.000,0.165,-0.405,0.899,0.994,-0.021,-0.103,10.090,5.252,0.321,-1.664,0.905,0.105,-0.411,10.854,-5.817,-4.382,-1.115,none
9.829505,-0.106,0.988,-0.109,2463.78,0.112,-0.224,-0.224,0.045,-0.930,-0.366,0.405,0.514,-0.756,2479.02,0.783,0.224,-0.560,-0.576,-0.753,0.318,0.352,-0.474,-0.807,2489.17,-0.671,-0.224,-0.336,-0.817,0.521,0.248,-0.538,0.645,-0.543,2494.63,0.112,0.000,-0.112,0.143,-0.385,0.912,0.994,-0.021,-0.107,10.022,5.313,0.473,-1.542,0.906,0.109,-0.408,10.798,-5.863,-4.336,-0.992,none
9.829619,-0.103,0.989,-0.106,2450.79,1.119,0.448,0.336,0.048,-0.950,-0.309,0.401,0.518,-0.756,2480.15,0.000,0.560,-0.448,-0.570,-0.773,0.279,0.347,-0.474,-0.810,2471.78,-1.231,-0.783,-0.224,-0.823,0.516,0.237,-0.543,0.643,-0.541,2488.18,-0.224,-0.112,0.112,0.162,-0.393,0.905,0.994,-0.020,-0.108,10.001,4.992,0.366,-1.450,0.907,0.109,-0.407,10.784,-6.168,-4.534,-0.748,none
9.829726,-0.103,0.989,-0.110,2441.98,1.231,0.224,0.448,0.047,-0.938,-0.344,0.404,0.514,-0.757,2462.27,0.336,0.448,0.000,-0.557,-0.750,0.356,0.349,-0.477,-0.807,2454.81,-1.231,-0.448,-0.112,-0.842,0.490,0.226,-0.536,0.648,-0.542,2483.19,-0.448,-0.112,0.224,0.141,-0.397,0.907,0.995,-0.025,-0.099,10.034,5.267,0.656,-1.191,0.910,0.106,-0.401,10.802,-5.863,-4.076,-0.611,none
9.829812,-0.106,0.987,-0.117,2465.93,0.000,-0.448,-0.336,0.056,-0.945,-0.323,0.399,0.518,-0.756,2517.19,-0.783,-1.231,-0.224,-0.589,-0.742,0.319,0.358,-0.464,-0.810,2503.52,0.112,0.671,-0.560,-0.819,0.520,0.242,-0.537,0.648,-0.539,2495.04,-0.783,-0.112,0.448,0.152,-0.398,0.904,0.994,-0.023,-0.106,10.048,4.992,0.626,-1.679,0.906,0.107,-0.408,10.792,-6.183,-4.336,-1.145,none
9.832562,-0.103,0.989,-0.110,2452.85,0.336,-0.112,0.112,0.051,-0.931,-0.361,0.406,0.511,-0.758,2473.89,1.007,-0.112,0.000,-0.554,-0.744,0.374,0.350,-0.471,-0.810,2506.14,-0.448,-0.336,0.448,-0.831,0.504,0.234,-0.531,0.653,-0.540,2508.11,-0.224,-0.224,-0.224,0.168,-0.396,0.903,0.994,-0.026,-0.109,10.027,4.412,-0.397,-2.122,0.906,0.103,-0.410,10.826,-6.702,-5.374,-1.191,none
9.832658,-0.107,0.988,-0.110,2453.90,0.000,0.000,0.000,0.048,-0.923,-0.382,0.402,0.524,-0.751,2471.05,-0.224,-1.231,1.567,-0.566,-0.745,0.353,0.357,-0.475,-0.804,2486.27,0.895,-0.448,0.671,-0.824,0.500,0.267,-0.539,0.643,-0.545,2488.19,1.231,0.224,-0.336,0.163,-0.400,0.902,0.994,-0.029,-0.107,10.087,5.053,0.137,-1.649,0.908,0.101,-0.407,10.848,-6.000,-4.687,-0.840,none
9.832752,-0.110,0.988,-0.105,2470.71,0.000,0.000,0.000,0.041,-0.938,-0.345,0.414,0.506,-0.756,2517.68,-0.895,-2.014,-0.224,-0.575,-0.746,0.336,0.353,-0.476,-0.806,2483.52,-1.343,-0.336,-0.224,-0.814,0.527,0.246,-0.532,0.647,-0.546,2501.19,0.000,0.000,0.336,0.150,-0.392,0.908,0.994,-0.022,-0.111,10.024,5.115,1.084,-1.511,0.906,0.106,-0.411,10.769,-6.168,-3.725,-1.053,none
9.832833,-0.103,0.989,-0.106,2450.79,0.000,0.000,0.000,0.038,-0.929,-0.368,0.406,0.516,-0.754,2472.22,0.000,-3.357,0.671,-0.579,-0.757,0.302,0.352,-0.475,-0.807,2466.38,-0.448,-0.336,0.560,-0.799,0.530,0.285,-0.534,0.650,-0.540,2490.33,-0.560,-0.112,-0.112,0.157,-0.395,0.905,0.994,-0.026,-0.102,10.013,4.489,0.641,-1.725,0.909,0.103,-0.403,10.765,-6.687,-4.275,-0.870,none
9.836332,-0.107,0.987,-0.117,2456.06,0.000,0.000,0.000,0.047,-0.937,-0.347,0.390,0.523,-0.758,2474.26,-0.224,-1.679,0.783,-0.586,-0.737,0.337,0.355,-0.462,-0.813,2495.33,-0.560,0.336,0.895,-0.798,0.535,0.278,-0.540,0.652,-0.533,2484.97,-0.336,-0.336,0.448,0.150,-0.395,0.906,0.995,-0.025,-0.099,10.038,5.496,0.656,-1.511,0.909,0.103,-0.403,10.769,-5.725,-4.061,-0.947,none
9.836440,-0.107,0.987,-0.118,2445.20,0.000,0.000,0.000,0.034,-0.933,-0.359,0.381,0.543,-0.748,2477.23,-0.783,-0.560,0.000,-0.569,-0.741,0.357,0.357,-0.465,-0.810,2456.30,-0.671,-0.448,-0.224,-0.819,0.519,0.246,-0.536,0.651,-0.538,2502.19,0.000,-0.336,0.000,0.145,-0.395,0.907,0.994,-0.020,-0.104,9.966,5.466,-0.382,-2.305,0.908,0.109,-0.406,10.722,-5.618,-5.176,-1.573,none
9.836530,-0.100,0.988,-0.118,2433.35,0.000,0.000,0.000,0.040,-0.938,-0.344,0.397,0.508,-0.764,2452.92,1.679,1.679,-0.560,-0.575,-0.728,0.374,0.348,-0.468,-0.812,2462.02,1.231,-0.112,0.224,-0.822,0.510,0.254,-0.543,0.646,-0.536,2489.24,0.671,0.000,-0.783,0.170,-0.402,0.900,0.994,-0.022,-0.107,9.979,5.328,-1.282,-1.695,0.907,0.107,-0.408,10.770,-5.511,-5.847,-0.809,none
9.836613,-0.103,0.990,-0.098,2449.74,0.000,0.000,0.000,0.043,-0.942,-0.334,0.415,0.501,-0.760,2467.00,0.895,2.014,0.336,-0.584,-0.762,0.280,0.347,-0.481,-0.805,2495.23,1.567,0.000,-0.224,-0.823,0.510,0.249,-0.539,0.639,-0.549,2469.35,0.560,0.895,0.000,0.154,-0.401,0.903,0.994,-0.024,-0.107,10.102,5.420,0.000,-0.122,0.907,0.105,-0.408,10.891,-5.374,-4.443,0.412,none
9.837130,-0.109,0.988,-0.108,2492.53,0.000,0.000,0.000,0.044,-0.943,-0.330,0.406,0.518,-0.752,2517.30,-2.014,-0.560,-0.336,-0.573,-0.755,0.318,0.353,-0.473,-0.807,2538.78,-1.231,0.560,-1.119,-0.820,0.529,0.221,-0.532,0.651,-0.542,2519.49,-0.671,0.560,1.567,0.148,-0.399,0.905,0.994,-0.024,-0.109,10.162,5.267,0.962,-0.672,0.906,0.103,-0.410,10.940,-5.847,-3.649,-0.351,none
9.837228,-0.114,0.987,-0.116,2476.03,0.000,0.000,0.000,0.038,-0.943,-0.332,0.396,0.533,-0.748,2559.31,-1.343,-1.679,-0.560,-0.571,-0.756,0.320,0.361,-0.466,-0.808,2512.12,-1.119,0.224,-0.224,-0.819,0.519,0.246,-0.528,0.657,-0.538,2537.79,-1.007,-0.560,0.448,0.140,-0.404,0.904,0.994,-0.026,-0.110,10.118,4.824,-0.122,-2.336,0.908,0.102,-0.407,10.867,-6.412,-5.206,-1.603,none
9.837311,-0.110,0.987,-0.117,2466.03,0.000,0.000,0.000,0.048,-0.938,-0.342,0.388,0.535,-0.750,2510.87,0.336,-0.224,0.783,-0.565,-0.770,0.298,0.359,-0.466,-0.809,2496.24,0.783,-0.112,1.007,-0.818,0.525,0.237,-0.535,0.653,-0.536,2508.71,-0.224,-0.671,-0.783,0.151,-0.397,0.905,0.995,-0.024,-0.101,10.062,5.344,-0.122,-2.473,0.909,0.103,-0.404,10.826,-5.802,-5.176,-1.756,none
9.837392,-0.102,0.988,-0.113,2462.86,0.000,0.000,0.000,0.046,-0.935,-0.351,0.404,0.512,-0.758,2510.50,1.007,0.560,0.671,-0.574,-0.746,0.337,0.347,-0.471,-0.811,2466.72,0.000,-1.007,0.336,-0.833,0.501,0.234,-0.541,0.645,-0.539,2477.36,0.895,-0.112,-0.783,0.151,-0.397,0.905,0.995,-0.021,-0.100,10.041,6.107,0.901,-1.496,0.909,0.109,-0.403,10.787,-5.145,-3.908,-1.191,none
9.840199,-0.099,0.988,-0.117,2454.10,0.000,0.000,0.000,0.016,-0.917,-0.399,0.399,0.505,-0.765,2488.13,0.336,-2.238,-0.224,-0.600,-0.742,0.299,0.349,-0.467,-0.812,2485.62,-0.336,-0.112,-0.336,-0.804,0.522,0.284,-0.540,0.648,-0.537,2483.83,0.448,0.224,-0.112,0.144,-0.398,0.906,0.994,-0.017,-0.110,10.037,5.664,0.916,-1.725,0.906,0.111,-0.409,10.767,-5.481,-3.893,-1.359,none
9.840284,-0.103,0.989,-0.106,2441.89,0.000,0.000,0.000,0.053,-0.937,-0.346,0.406,0.509,-0.758,2445.73,-0.224,-4.141,0.224,-0.578,-0.766,0.280,0.347,-0.474,-0.810,2471.78,0.560,-0.224,0.000,-0.830,0.507,0.234,-0.532,0.647,-0.546,2501.19,-0.895,0.783,-0.560,0.155,-0.398,0.904,0.994,-0.020,-0.109,10.046,4.748,0.031,-2.244,0.905,0.108,-0.411,10.810,-6.305,-5.053,-1.405,none
9.840382,-0.106,0.989,-0.101,2460.69,0.000,0.000,0.000,0.050,-0.932,-0.360,0.389,0.539,-0.747,2456.06,-1.007,-3.581,1.902,-0.566,-0.760,0.320,0.352,-0.477,-0.805,2519.13,0.671,-0.448,0.783,-0.818,0.518,0.252,-0.538,0.641,-0.547,2493.65,0.000,0.336,-0.560,0.146,-0.392,0.908,0.994,-0.021,-0.108,10.015,5.115,0.534,-2.153,0.906,0.105,-0.411,10.779,-6.046,-4.336,-1.481,none
9.840477,-0.107,0.989,-0.106,2451.84,0.000,0.000,0.000,0.034,-0.934,-0.355,0.411,0.508,-0.757,2489.22,0.336,-1.343,0.671,-0.595,-0.746,0.299,0.348,-0.478,-0.806,2491.23,-0.112,-0.224,0.783,-0.819,0.530,0.220,-0.538,0.641,-0.547,2475.75,1.007,-0.224,-0.560,0.158,-0.398,0.904,0.994,-0.020,-0.109,9.991,5.038,0.885,-1.359,0.904,0.109,-0.414,10.767,-6.122,-4.000,-0.687,none
9.840972,-0.099,0.990,-0.102,2448.84,0.000,0.000,0.000,0.060,-0.938,-0.340,0.441,0.463,-0.768,2540.13,-0.448,-3.693,0.895,-0.572,-0.755,0.319,0.344,-0.479,-0.808,2465.35,-1.343,-0.224,0.448,-0.800,0.532,0.276,-0.538,0.641,-0.547,2475.75,0.671,0.895,0.224,0.154,-0.405,0.901,0.994,-0.021,-0.109,10.007,4.321,1.832,-0.336,0.906,0.108,-0.409,10.807,-6.809,-2.977,0.290,none
9.841065,-0.103,0.989,-0.106,2450.79,0.000,0.000,0.000,0.034,-0.934,-0.355,0.395,0.523,-0.755,2417.20,-8.169,-15.779,4.700,-0.575,-0.776,0.261,0.345,-0.480,-0.806,2480.51,-1.902,0.224,1.119,-0.824,0.512,0.243,-0.538,0.641,-0.547,2475.75,-1.007,1.007,0.783,0.151,-0.397,0.905,0.994,-0.024,-0.105,10.076,4.443,2.260,0.244,0.909,0.103,-0.404,10.835,-6.672,-2.458,0.641,none
9.841151,-0.114,0.987,-0.117,2467.15,0.000,0.000,0.000,0.048,-0.926,-0.373,0.345,0.579,-0.739,2457.84,-4.141,-6.491,0.224,-0.546,-0.751,0.372,0.362,-0.456,-0.813,2506.86,-3.245,1.119,0.000,-0.816,0.520,0.252,-0.532,0.658,-0.533,2521.16,-2.126,-0.112,1.902,0.149,-0.392,0.908,0.995,-0.032,-0.097,10.043,5.069,1.008,-0.855,0.912,0.101,-0.398,10.770,-5.985,-3.756,-0.443,none
9.841237,-0.111,0.985,-0.134,2442.46,0.000,0.000,0.000,0.034,-0.920,-0.391,0.353,0.552,-0.756,2454.44,-0.895,-0.448,0.000,-0.585,-0.746,0.318,0.358,-0.450,-0.819,2453.12,-1.902,0.000,0.000,-0.821,0.514,0.248,-0.534,0.663,-0.524,2528.47,-1.343,-0.336,0.560,0.129,-0.399,0.908,0.995,-0.029,-0.092,10.076,5.771,-1.344,-2.061,0.911,0.102,-0.399,10.783,-5.023,-6.260,-1.344,none
9.842084,-0.107,0.986,-0.130,2448.91,-0.671,0.671,-0.448,0.064,-0.946,-0.317,0.374,0.529,-0.762,2501.24,1.119,4.700,-0.336,-0.584,-0.762,0.280,0.357,-0.455,-0.816,2486.97,1.343,-0.224,-0.224,-0.828,0.504,0.244,-0.538,0.654,-0.532,2490.84,1.343,0.336,-0.560,0.151,-0.398,0.905,0.995,-0.024,-0.099,10.089,6.092,-0.901,-2.031,0.909,0.106,-0.402,10.867,-4.992,-5.618,-1.405,none
9.842172,-0.098,0.989,-0.109,2478.65,-1.343,0.895,-0.336,0.033,-0.931,-0.365,0.398,0.527,-0.751,2495.30,-0.783,-2.238,0.895,-0.581,-0.733,0.355,0.347,-0.486,-0.802,2528.80,0.671,-0.783,-0.895,-0.798,0.545,0.259,-0.537,0.640,-0.550,2497.95,0.895,0.560,-0.671,0.141,-0.392,0.909,0.994,-0.016,-0.111,10.066,5.466,0.580,-2.076,0.904,0.112,-0.412,10.834,-5.847,-4.244,-1.542,none
9.842252,-0.099,0.989,-0.106,2449.88,0.448,0.224,0.895,0.043,-0.945,-0.325,0.403,0.505,-0.764,2468.56,1.231,-0.560,-0.560,-0.572,-0.755,0.319,0.346,-0.477,-0.808,2475.72,-0.336,-0.783,0.112,-0.822,0.520,0.232,-0.539,0.642,-0.545,2505.46,-0.112,-0.224,-0.448,0.152,-0.394,0.907,0.994,-0.020,-0.112,10.003,5.206,-0.107,-1.924,0.904,0.109,-0.414,10.766,-5.939,-5.038,-1.176,none
9.842331,-0.103,0.989,-0.106,2441.89,0.224,-0.112,0.671,0.033,-0.933,-0.360,0.376,0.544,-0.750,2433.27,-0.224,0.336,0.336,-0.595,-0.746,0.299,0.349,-0.475,-0.808,2486.47,0.112,-0.448,0.336,-0.839,0.498,0.220,-0.539,0.643,-0.545,2488.19,-0.448,-0.336,-0.112,0.137,-0.395,0.908,0.994,-0.020,-0.105,10.003,5.084,-0.351,-1.893,0.906,0.111,-0.408,10.781,-6.015,-5.313,-1.023,none
9.842860,-0.103,0.988,-0.114,2444.09,-0.224,-0.112,0.112,0.063,-0.948,-0.312,0.383,0.529,-0.757,2464.60,0.336,2.686,-0.224,-0.542,-0.770,0.335,0.348,-0.468,-0.812,2462.02,0.336,0.448,-0.224,-0.819,0.520,0.242,-0.539,0.646,-0.540,2489.21,0.560,-0.336,0.112,0.136,-0.395,0.909,0.994,-0.023,-0.103,10.016,5.405,-0.260,-1.450,0.908,0.107,-0.405,10.771,-5.511,-5.023,-0.870,none
9.842947,-0.107,0.987,-0.117,2456.06,0.560,0.560,-0.671,0.049,-0.940,-0.339,0.410,0.499,-0.764,2518.44,0.895,3.581,-1.343,-0.576,-0.752,0.320,0.354,-0.469,-0.810,2480.21,-0.560,0.112,-0.895,-0.837,0.486,0.252,-0.533,0.649,-0.543,2478.50,0.671,0.224,0.112,0.158,-0.400,0.903,0.994,-0.025,-0.106,10.015,5.740,-0.061,-1.344,0.907,0.102,-0.409,10.754,-5.298,-4.901,-0.779,none
9.843042,-0.111,0.987,-0.114,2456.10,0.560,0.224,-0.224,0.057,-0.950,-0.309,0.377,0.547,-0.747,2455.44,-0.336,0.224,-0.112,-0.570,-0.757,0.320,0.357,-0.465,-0.810,2456.30,-0.783,-0.112,-0.560,-0.817,0.523,0.242,-0.532,0.648,-0.546,2483.94,-0.224,0.224,0.112,0.136,-0.403,0.905,0.994,-0.027,-0.105,10.028,5.527,-0.107,-1.389,0.908,0.104,-0.407,10.799,-5.496,-4.992,-0.718,none
9.843124,-0.108,0.988,-0.111,2433.15,0.000,-0.112,-0.336,0.034,-0.945,-0.325,0.413,0.501,-0.761,2527.05,0.000,1.343,-0.671,-0.582,-0.748,0.321,0.353,-0.471,-0.808,2485.25,0.000,-0.112,-0.224,-0.839,0.501,0.214,-0.532,0.648,-0.546,2483.94,-0.224,0.671,0.224,0.147,-0.395,0.907,0.994,-0.030,-0.101,10.056,5.435,0.855,-0.962,0.908,0.102,-0.406,10.823,-5.664,-3.908,-0.443,none
9.843207,-0.107,0.988,-0.114,2454.03,0.783,-0.560,-0.336,0.064,-0.949,-0.308,0.390,0.522,-0.758,2498.54,-1.119,-2.574,-0.336,-0.596,-0.752,0.281,0.357,-0.463,-0.811,2488.02,-1.007,0.448,-0.336,-0.827,0.519,0.216,-0.532,0.651,-0.542,2501.59,-0.560,0.336,0.560,0.156,-0.394,0.906,0.994,-0.023,-0.109,10.034,5.817,0.198,-1.481,0.906,0.105,-0.409,10.784,-5.267,-4.611,-0.977,none
9.843287,-0.107,0.988,-0.114,2445.14,0.336,0.224,-0.336,0.030,-0.937,-0.347,0.388,0.537,-0.749,2463.54,0.112,0.112,-0.112,-0.575,-0.762,0.298,0.354,-0.465,-0.811,2475.54,-0.671,-0.112,-0.448,-0.808,0.545,0.225,-0.537,0.648,-0.539,2495.04,0.224,0.000,0.000,0.158,-0.395,0.905,0.994,-0.018,-0.106,10.050,5.313,-0.214,-2.031,0.907,0.112,-0.407,10.832,-5.908,-5.084,-1.282,none
9.843371,-0.094,0.991,-0.097,2465.70,0.224,-0.448,0.671,0.039,-0.933,-0.358,0.411,0.509,-0.756,2466.16,0.112,-2.910,1.119,-0.575,-0.762,0.298,0.340,-0.486,-0.805,2493.53,-0.112,-0.671,0.560,-0.828,0.504,0.244,-0.540,0.635,-0.553,2485.20,0.224,0.112,0.000,0.141,-0.397,0.907,0.994,-0.021,-0.108,10.071,4.611,1.466,-0.397,0.905,0.108,-0.410,10.822,-6.519,-3.389,0.244,none
9.843454,-0.106,0.987,-0.117,2465.93,1.790,-1.007,-0.560,0.048,-0.941,-0.335,0.376,0.531,-0.759,2510.30,-2.126,-1.902,-0.448,-0.550,-0.748,0.371,0.359,-0.458,-0.813,2469.87,-1.567,0.783,-0.224,-0.821,0.523,0.230,-0.532,0.654,-0.538,2519.96,-1.119,-0.112,1.567,0.138,-0.388,0.911,0.994,-0.027,-0.105,10.101,4.794,0.397,-0.565,0.909,0.103,-0.403,10.844,-6.229,-4.397,-0.031,none
9.845571,-0.110,0.986,-0.129,2469.71,0.112,-0.448,-0.448,0.055,-0.943,-0.328,0.385,0.527,-0.757,2528.92,-0.560,0.336,0.448,-0.590,-0.756,0.282,0.362,-0.460,-0.810,2502.51,0.895,-0.224,0.000,-0.811,0.523,0.263,-0.528,0.658,-0.537,2503.99,-1.455,0.560,0.448,0.143,-0.398,0.906,0.995,-0.031,-0.099,10.146,4.656,-0.198,-1.939,0.911,0.097,-0.401,10.867,-6.427,-5.145,-1.237,none
9.845690,-0.110,0.986,-0.129,2469.71,0.560,0.224,1.007,0.047,-0.924,-0.379,0.383,0.530,-0.757,2517.51,1.007,1.455,0.112,-0.566,-0.745,0.353,0.358,-0.457,-0.814,2478.01,-0.448,-1.790,0.336,-0.813,0.511,0.280,-0.534,0.654,-0.536,2490.82,0.783,-0.560,-0.671,0.151,-0.392,0.907,0.995,-0.029,-0.097,10.047,6.076,0.550,-2.076,0.910,0.102,-0.401,10.793,-5.115,-4.321,-1.756,none
9.845781,-0.103,0.988,-0.118,2444.14,0.000,1.007,0.448,0.029,-0.922,-0.387,0.373,0.545,-0.751,2429.15,0.448,-0.336,0.000,-0.570,-0.757,0.320,0.350,-0.466,-0.813,2450.04,0.783,-0.783,-0.560,-0.807,0.527,0.268,-0.536,0.651,-0.538,2502.19,0.112,0.336,-1.455,0.149,-0.390,0.909,0.994,-0.020,-0.105,9.985,6.275,-1.313,-2.763,0.907,0.110,-0.407,10.735,-4.687,-6.382,-2.107,none
9.845863,-0.099,0.989,-0.110,2451.95,-1.455,1.567,0.112,0.035,-0.948,-0.315,0.397,0.514,-0.760,2478.58,1.119,3.133,0.448,-0.589,-0.751,0.299,0.341,-0.479,-0.809,2484.69,1.902,-1.119,-0.448,-0.801,0.530,0.279,-0.540,0.640,-0.546,2463.87,0.895,0.895,-1.567,0.143,-0.398,0.906,0.994,-0.019,-0.112,9.998,5.878,-0.427,-2.031,0.904,0.112,-0.412,10.797,-5.069,-5.145,-1.420,none
9.846528,-0.095,0.991,-0.094,2455.92,0.224,0.112,-0.224,0.052,-0.935,-0.351,0.420,0.498,-0.759,2482.94,-0.895,-2.910,0.448,-0.579,-0.743,0.337,0.339,-0.491,-0.802,2502.81,0.448,0.112,-0.560,-0.819,0.515,0.253,-0.536,0.640,-0.550,2481.24,0.000,0.560,0.336,0.146,-0.396,0.907,0.994,-0.019,-0.109,10.026,5.053,1.344,-0.748,0.904,0.109,-0.414,10.810,-6.137,-3.450,-0.260,none
9.846615,-0.102,0.989,-0.109,2462.74,1.119,-0.895,-0.336,0.042,-0.941,-0.335,0.392,0.526,-0.755,2482.66,-1.567,-4.141,0.671,-0.586,-0.744,0.321,0.352,-0.470,-0.810,2493.34,-1.455,0.336,0.112,-0.839,0.513,0.182,-0.531,0.646,-0.548,2505.47,-0.783,0.112,1.007,0.140,-0.391,0.910,0.994,-0.023,-0.105,10.071,4.718,1.542,-0.809,0.909,0.104,-0.405,10.842,-6.534,-3.344,-0.244,none
9.846704,-0.110,0.987,-0.113,2465.98,1.790,-1.007,0.448,0.022,-0.935,-0.354,0.383,0.537,-0.752,2467.19,-1.231,-5.707,1.455,-0.564,-0.754,0.336,0.352,-0.470,-0.810,2493.34,-2.014,0.112,0.783,-0.805,0.526,0.274,-0.531,0.653,-0.540,2508.11,-1.567,-0.112,0.560,0.154,-0.393,0.907,0.994,-0.026,-0.101,10.080,4.031,1.466,-1.313,0.910,0.105,-0.402,10.798,-7.176,-3.466,-0.519,none
9.846786,-0.107,0.986,-0.129,2459.75,0.783,-1.343,0.224,0.053,-0.952,-0.302,0.417,0.470,-0.778,2523.34,-1.902,-6.267,1.007,-0.599,-0.750,0.281,0.357,-0.455,-0.816,2486.97,-0.895,0.000,0.671,-0.822,0.520,0.232,-0.539,0.658,-0.525,2505.25,1.119,0.224,0.560,0.137,-0.402,0.906,0.993,-0.037,-0.109,10.092,4.748,0.504,-0.779,0.909,0.093,-0.405,10.844,-6.458,-3.450,-0.443,none
9.847768,-0.101,0.988,-0.120,2482.86,-0.224,-0.448,-0.112,0.039,-0.933,-0.358,0.389,0.524,-0.758,2527.54,-1.902,-6.267,1.231,-0.588,-0.751,0.301,0.341,-0.474,-0.812,2572.41,-0.783,-1.343,0.336,-0.810,0.521,0.267,-0.535,0.650,-0.540,2507.58,-0.336,0.783,0.000,0.131,-0.393,0.910,0.994,-0.023,-0.104,10.086,4.321,1.130,-2.046,0.908,0.107,-0.405,10.859,-7.053,-3.542,-1.679,none
9.847863,-0.094,0.990,-0.101,2475.60,0.560,-0.224,1.790,0.034,-0.936,-0.351,0.419,0.487,-0.766,2536.32,-1.679,-14.100,4.924,-0.577,-0.760,0.298,0.336,-0.491,-0.804,2523.78,-0.783,-2.126,0.448,-0.819,0.522,0.238,-0.536,0.640,-0.550,2481.24,0.000,2.574,-1.343,0.131,-0.405,0.905,0.993,-0.017,-0.120,9.998,3.496,1.863,-1.954,0.902,0.112,-0.416,10.795,-8.076,-2.656,-1.359,none
9.847948,-0.099,0.989,-0.106,2449.88,1.007,-1.679,2.014,0.065,-0.939,-0.338,0.356,0.546,-0.759,2354.06,-3.357,-12.310,3.805,-0.575,-0.762,0.298,0.344,-0.474,-0.810,2491.10,-2.350,-0.783,1.902,-0.819,0.519,0.246,-0.539,0.639,-0.549,2469.35,0.783,-0.671,0.671,0.142,-0.394,0.908,0.995,-0.027,-0.094,9.991,4.611,2.382,-0.947,0.913,0.102,-0.394,10.735,-6.794,-2.565,-0.489,none
