time,BNO0_UnitAccX,BNO0_UnitAccY,BNO0_UnitAccZ,BNO0_RawAccMag,BNO0_GyrX,BNO0_GyrY,BNO0_GyrZ,BNO0_MagX,BNO0_MagY,BNO0_MagZ,BNO1_UnitAccX,BNO1_UnitAccY,BNO1_UnitAccZ,BNO1_RawAccMag,BNO1_GyrX,BNO1_GyrY,BNO1_GyrZ,BNO1_MagX,BNO1_MagY,BNO1_MagZ,BNO2_UnitAccX,BNO2_UnitAccY,BNO2_UnitAccZ,BNO2_RawAccMag,BNO2_GyrX,BNO2_GyrY,BNO2_GyrZ,BNO2_MagX,BNO2_MagY,BNO2_MagZ,BNO3_UnitAccX,BNO3_UnitAccY,BNO3_UnitAccZ,BNO3_RawAccMag,BNO3_GyrX,BNO3_GyrY,BNO3_GyrZ,BNO3_MagX,BNO3_MagY,BNO3_MagZ,MPU0_UnitAccX,MPU0_UnitAccY,MPU0_UnitAccZ,MPU0_RawAccMag,MPU0_GyrX,MPU0_GyrY,MPU0_GyrZ,MPU1_UnitAccX,MPU1_UnitAccY,MPU1_UnitAccZ,MPU1_RawAccMag,MPU1_GyrX,MPU1_GyrY,MPU1_GyrZ,label
0.122356,0.033,-0.623,-0.781,2165.11,-2.574,-52.260,21.262,0.095,0.265,0.959,0.791,-0.022,-0.612,2641.75,1.902,-35.922,-10.967,-0.646,0.117,0.754,-0.149,-0.868,-0.473,2559.96,1.007,-8.952,19.248,0.513,0.792,0.332,-0.072,0.100,-0.992,2480.93,-6.826,-19.695,-7.386,0.127,-0.396,0.909,0.588,0.048,0.807,11.171,-0.504,-5.878,3.221,0.595,-0.307,0.743,10.340,-13.313,-12.031,-0.565,none
0.137676,0.036,-0.615,-0.788,2546.68,-6.379,-41.741,7.162,0.113,0.259,0.959,0.791,-0.022,-0.612,2641.75,1.902,-35.922,-10.967,0.409,0.302,0.861,-0.461,-0.547,-0.699,1678.15,20.926,0.448,-18.576,0.513,0.792,0.332,-0.160,0.382,-0.910,2468.13,-1.343,-4.252,0.000,0.286,-0.640,0.713,0.636,0.022,0.772,10.799,-5.649,-7.847,5.267,0.616,-0.326,0.717,10.254,-17.450,-11.405,1.389,none
0.161055,-0.249,-0.343,-0.906,2704.27,-7.274,-11.191,10.519,0.527,0.008,0.850,0.230,0.071,-0.971,2604.65,-6.379,-20.367,-0.895,0.152,0.112,0.982,-0.341,-0.659,-0.670,2611.83,-3.357,1.679,10.967,0.736,0.600,0.313,-0.166,0.421,-0.892,2498.58,-10.295,-8.505,-0.895,0.280,-0.626,0.728,0.623,0.027,0.782,10.903,-8.489,-11.618,9.679,0.616,-0.352,0.704,9.768,-19.969,-16.290,4.504,none
0.183073,-0.336,-0.282,-0.899,2416.70,-13.205,-14.324,9.624,0.538,0.000,0.843,0.198,0.071,-0.978,2475.57,-8.169,-25.626,-3.917,0.130,0.110,0.985,-0.365,-0.665,-0.652,2309.39,-8.393,-2.574,13.093,0.738,0.584,0.339,-0.171,0.442,-0.880,2531.15,-16.562,-11.750,-3.245,0.287,-0.620,0.730,0.636,0.011,0.771,11.005,-12.382,-7.893,9.511,0.658,-0.343,0.670,10.591,-20.031,-12.687,4.290,none
0.204141,-0.307,-0.208,-0.929,2615.39,-4.812,-10.743,10.183,0.542,-0.029,0.840,0.170,0.134,-0.976,2478.99,-4.700,-24.284,-1.007,0.137,0.133,0.982,-0.363,-0.643,-0.674,2480.20,-2.014,-1.679,9.960,0.752,0.573,0.324,-0.192,0.450,-0.872,2510.36,-10.072,-8.841,-3.693,0.313,-0.633,0.708,0.684,-0.040,0.729,10.249,-11.511,-15.237,10.550,0.645,-0.401,0.651,9.689,-18.580,-17.588,7.221,none
0.224683,-0.369,-0.274,-0.888,2382.02,-8.952,-15.891,6.491,0.549,-0.030,0.835,0.158,0.075,-0.985,2489.27,-2.014,-23.165,-6.155,0.165,0.095,0.982,-0.370,-0.631,-0.682,2465.12,-4.029,-1.231,8.505,0.731,0.604,0.319,-0.202,0.457,-0.866,2492.77,-15.667,-8.617,-5.371,0.296,-0.656,0.694,0.642,-0.006,0.767,10.757,-9.527,-13.481,9.618,0.636,-0.378,0.673,9.725,-14.641,-17.924,5.908,none
0.245304,-0.384,-0.244,-0.891,2320.30,-11.974,-14.436,4.700,0.556,-0.015,0.831,0.117,0.086,-0.989,2269.07,-5.371,-23.612,-8.729,0.178,0.078,0.981,-0.386,-0.650,-0.654,2255.95,-5.371,1.679,4.029,0.721,0.586,0.370,-0.208,0.458,-0.864,2466.01,-12.757,-2.462,-2.350,0.285,-0.634,0.719,0.634,-0.017,0.773,10.674,-13.939,-4.504,5.740,0.616,-0.385,0.688,9.709,-14.626,-8.947,1.618,none
0.265909,-0.402,-0.278,-0.872,2311.88,-3.917,-6.714,3.581,0.559,0.000,0.829,0.111,0.055,-0.992,2309.75,-1.231,-14.324,-5.707,0.169,0.119,0.978,-0.366,-0.658,-0.658,2540.88,-3.917,2.126,-1.231,0.739,0.573,0.355,-0.214,0.437,-0.874,2449.52,-9.624,1.343,-0.671,0.285,-0.625,0.727,0.642,-0.055,0.765,10.147,-11.618,-3.908,1.771,0.600,-0.415,0.685,9.484,-13.145,-10.519,0.061,none
0.287182,-0.388,-0.293,-0.874,2395.97,-8.393,-7.386,3.581,0.548,-0.047,0.835,0.091,0.000,-0.996,2281.41,-0.671,-10.743,-6.491,0.187,0.066,0.980,-0.387,-0.662,-0.641,2377.53,-7.162,5.707,1.567,0.738,0.571,0.359,-0.231,0.420,-0.878,2481.26,-13.764,0.671,0.336,0.297,-0.671,0.680,0.717,-0.142,0.682,9.001,-4.382,-12.718,0.870,0.629,-0.469,0.620,8.890,-11.084,-12.168,4.748,none
0.309392,-0.361,-0.275,-0.891,2407.80,-3.693,-1.679,4.700,0.583,-0.064,0.810,0.175,0.091,-0.980,2589.60,-1.231,-4.364,-2.798,0.216,0.117,0.969,-0.362,-0.647,-0.671,2433.15,-9.400,7.274,1.343,0.733,0.591,0.337,-0.181,0.444,-0.878,2459.41,-15.891,-9.176,-2.238,0.299,-0.647,0.701,0.648,0.001,0.762,10.645,1.237,-9.084,-2.931,0.628,-0.323,0.708,10.249,-7.847,-15.527,-4.962,none
0.330423,-0.322,-0.305,-0.896,2458.55,-14.324,-7.386,1.231,0.568,-0.061,0.821,0.135,0.068,-0.988,2318.73,4.252,-16.226,-1.902,0.199,0.125,0.972,-0.343,-0.638,-0.689,2453.09,-9.288,6.491,-0.671,0.733,0.567,0.377,-0.176,0.474,-0.863,2468.16,-11.302,-11.191,3.021,0.290,-0.643,0.709,0.614,0.010,0.789,10.660,-2.015,-4.855,-6.962,0.623,-0.338,0.705,9.901,-21.511,-11.206,-4.000,none
0.352584,-0.384,-0.291,-0.877,2345.69,-17.345,-8.841,9.288,0.558,-0.029,0.829,0.153,-0.009,-0.988,2309.38,-1.007,-26.969,-3.693,0.210,0.139,0.968,-0.320,-0.621,-0.715,2597.96,-12.533,7.833,-3.357,0.722,0.594,0.355,-0.177,0.459,-0.870,2503.53,-14.995,-10.407,8.281,0.319,-0.660,0.680,0.688,-0.021,0.725,11.471,-5.573,-11.191,-13.206,0.648,-0.341,0.681,11.019,-27.603,-8.397,-0.901,none
0.374049,-0.329,-0.181,-0.927,2736.30,-9.736,-16.114,17.233,0.581,-0.041,0.813,0.155,0.133,-0.979,2652.09,-6.155,-27.305,-0.336,0.212,0.113,0.971,-0.346,-0.610,-0.713,2520.07,-13.205,3.917,-1.343,0.729,0.556,0.399,-0.163,0.503,-0.849,2657.59,-12.198,-9.512,6.155,0.310,-0.658,0.686,0.732,-0.023,0.681,12.350,-6.870,-2.580,2.443,0.751,-0.353,0.558,11.996,-29.985,-6.718,15.802,none
0.395087,-0.301,-0.120,-0.946,2826.55,-9.176,-25.291,9.960,0.568,-0.076,0.819,0.135,0.164,-0.977,2757.82,1.567,-29.991,-3.469,0.215,0.096,0.972,-0.350,-0.620,-0.702,2573.85,-0.224,0.112,3.133,0.733,0.565,0.379,-0.194,0.516,-0.834,2588.28,-11.638,-17.681,-0.112,0.296,-0.655,0.695,0.721,-0.027,0.692,11.682,-9.725,1.695,12.336,0.685,-0.346,0.641,11.295,-29.954,0.962,31.053,none
0.416274,-0.316,-0.154,-0.936,2781.64,2.462,-36.593,3.245,0.608,-0.051,0.792,0.124,0.193,-0.973,2688.01,8.505,-31.334,-8.505,0.261,0.121,0.958,-0.358,-0.597,-0.718,2409.82,4.924,-1.343,5.931,0.728,0.587,0.354,-0.184,0.538,-0.822,2518.55,-1.679,-12.422,-2.798,0.320,-0.670,0.670,0.687,-0.028,0.726,12.021,-10.183,10.076,24.443,0.682,-0.401,0.611,10.829,-40.824,14.656,42.443,none
0.437533,-0.393,-0.126,-0.911,2536.63,9.736,-53.827,0.336,0.604,-0.041,0.796,0.107,0.107,-0.989,2568.51,25.962,-35.250,-12.869,0.242,0.137,0.961,-0.335,-0.626,-0.704,2626.35,13.429,-10.407,7.833,0.729,0.556,0.399,-0.212,0.478,-0.853,2510.88,10.631,-4.141,-8.169,0.310,-0.667,0.678,0.696,-0.088,0.712,10.066,-10.137,18.702,31.267,0.599,-0.476,0.643,9.370,-30.168,13.618,44.473,none
0.458732,-0.473,-0.327,-0.818,2296.53,16.786,-58.415,-11.526,0.615,-0.055,0.786,0.042,0.038,-0.998,2336.76,17.905,-41.405,-15.667,0.271,0.143,0.952,-0.345,-0.619,-0.706,2355.37,10.743,-8.057,5.931,0.725,0.576,0.378,-0.220,0.462,-0.859,2422.39,8.729,-2.910,-9.736,0.323,-0.645,0.692,0.632,-0.045,0.773,10.711,-12.229,14.214,33.435,0.585,-0.435,0.684,9.695,-39.206,3.786,40.198,none
0.483521,-0.463,-0.214,-0.860,2366.97,8.617,-53.491,0.895,0.616,-0.039,0.787,0.018,0.144,-0.989,2179.11,17.793,-32.229,-19.695,0.282,0.156,0.947,-0.353,-0.639,-0.684,2388.37,7.274,-4.812,0.671,0.739,0.573,0.354,-0.197,0.476,-0.857,2498.13,7.833,0.224,-9.736,0.332,-0.671,0.663,0.688,-0.068,0.722,11.311,-13.740,3.069,31.145,0.642,-0.477,0.601,10.022,-34.000,4.718,40.611,none
0.500414,-0.492,-0.171,-0.854,2385.38,11.750,-48.231,-7.833,0.644,-0.040,0.764,0.051,0.020,-0.999,2511.74,29.207,-13.764,-20.703,0.302,0.148,0.942,-0.371,-0.621,-0.691,2506.47,11.526,-7.833,-0.224,0.732,0.579,0.359,-0.217,0.497,-0.840,2548.81,10.519,-0.895,-13.876,0.325,-0.663,0.674,0.542,0.008,0.840,12.709,-32.962,13.618,28.718,0.611,-0.461,0.644,10.480,-26.534,10.489,38.656,none
0.519879,-0.521,-0.274,-0.808,2347.68,13.764,-33.348,-15.443,0.644,-0.025,0.765,0.009,-0.038,-0.999,2303.77,26.969,-8.169,-11.638,0.277,0.220,0.936,-0.397,-0.676,-0.621,2518.11,15.219,-8.505,-3.805,0.747,0.575,0.335,-0.218,0.498,-0.839,2527.04,17.122,-0.895,-12.198,0.309,-0.650,0.695,0.545,-0.066,0.836,11.703,-73.038,34.382,23.893,0.565,-0.493,0.662,10.299,-25.847,30.137,35.557,none
0.539993,-0.494,-0.244,-0.835,2438.80,30.215,-18.464,-14.548,0.648,-0.034,0.761,-0.004,-0.101,-0.995,2344.92,25.403,7.162,-3.021,0.306,0.210,0.929,-0.393,-0.649,-0.652,2443.01,10.967,-4.141,-8.393,0.744,0.584,0.325,-0.255,0.401,-0.880,2475.20,32.229,5.483,-8.281,0.323,-0.645,0.692,0.640,-0.330,0.694,8.414,-46.641,14.885,6.595,0.278,-0.738,0.615,7.474,-13.496,18.443,17.267,none
0.561019,-0.612,-0.586,-0.531,2319.11,21.822,-5.483,-15.107,0.639,-0.018,0.769,0.012,-0.184,-0.983,2503.99,12.645,6.155,-3.917,0.285,0.219,0.933,-0.423,-0.705,-0.569,2662.70,3.805,-4.812,-11.750,0.731,0.591,0.341,-0.282,0.400,-0.872,2510.06,12.422,3.581,-2.014,0.335,-0.644,0.688,0.535,-0.257,0.805,8.988,-8.656,8.168,-15.160,0.379,-0.607,0.698,8.352,10.061,-4.000,-13.267,none
0.582653,-0.615,-0.365,-0.699,2085.28,-5.260,20.591,-3.469,0.670,-0.020,0.742,-0.052,-0.271,-0.961,2059.22,-3.693,13.653,1.007,0.310,0.212,0.927,-0.391,-0.714,-0.581,2355.20,-5.148,1.790,-3.581,0.741,0.594,0.312,-0.239,0.390,-0.889,2472.69,1.231,6.267,8.952,0.331,-0.611,0.719,0.629,-0.128,0.767,11.881,-0.397,0.962,-18.779,0.574,-0.433,0.695,11.220,2.733,-3.191,-18.595,none
0.602384,-0.317,-0.246,-0.916,3089.42,7.610,33.572,1.119,0.665,-0.018,0.746,0.164,0.103,-0.981,3056.73,-13.317,28.312,12.422,0.277,0.220,0.936,-0.355,-0.658,-0.664,2618.74,2.014,7.386,-8.169,0.743,0.576,0.341,-0.178,0.456,-0.872,2610.32,3.805,6.155,9.736,0.314,-0.619,0.720,0.654,-0.123,0.746,12.891,-2.504,-2.992,-8.550,0.622,-0.439,0.648,12.003,3.130,-1.832,-11.649,none
0.624224,-0.453,-0.204,-0.868,2674.96,9.624,14.436,-0.783,0.657,-0.018,0.754,0.100,0.053,-0.994,2761.66,-2.014,5.483,5.931,0.271,0.201,0.941,-0.352,-0.660,-0.663,2696.55,7.498,-2.238,3.133,0.735,0.574,0.361,-0.189,0.474,-0.860,2715.96,3.021,3.245,2.686,0.320,-0.632,0.705,0.579,-0.109,0.808,12.721,-9.328,9.939,-1.481,0.605,-0.476,0.638,11.270,8.137,16.519,-1.145,none
0.645434,-0.506,-0.300,-0.808,2434.68,21.150,19.248,-7.050,0.655,0.006,0.755,0.037,-0.113,-0.993,2427.27,7.050,8.505,7.610,0.283,0.195,0.939,-0.391,-0.700,-0.598,2531.76,15.107,-5.931,5.931,0.731,0.604,0.319,-0.195,0.423,-0.885,2530.46,18.912,10.967,2.798,0.325,-0.640,0.697,0.599,-0.185,0.779,10.302,-6.702,12.122,-4.580,0.454,-0.488,0.746,9.676,13.511,23.374,-6.779,none
0.665503,-0.359,-0.441,-0.823,2726.23,34.803,28.760,-8.617,0.661,-0.011,0.750,0.062,-0.098,-0.993,2396.25,-2.798,17.233,13.653,0.261,0.236,0.936,-0.369,-0.679,-0.635,2522.98,11.750,-6.491,11.750,0.734,0.587,0.343,-0.223,0.429,-0.876,2477.32,7.050,9.064,3.805,0.314,-0.620,0.719,0.583,-0.105,0.805,13.632,11.847,2.824,-10.427,0.662,-0.461,0.591,12.119,8.809,-2.519,-11.221,none
0.685311,-0.442,-0.223,-0.869,2658.42,15.107,14.772,4.812,0.624,0.045,0.780,0.081,0.149,-0.986,2774.09,-15.331,1.119,3.357,0.258,0.197,0.946,-0.426,-0.689,-0.587,2529.77,24.731,-14.212,7.386,0.739,0.577,0.348,-0.194,0.476,-0.858,2642.06,-8.952,14.548,-4.364,0.299,-0.627,0.719,0.807,-0.194,0.557,11.294,-10.290,37.267,22.412,0.511,-0.429,0.745,10.129,20.611,44.595,-11.099,none
0.706410,-0.316,-0.283,-0.906,2724.90,46.553,20.479,-11.191,0.638,-0.010,0.770,0.134,-0.116,-0.984,2699.02,19.024,5.595,6.155,0.218,0.232,0.948,-0.374,-0.664,-0.648,2641.71,18.688,-10.967,12.086,0.742,0.593,0.312,-0.222,0.383,-0.897,2309.86,26.298,9.064,-2.574,0.305,-0.612,0.730,0.648,-0.246,0.721,7.311,4.794,3.939,30.412,0.391,-0.548,0.740,7.441,5.634,17.038,-20.321,none
0.726605,-0.414,-0.540,-0.733,2336.99,16.450,7.386,-3.581,0.615,0.037,0.788,0.084,-0.038,-0.996,2341.96,-4.029,-6.938,11.862,0.258,0.246,0.934,-0.377,-0.672,-0.637,2546.89,9.624,-12.869,12.869,0.735,0.600,0.317,-0.177,0.437,-0.882,2226.24,7.386,-7.386,-0.671,0.318,-0.628,0.710,0.624,-0.162,0.764,9.067,7.618,-3.282,19.954,0.571,-0.463,0.678,8.623,2.580,-9.160,-24.977,none
0.746591,-0.477,-0.187,-0.859,2073.32,-12.310,13.653,11.302,0.642,0.043,0.765,0.025,0.034,-0.999,1979.80,-11.414,-5.483,6.043,0.254,0.223,0.941,-0.355,-0.656,-0.666,2041.24,-4.588,-7.386,17.122,0.760,0.589,0.274,-0.186,0.446,-0.875,2334.09,-4.252,-6.938,3.805,0.315,-0.629,0.711,0.649,-0.176,0.740,10.268,14.916,2.290,16.504,0.627,-0.485,0.610,9.305,10.702,-2.733,-22.351,none
0.767243,-0.373,-0.270,-0.888,2492.66,0.336,20.703,0.224,0.610,0.007,0.792,0.099,0.103,-0.990,2386.37,-11.750,6.826,6.938,0.272,0.216,0.938,-0.381,-0.713,-0.589,2389.51,9.848,-5.148,14.772,0.745,0.585,0.319,-0.170,0.417,-0.893,2495.90,0.000,9.064,1.455,0.314,-0.595,0.739,7.348,-1.951,8.626,11.498,27.008,5.664,13.908,0.563,-0.409,0.718,10.776,14.718,-2.153,-13.389,none
0.790318,-0.391,-0.335,-0.857,2650.64,2.686,15.107,-5.036,0.620,0.022,0.784,0.121,0.046,-0.992,2768.16,-4.476,11.079,5.036,0.251,0.197,0.948,-0.385,-0.628,-0.676,2618.64,8.281,10.519,3.357,0.751,0.578,0.318,-0.164,0.452,-0.877,2652.59,0.783,4.476,-1.007,0.330,-0.602,0.727,7.439,-1.769,8.724,11.601,23.908,10.244,25.634,0.576,-0.381,0.723,11.257,8.809,1.649,-11.038,none
0.809991,-0.334,-0.302,-0.893,2841.63,0.671,9.960,-3.693,0.586,0.031,0.810,0.132,0.089,-0.987,2759.97,-0.224,5.595,3.469,0.251,0.197,0.948,-0.374,-0.640,-0.672,2751.91,5.036,2.686,5.036,0.746,0.588,0.313,-0.182,0.446,-0.876,2554.12,5.707,-2.798,-3.245,0.306,-0.611,0.730,6.558,-2.174,7.456,10.164,24.687,3.038,32.443,0.583,-0.458,0.671,9.753,6.885,-4.916,-6.198,none
0.829850,-0.404,-0.296,-0.865,2467.51,-5.260,6.938,-6.155,0.597,0.023,0.802,0.058,0.074,-0.996,2380.53,1.119,-1.119,-0.448,0.261,0.170,0.950,-0.390,-0.619,-0.681,2481.48,1.902,-6.491,11.638,0.762,0.570,0.307,-0.223,0.449,-0.865,2427.77,2.014,-9.288,-8.729,0.297,-0.643,0.706,6.134,-2.337,7.084,9.658,33.573,-3.038,25.557,0.596,-0.494,0.633,9.172,9.771,-12.137,-1.420,none
0.849826,-0.455,-0.216,-0.864,2255.13,-10.519,3.357,-8.952,0.606,0.015,0.795,0.018,0.120,-0.993,2211.30,-1.902,-3.021,-2.798,0.275,0.196,0.941,-0.421,-0.658,-0.625,2141.15,3.357,-8.841,0.560,0.751,0.585,0.306,-0.219,0.448,-0.867,2434.22,4.700,-1.902,-11.079,0.294,-0.628,0.720,7.135,-1.856,8.358,11.145,39.069,6.504,22.672,0.611,-0.454,0.648,9.752,17.344,-6.260,0.809,none
0.867970,-0.459,-0.228,-0.859,2301.62,-2.798,6.379,-15.331,0.619,0.031,0.785,0.022,0.096,-0.995,2244.97,8.729,8.281,-6.714,0.228,0.200,0.953,-0.388,-0.636,-0.668,2371.36,6.491,-5.371,-10.631,0.760,0.562,0.326,-0.220,0.435,-0.873,2460.63,12.757,7.833,-11.079,0.319,-0.604,0.730,6.053,-2.198,7.515,9.897,35.038,20.015,25.221,0.585,-0.434,0.686,9.837,19.069,-3.786,7.969,none
0.889075,-0.388,-0.308,-0.869,2469.39,-1.231,10.407,-23.948,0.604,0.038,0.796,0.114,0.042,-0.993,2596.08,11.191,14.324,-10.072,0.231,0.130,0.964,-0.391,-0.661,-0.641,2578.25,4.029,-8.505,-13.541,0.762,0.570,0.307,-0.211,0.412,-0.886,2479.76,9.512,7.945,-14.995,0.307,-0.606,0.734,5.576,-2.320,7.357,9.519,46.763,-2.275,9.863,0.511,-0.442,0.737,9.442,17.328,-19.252,13.420,none
0.910762,-0.373,-0.404,-0.835,2542.57,-6.826,1.790,-22.717,0.597,0.030,0.801,0.109,-0.019,-0.994,2612.06,8.505,3.581,-13.541,0.225,0.227,0.948,-0.412,-0.673,-0.614,2545.34,1.902,-11.191,-10.967,0.758,0.593,0.273,-0.204,0.421,-0.884,2565.42,-0.671,-0.783,-18.241,0.309,-0.635,0.708,7.092,-1.597,9.151,11.687,46.443,1.908,11.389,0.565,-0.379,0.733,10.690,15.832,-21.725,10.641,none
0.929943,-0.372,-0.325,-0.870,2578.42,-12.869,4.812,-17.457,0.588,0.015,0.809,0.087,0.031,-0.996,2488.62,2.462,0.448,-10.855,0.236,0.220,0.946,-0.398,-0.678,-0.618,2512.59,0.224,-10.743,-10.072,0.763,0.592,0.259,-0.204,0.403,-0.892,2562.99,1.902,-1.455,-16.450,0.333,-0.606,0.723,6.515,-1.621,8.780,11.052,49.328,5.939,16.672,0.546,-0.410,0.731,10.009,17.160,-17.664,9.954,none
0.951357,-0.379,-0.351,-0.856,2503.64,-6.267,6.491,-17.569,0.588,0.015,0.809,0.098,-0.039,-0.994,2502.05,8.841,6.379,-9.960,0.239,0.238,0.941,-0.415,-0.701,-0.580,2526.64,4.476,-9.400,-7.498,0.766,0.593,0.248,-0.215,0.395,-0.893,2515.72,5.707,-3.581,-16.338,0.319,-0.589,0.742,6.091,-1.252,9.318,11.202,45.618,6.824,17.023,0.498,-0.377,0.781,9.970,16.443,-16.763,7.756,none
0.972153,-0.382,-0.401,-0.833,2434.40,-3.693,9.176,-15.779,0.607,0.023,0.794,0.089,-0.065,-0.994,2424.75,3.805,6.267,-6.826,0.248,0.210,0.946,-0.424,-0.716,-0.555,2447.67,2.014,-10.183,-7.386,0.739,0.596,0.314,-0.214,0.389,-0.896,2528.80,1.343,-1.455,-13.205,0.336,-0.591,0.733,5.825,-0.917,9.850,11.480,36.534,11.847,13.252,0.518,-0.332,0.788,10.617,10.443,-9.985,4.611,none
0.994901,-0.299,-0.383,-0.874,2677.96,1.902,7.833,-9.736,0.579,0.023,0.815,0.138,-0.065,-0.988,2568.00,7.610,6.714,-2.798,0.247,0.270,0.931,-0.405,-0.725,-0.556,2510.77,6.714,-2.126,-8.281,0.768,0.578,0.275,-0.179,0.373,-0.910,2478.90,6.043,0.000,-8.169,0.332,-0.605,0.723,4.518,-0.673,9.785,10.799,18.214,3.756,3.130,0.465,-0.308,0.830,10.370,-0.641,-5.908,6.519,none
1.014600,-0.273,-0.476,-0.836,2646.85,6.155,-2.126,-6.267,0.608,0.053,0.792,0.195,-0.113,-0.974,2776.19,8.393,1.119,-0.336,0.229,0.234,0.945,-0.379,-0.736,-0.562,2714.85,4.924,-1.343,3.133,0.759,0.592,0.271,-0.180,0.338,-0.924,2413.02,1.455,-5.707,-2.574,0.328,-0.583,0.743,5.025,-0.974,9.328,10.640,6.962,-8.015,-2.153,0.421,-0.336,0.843,9.841,-11.603,-14.473,0.656,none
1.036095,-0.328,-0.509,-0.796,2534.35,-4.029,-6.267,3.693,0.599,0.068,0.798,0.124,-0.158,-0.980,2539.75,-10.967,-12.869,2.462,0.267,0.203,0.942,-0.408,-0.732,-0.546,2594.89,-5.260,2.574,10.519,0.754,0.581,0.305,-0.223,0.352,-0.909,2429.35,-10.295,-10.743,3.245,0.340,-0.590,0.732,4.875,-1.338,8.521,9.908,-5.954,-18.641,-6.550,0.479,-0.400,0.782,9.322,-21.740,-18.595,-2.885,none
1.057260,-0.394,-0.438,-0.808,2385.57,-11.526,-7.162,16.003,0.567,0.016,0.824,0.066,-0.086,-0.994,2385.10,-17.569,-13.876,3.245,0.244,0.190,0.951,-0.431,-0.690,-0.581,2453.38,-11.191,6.602,15.443,0.749,0.595,0.292,-0.249,0.397,-0.884,2453.62,-16.338,-12.981,6.826,0.363,-0.599,0.714,6.136,-1.310,8.507,10.570,-5.664,-22.168,-19.160,0.575,-0.433,0.694,9.363,-19.695,-21.145,-12.550,none
1.078137,-0.424,-0.292,-0.857,2306.07,-20.591,0.000,18.464,0.601,0.037,0.798,0.036,0.084,-0.996,2223.20,-23.948,-10.631,7.498,0.263,0.216,0.940,-0.398,-0.670,-0.627,2337.37,-15.219,9.400,12.981,0.781,0.567,0.260,-0.226,0.439,-0.869,2482.56,-20.255,-11.862,10.631,0.337,-0.614,0.714,7.836,-1.496,8.526,11.676,-3.435,-11.969,-15.878,0.655,-0.402,0.640,10.496,-14.687,-12.962,-10.305,none
1.096958,-0.373,-0.136,-0.918,2571.75,-14.436,3.021,15.667,0.609,0.014,0.793,0.092,0.156,-0.983,2571.60,-14.883,-2.238,6.267,0.256,0.179,0.950,-0.413,-0.636,-0.652,2323.44,-9.960,8.057,8.841,0.767,0.570,0.294,-0.216,0.465,-0.858,2597.30,-6.826,-2.014,6.714,0.329,-0.586,0.740,7.673,-1.377,8.808,11.763,0.565,1.282,-4.947,0.654,-0.396,0.644,10.726,-7.756,-5.603,-2.458,none
1.117527,-0.370,-0.158,-0.916,2589.57,-4.700,-0.560,4.476,0.594,0.046,0.803,0.098,0.143,-0.985,2608.39,-1.007,-3.245,-0.112,0.258,0.203,0.944,-0.390,-0.630,-0.671,2561.52,1.007,1.007,2.126,0.770,0.574,0.279,-0.223,0.459,-0.860,2567.58,-1.119,0.671,0.783,0.335,-0.596,0.730,6.898,-1.403,8.504,11.039,3.740,4.550,-0.412,0.589,-0.400,0.702,10.022,-5.145,-3.405,-0.229,none
1.140232,-0.386,-0.301,-0.872,2459.82,-0.336,-1.231,-1.231,0.588,0.023,0.809,0.084,0.004,-0.996,2459.75,1.119,-2.462,-2.126,0.260,0.176,0.950,-0.398,-0.662,-0.635,2585.32,1.567,0.336,-0.895,0.757,0.584,0.294,-0.217,0.432,-0.875,2500.81,1.231,1.231,0.671,0.336,-0.605,0.722,5.552,-1.554,7.992,9.854,6.565,3.557,-2.977,0.564,-0.384,0.731,9.886,-5.878,-6.137,-0.733,none
1.159975,-0.346,-0.346,-0.872,2513.35,-0.336,-0.671,0.671,0.593,0.007,0.806,0.121,-0.004,-0.993,2526.50,-0.895,-1.790,-0.112,0.246,0.199,0.949,-0.412,-0.685,-0.601,2470.71,0.224,0.224,1.567,0.774,0.565,0.286,-0.216,0.415,-0.884,2464.86,0.000,-0.224,1.231,0.332,-0.621,0.710,6.115,-1.154,8.782,10.763,3.847,-6.366,-7.466,0.559,-0.375,0.740,9.979,-8.427,-9.282,-1.313,none
1.180918,-0.362,-0.346,-0.865,2455.31,-4.588,-3.693,3.021,0.605,0.037,0.795,0.106,-0.004,-0.994,2502.09,-2.462,-4.364,1.679,0.245,0.171,0.954,-0.406,-0.687,-0.603,2462.94,-1.231,1.455,5.595,0.767,0.570,0.294,-0.221,0.405,-0.887,2454.28,-5.148,-3.469,1.790,0.347,-0.618,0.706,5.969,-1.341,8.708,10.642,1.008,-3.756,-6.382,0.540,-0.415,0.732,9.477,-9.603,-8.229,-2.641,none
1.200409,-0.396,-0.358,-0.846,2372.88,-5.483,-3.693,4.476,0.602,0.015,0.798,0.086,-0.029,-0.996,2409.90,-4.700,-7.833,0.895,0.272,0.208,0.940,-0.403,-0.705,-0.583,2429.14,-1.455,3.357,4.141,0.747,0.588,0.310,-0.224,0.399,-0.889,2415.98,-6.043,-3.581,3.469,0.345,-0.599,0.723,5.758,-1.211,8.574,10.399,-5.053,-9.466,-6.443,0.522,-0.378,0.764,9.655,-11.176,-12.489,-4.550,none
1.219768,-0.359,-0.391,-0.847,2448.65,-7.162,-2.014,5.371,0.592,0.015,0.806,0.074,-0.069,-0.995,2403.35,-10.183,-6.602,3.357,0.240,0.180,0.954,-0.416,-0.693,-0.588,2540.77,-6.379,6.491,7.610,0.751,0.584,0.307,-0.216,0.398,-0.892,2421.59,-11.302,-6.155,5.931,0.334,-0.625,0.706,5.227,-1.214,8.284,9.870,-10.275,-15.954,-10.489,0.528,-0.398,0.751,9.432,-15.893,-14.901,-9.237,none
1.241572,-0.388,-0.395,-0.833,2396.64,-14.883,-1.567,13.429,0.578,0.015,0.816,0.082,-0.004,-0.997,2408.09,-15.107,-5.707,7.050,0.255,0.209,0.944,-0.390,-0.656,-0.647,2463.22,-13.205,11.638,11.079,0.748,0.562,0.353,-0.227,0.405,-0.886,2426.77,-15.667,-9.624,9.512,0.348,-0.612,0.710,5.974,-1.528,7.982,10.086,-16.015,-32.992,-25.695,0.561,-0.420,0.713,9.702,-17.115,-21.863,-10.901,none
1.263415,-0.380,-0.267,-0.886,2521.31,-25.738,-1.567,17.122,0.573,-0.017,0.819,0.081,0.085,-0.993,2555.57,-18.912,-5.819,4.476,0.260,0.188,0.947,-0.403,-0.656,-0.639,2478.81,-18.688,11.974,7.722,0.765,0.561,0.317,-0.232,0.456,-0.859,2500.21,-24.843,-12.198,7.386,0.339,-0.619,0.709,7.532,-1.168,8.792,11.636,-23.344,-26.397,-20.321,0.664,-0.398,0.633,10.651,-25.939,-20.779,-3.389,none
1.285440,-0.372,-0.182,-0.910,2572.18,-24.284,-2.910,15.667,0.614,0.007,0.789,0.068,0.040,-0.997,2467.61,-14.436,-6.043,4.141,0.254,0.177,0.951,-0.402,-0.650,-0.645,2559.58,-17.457,9.736,4.476,0.759,0.575,0.306,-0.223,0.475,-0.851,2524.21,-12.869,-14.660,2.238,0.347,-0.641,0.685,5.770,-0.919,8.789,10.554,-36.763,-20.076,-21.420,0.599,-0.413,0.686,10.037,-25.328,-17.817,1.374,none
1.306260,-0.434,-0.249,-0.866,2386.75,-21.038,-5.819,7.945,0.605,-0.017,0.796,0.017,0.127,-0.992,2322.03,-12.645,-5.371,3.245,0.273,0.156,0.949,-0.409,-0.608,-0.680,2444.33,-15.667,7.386,4.588,0.750,0.557,0.358,-0.233,0.436,-0.870,2415.07,-4.364,-7.945,9.400,0.335,-0.653,0.679,7.796,-1.686,7.764,11.131,-51.557,-28.763,-39.008,0.584,-0.454,0.673,9.342,-28.931,-14.061,0.351,none
1.329596,-0.434,-0.257,-0.864,2346.01,-23.500,-5.595,9.288,0.624,-0.041,0.780,0.018,0.035,-0.999,2246.71,-7.050,0.000,2.238,0.285,0.131,0.949,-0.387,-0.644,-0.660,2428.83,-17.233,9.624,2.350,0.753,0.560,0.346,-0.250,0.464,-0.850,2518.54,-7.162,-16.450,6.379,0.334,-0.634,0.697,8.315,-1.820,8.241,11.847,-43.405,-6.611,-23.389,0.664,-0.417,0.621,10.815,-25.130,-14.046,7.145,none
1.347475,-0.382,-0.152,-0.911,2610.37,-16.674,-6.938,11.191,0.614,-0.032,0.788,0.097,0.152,-0.984,2650.21,-13.205,5.260,3.021,0.287,0.127,0.950,-0.413,-0.646,-0.642,2513.28,-10.631,2.574,3.917,0.743,0.551,0.379,-0.238,0.502,-0.832,2643.18,-11.079,-10.855,0.560,0.330,-0.636,0.698,8.691,-1.884,8.787,12.502,-38.809,-4.885,-12.489,0.640,-0.398,0.658,11.426,-21.847,-6.595,11.542,none
1.367994,-0.374,-0.157,-0.914,2720.62,-9.064,-7.498,4.252,0.605,-0.048,0.795,0.103,0.088,-0.991,2769.62,2.238,-1.790,0.783,0.251,0.123,0.960,-0.410,-0.632,-0.658,2677.83,-1.231,-2.014,-0.560,0.756,0.547,0.359,-0.252,0.510,-0.823,2697.34,-7.162,-15.779,-4.476,0.348,-0.645,0.680,8.140,-2.157,8.430,11.916,-34.977,5.542,0.275,0.641,-0.425,0.638,11.156,-24.519,0.840,21.099,none
1.389449,-0.400,-0.177,-0.899,2643.90,-3.581,-9.848,1.790,0.608,-0.039,0.793,0.047,0.105,-0.993,2534.65,4.812,-3.581,1.007,0.264,0.123,0.957,-0.388,-0.606,-0.694,2550.43,-1.343,-6.602,2.126,0.764,0.567,0.309,-0.258,0.483,-0.837,2522.37,2.238,-13.205,-4.924,0.357,-0.677,0.643,7.570,-2.265,7.649,10.998,-19.985,7.634,9.069,0.609,-0.498,0.618,9.578,-13.573,3.817,18.412,none
1.408021,-0.427,-0.232,-0.874,2430.22,2.350,-9.288,-2.350,0.616,-0.031,0.787,0.009,0.076,-0.997,2329.74,7.274,-4.812,1.455,0.280,0.127,0.952,-0.418,-0.612,-0.672,2271.00,1.231,-10.743,5.483,0.759,0.555,0.341,-0.304,0.423,-0.854,2461.60,7.386,-8.281,-6.043,0.365,-0.647,0.670,6.419,-2.698,6.460,9.498,-8.153,9.160,12.977,0.517,-0.562,0.645,8.313,-5.252,7.282,13.588,none
1.430005,-0.538,-0.380,-0.752,2054.69,10.295,-4.476,-6.043,0.606,-0.032,0.795,0.005,-0.147,-0.989,2130.29,13.205,1.455,-2.798,0.271,0.127,0.954,-0.414,-0.686,-0.599,2414.11,3.469,-9.176,-4.141,0.758,0.554,0.346,-0.298,0.411,-0.862,2347.43,3.357,2.686,-1.902,0.355,-0.666,0.656,4.956,-2.310,7.444,9.236,10.290,8.061,1.832,0.476,-0.450,0.756,9.337,4.153,-3.053,0.168,none
1.450580,-0.389,-0.317,-0.865,2490.15,1.231,9.400,-5.260,0.597,-0.032,0.802,-0.004,-0.036,-0.999,2168.46,-4.252,13.653,0.783,0.255,0.135,0.958,-0.455,-0.697,-0.554,2345.02,-7.945,0.336,-6.379,0.756,0.571,0.318,-0.278,0.441,-0.853,2474.13,-2.238,9.624,4.924,0.363,-0.650,0.667,7.484,-2.088,8.973,11.870,14.427,3.145,-4.473,0.602,-0.421,0.679,10.943,-0.733,-2.947,-5.695,none
1.470057,-0.372,-0.235,-0.898,2658.58,4.700,10.407,1.007,0.630,-0.025,0.776,0.140,0.073,-0.988,2817.16,-0.895,9.288,4.476,0.265,0.129,0.956,-0.412,-0.658,-0.631,2588.19,1.679,1.679,-4.252,0.759,0.548,0.351,-0.242,0.468,-0.850,2643.25,2.798,9.512,4.252,0.338,-0.648,0.682,8.083,-2.124,9.301,12.504,12.000,6.916,3.115,0.622,-0.412,0.666,11.610,-2.565,5.527,0.641,none
1.491376,-0.374,-0.199,-0.906,2745.35,18.464,2.910,-2.798,0.593,-0.008,0.805,0.091,0.069,-0.993,2702.65,11.414,5.931,3.245,0.253,0.125,0.959,-0.422,-0.628,-0.654,2600.65,11.302,-3.357,0.112,0.750,0.570,0.336,-0.255,0.465,-0.848,2662.28,11.526,10.407,-0.448,0.357,-0.671,0.649,7.535,-2.234,8.545,11.609,14.427,11.069,8.229,0.589,-0.449,0.672,10.595,1.466,14.931,6.901,none
1.512094,-0.378,-0.249,-0.892,2667.45,27.081,1.567,-4.924,0.593,-0.031,0.804,0.098,0.080,-0.992,2695.77,11.302,3.021,3.805,0.272,0.171,0.947,-0.411,-0.634,-0.655,2671.27,12.645,-6.602,-0.448,0.776,0.547,0.314,-0.260,0.479,-0.838,2646.14,16.338,11.974,-1.343,0.343,-0.660,0.668,7.384,-2.097,8.274,11.286,24.336,8.473,9.542,0.578,-0.414,0.703,10.622,1.603,13.924,0.916,none
1.533121,-0.361,-0.282,-0.889,2631.59,28.984,-3.021,-3.469,0.598,-0.031,0.801,0.108,0.048,-0.993,2634.54,10.743,-1.679,1.343,0.250,0.136,0.959,-0.414,-0.629,-0.658,2598.84,14.660,-7.833,1.567,0.761,0.557,0.332,-0.249,0.470,-0.847,2571.96,13.317,14.100,1.567,0.324,-0.656,0.681,5.909,-1.796,7.582,9.779,31.099,9.435,8.107,0.517,-0.461,0.722,9.195,1.924,12.336,-5.237,none
1.554692,-0.411,-0.377,-0.830,2380.64,24.619,-5.371,-2.574,0.595,0.015,0.803,0.062,-0.004,-0.998,2374.64,3.805,-7.386,0.783,0.269,0.184,0.945,-0.424,-0.637,-0.644,2473.17,8.617,-8.505,7.722,0.750,0.570,0.336,-0.246,0.463,-0.852,2442.23,3.693,-1.455,-2.574,0.344,-0.627,0.699,5.698,-1.468,7.949,9.890,25.038,1.695,-4.260,0.513,-0.453,0.729,8.872,0.198,3.435,-16.672,none
1.575243,-0.451,-0.356,-0.818,2188.30,8.841,3.917,5.707,0.600,-0.001,0.800,0.036,-0.045,-0.998,2198.61,-0.783,-3.021,2.462,0.262,0.140,0.955,-0.425,-0.659,-0.621,2376.11,5.931,-3.581,7.498,0.773,0.558,0.301,-0.232,0.434,-0.870,2334.30,-2.350,-2.350,0.448,0.351,-0.650,0.674,5.890,-1.714,7.472,9.668,23.863,-4.092,-13.863,0.573,-0.416,0.707,9.538,-2.443,2.382,-19.359,none
1.595625,-0.364,-0.327,-0.872,2414.44,10.072,7.162,7.833,0.588,-0.001,0.809,0.109,0.020,-0.994,2426.01,-5.148,0.783,6.267,0.258,0.183,0.949,-0.433,-0.674,-0.599,2350.54,5.371,-1.455,8.505,0.761,0.577,0.297,-0.219,0.432,-0.875,2388.86,-0.560,6.043,7.945,0.334,-0.625,0.706,6.603,-1.508,8.162,10.606,23.939,-6.107,-12.000,0.543,-0.422,0.726,9.530,-3.359,1.145,-18.855,none
1.615975,-0.392,-0.351,-0.850,2418.38,8.952,5.371,9.400,0.624,0.006,0.782,0.075,-0.016,-0.997,2368.94,-4.476,-2.462,8.729,0.235,0.138,0.962,-0.418,-0.662,-0.622,2483.43,6.379,2.462,10.967,0.758,0.554,0.344,-0.236,0.432,-0.870,2502.30,-0.112,3.021,8.617,0.342,-0.633,0.694,6.546,-1.504,8.416,10.767,21.084,-7.206,-9.740,0.540,-0.411,0.734,9.882,-3.405,-1.023,-21.237,none
1.636460,-0.386,-0.342,-0.856,2479.91,6.714,8.281,11.079,0.601,-0.032,0.798,0.101,0.007,-0.995,2541.99,-10.295,-1.007,10.855,0.255,0.135,0.958,-0.427,-0.668,-0.610,2595.12,5.595,1.007,11.750,0.769,0.554,0.319,-0.224,0.424,-0.877,2504.97,-1.790,2.462,10.519,0.344,-0.637,0.690,6.926,-1.654,8.389,11.004,19.466,-9.145,-8.092,0.554,-0.412,0.724,10.105,-4.305,-2.656,-23.405,none
1.656627,-0.384,-0.318,-0.867,2518.43,2.238,12.198,12.310,0.625,-0.010,0.781,0.072,0.004,-0.997,2456.41,-10.855,-2.126,13.317,0.260,0.137,0.956,-0.439,-0.667,-0.602,2565.69,6.938,-1.119,15.443,0.758,0.567,0.322,-0.236,0.427,-0.873,2506.72,-2.798,-1.119,10.519,0.330,-0.627,0.706,6.474,-1.539,8.423,10.734,16.809,-8.840,-8.870,0.530,-0.427,0.732,9.672,-4.397,-2.336,-24.962,none
1.679659,-0.393,-0.360,-0.846,2464.30,1.902,14.548,13.764,0.588,0.000,0.809,0.086,-0.008,-0.996,2507.40,-10.743,1.567,15.219,0.273,0.141,0.952,-0.427,-0.666,-0.611,2495.93,6.491,-2.126,18.688,0.772,0.532,0.348,-0.236,0.427,-0.873,2461.33,-2.350,-1.231,13.205,0.324,-0.632,0.704,6.340,-1.441,8.253,10.506,8.687,-9.252,-14.611,0.554,-0.403,0.728,9.900,-7.725,-5.115,-27.252,none
1.697642,-0.377,-0.310,-0.873,2489.60,-2.574,12.757,16.562,0.581,0.032,0.813,0.093,0.066,-0.993,2524.61,-16.450,-1.119,15.667,0.252,0.100,0.962,-0.439,-0.659,-0.611,2497.01,1.902,0.112,17.010,0.769,0.560,0.308,-0.222,0.446,-0.867,2490.04,-4.924,-2.350,15.331,0.338,-0.634,0.696,7.429,-1.298,8.492,11.358,6.931,-10.260,-13.832,0.627,-0.380,0.680,10.630,-12.275,-5.740,-21.802,none
1.719804,-0.352,-0.239,-0.905,2608.36,-2.910,11.079,17.457,0.578,0.007,0.816,0.099,0.099,-0.990,2573.49,-13.653,-4.924,15.331,0.257,0.129,0.958,-0.417,-0.630,-0.655,2656.21,4.588,-15.331,18.800,0.772,0.537,0.341,-0.215,0.478,-0.852,2569.90,-5.036,-2.014,12.757,0.320,-0.657,0.682,8.071,-1.238,8.720,11.946,1.649,-2.321,-8.168,0.628,-0.387,0.675,10.746,-9.679,-0.122,-19.817,none
1.740429,-0.382,-0.198,-0.903,2559.93,1.790,8.281,13.205,0.598,-0.016,0.801,0.071,0.129,-0.989,2498.30,-8.057,-6.826,14.883,0.246,0.037,0.969,-0.435,-0.608,-0.664,2411.80,4.364,-16.003,18.464,0.780,0.545,0.306,-0.223,0.482,-0.847,2525.66,-2.350,-4.252,9.400,0.324,-0.667,0.671,7.333,-1.317,8.289,11.145,-4.244,6.916,-1.893,0.615,-0.413,0.671,9.992,-7.466,6.931,-16.656,none
1.760552,-0.400,-0.248,-0.882,2396.63,2.910,11.862,8.505,0.574,0.000,0.819,0.029,0.120,-0.992,2370.09,-2.798,-3.693,12.869,0.273,0.050,0.961,-0.454,-0.597,-0.661,2438.61,2.126,-10.967,13.317,0.774,0.552,0.310,-0.240,0.466,-0.852,2466.98,4.364,-1.455,8.841,0.320,-0.655,0.684,6.314,-1.774,7.058,9.635,-3.542,12.794,-8.351,0.575,-0.454,0.681,9.086,-7.389,7.252,-17.389,none
1.780895,-0.387,-0.267,-0.883,2373.66,1.119,12.422,8.169,0.564,-0.030,0.825,0.025,0.042,-0.999,2315.83,-3.693,2.574,10.631,0.243,0.088,0.966,-0.463,-0.591,-0.661,2499.39,-5.819,-11.414,5.931,0.768,0.564,0.302,-0.248,0.479,-0.842,2460.16,3.133,10.631,14.995,0.314,-0.654,0.689,6.574,-1.918,6.840,9.679,-2.443,4.565,-12.275,0.631,-0.395,0.668,9.963,-7.985,-2.443,-15.435,none
1.803556,-0.336,-0.235,-0.912,2532.42,-5.483,9.512,7.386,0.553,-0.030,0.833,0.128,0.180,-0.975,2773.51,-11.974,4.588,7.833,0.249,0.028,0.968,-0.479,-0.659,-0.580,2373.99,-14.212,-9.064,1.567,0.784,0.544,0.297,-0.201,0.484,-0.852,2455.41,-4.252,5.931,11.079,0.315,-0.652,0.690,7.604,-1.362,8.384,11.401,-2.870,1.176,-9.115,0.640,-0.403,0.654,10.328,-8.718,1.542,-7.847,none
1.823533,-0.388,-0.167,-0.906,2496.58,-0.895,2.238,2.910,0.573,-0.023,0.819,0.021,0.168,-0.986,2396.49,-3.581,-0.336,4.252,0.240,0.030,0.970,-0.463,-0.642,-0.611,2559.89,3.805,0.000,-3.245,0.788,0.524,0.322,-0.229,0.468,-0.853,2496.98,0.783,2.462,6.267,0.312,-0.672,0.672,6.780,-1.846,7.570,10.329,-1.084,2.351,-7.084,0.596,-0.433,0.676,9.684,-4.305,0.840,-5.939,none
1.845450,-0.400,-0.278,-0.873,2421.40,-1.343,4.029,-0.895,0.568,-0.023,0.822,0.068,0.044,-0.997,2469.02,1.231,5.819,0.224,0.232,0.065,0.970,-0.483,-0.624,-0.615,2415.12,1.007,4.252,2.910,0.783,0.555,0.279,-0.230,0.454,-0.861,2487.56,1.119,3.581,3.581,0.283,-0.662,0.694,6.340,-1.827,7.597,10.062,0.137,-2.168,-5.344,0.553,-0.428,0.715,9.435,-1.542,-4.992,-6.198,none
1.866633,-0.389,-0.319,-0.864,2413.17,-3.917,7.498,-1.567,0.582,-0.023,0.813,0.061,0.040,-0.997,2426.50,-4.812,8.505,-0.112,0.253,0.060,0.966,-0.446,-0.623,-0.642,2589.77,-11.191,7.386,-1.679,0.791,0.528,0.310,-0.234,0.419,-0.877,2440.40,-3.469,1.007,2.126,0.326,-0.659,0.678,5.662,-1.865,7.302,9.427,6.275,-11.740,-13.053,0.529,-0.436,0.729,9.114,1.008,-14.458,-11.099,none
1.888993,-0.393,-0.351,-0.850,2361.00,-15.667,9.512,0.560,0.573,-0.017,0.819,0.054,-0.025,-0.998,2366.20,-9.512,6.155,-0.448,0.239,0.060,0.969,-0.477,-0.622,-0.621,2486.24,-23.612,6.155,1.343,0.786,0.533,0.313,-0.218,0.447,-0.868,2442.89,-12.869,-1.790,3.133,0.318,-0.664,0.677,7.017,-1.367,8.248,10.915,9.527,-16.611,-18.412,0.574,-0.370,0.730,9.961,0.275,-20.321,-15.053,none
1.910228,-0.366,-0.293,-0.883,2429.01,-16.898,13.205,3.805,0.544,-0.022,0.839,0.099,0.063,-0.993,2487.18,-18.576,9.512,1.343,0.226,0.031,0.974,-0.464,-0.638,-0.614,2576.17,-22.605,2.014,-3.469,0.787,0.542,0.295,-0.193,0.472,-0.860,2497.45,-14.548,3.245,8.281,0.298,-0.661,0.689,7.544,-1.367,8.667,11.572,3.374,-13.145,-15.847,0.576,-0.348,0.740,10.644,-6.092,-19.267,-14.565,none
1.931999,-0.325,-0.269,-0.907,2646.08,-13.541,12.981,5.931,0.562,-0.008,0.827,0.112,0.119,-0.987,2632.50,-14.772,9.064,4.029,0.217,0.028,0.976,-0.441,-0.626,-0.643,2688.79,-21.262,-7.050,-3.245,0.774,0.532,0.343,-0.191,0.457,-0.868,2577.16,-10.183,2.014,6.491,0.297,-0.673,0.677,7.587,-1.188,8.976,11.813,2.427,-9.435,-11.053,0.581,-0.345,0.737,10.764,-5.298,-15.817,-11.802,none
1.953659,-0.299,-0.277,-0.913,2713.34,-8.952,8.393,8.281,0.535,-0.045,0.844,0.134,0.047,-0.990,2701.51,-14.660,5.595,6.826,0.230,-0.015,0.973,-0.488,-0.655,-0.576,2628.04,-22.717,-16.786,4.476,0.795,0.513,0.324,-0.192,0.462,-0.866,2618.01,-8.729,-1.007,6.826,0.303,-0.686,0.662,7.307,-1.099,8.978,11.628,-3.496,-7.374,-7.527,0.570,-0.344,0.747,10.547,-11.710,-11.481,-12.443,none
1.974945,-0.327,-0.326,-0.887,2604.05,-5.707,6.491,12.981,0.544,-0.061,0.837,0.099,0.004,-0.995,2491.20,-13.653,3.469,13.541,0.228,0.002,0.974,-0.482,-0.656,-0.581,2761.08,-12.086,-23.276,10.743,0.788,0.516,0.336,-0.205,0.451,-0.869,2552.56,-6.379,-6.714,9.960,0.312,-0.672,0.672,6.740,-1.389,8.241,10.736,-7.298,-7.466,-7.786,0.557,-0.365,0.746,9.892,-14.061,-12.672,-15.985,none
1.996151,-0.372,-0.367,-0.852,2390.05,-3.805,13.317,19.472,0.573,-0.066,0.817,0.112,-0.028,-0.993,2466.35,-18.353,9.848,23.276,0.224,0.013,0.975,-0.491,-0.668,-0.560,2756.35,-4.476,-41.853,37.153,0.796,0.520,0.309,-0.206,0.446,-0.871,2490.39,-11.638,-11.079,11.526,0.289,-0.676,0.678,6.460,-1.372,8.466,10.737,-10.840,-7.115,-11.847,0.546,-0.367,0.753,9.828,-15.542,-12.748,-23.740,none
2.018281,-0.354,-0.345,-0.869,2431.57,-3.581,21.934,25.515,0.529,-0.068,0.846,0.112,0.016,-0.994,2456.75,-23.836,6.938,30.103,0.199,-0.046,0.979,-0.503,-0.670,-0.546,2686.46,3.021,-53.491,51.141,0.796,0.525,0.302,-0.204,0.459,-0.865,2566.62,-11.862,-11.862,15.443,0.287,-0.703,0.651,7.606,-1.369,8.758,11.681,-12.122,-0.702,-13.008,0.613,-0.368,0.699,10.273,-14.412,-8.672,-31.053,none
2.039095,-0.388,-0.262,-0.883,2340.04,0.112,36.369,29.207,0.513,-0.068,0.856,0.114,0.094,-0.989,2406.38,-23.276,10.519,37.488,0.221,-0.122,0.968,-0.510,-0.637,-0.578,2705.28,18.576,-54.386,56.736,0.823,0.514,0.244,-0.198,0.473,-0.859,2596.07,-7.498,-11.750,16.338,0.302,-0.689,0.659,7.614,-1.353,8.535,11.517,-14.382,8.809,-9.282,0.628,-0.354,0.693,10.495,-12.473,0.427,-29.649,none
2.063082,-0.366,-0.216,-0.905,2433.30,7.945,42.077,27.305,0.526,-0.048,0.849,0.150,0.135,-0.979,2621.77,-21.262,15.331,40.286,0.204,-0.076,0.976,-0.603,-0.586,-0.542,2288.58,26.074,-41.853,66.472,0.832,0.483,0.275,-0.175,0.503,-0.846,2655.03,-5.483,-12.422,15.555,0.271,-0.696,0.665,7.700,-1.329,8.207,11.332,-14.412,9.863,-8.580,0.648,-0.356,0.673,10.484,-0.870,-2.763,-37.557,none
2.084162,-0.364,-0.189,-0.912,2362.93,2.798,54.162,20.814,0.497,-0.083,0.864,0.150,0.173,-0.974,2555.64,-19.584,15.107,40.846,0.178,-0.077,0.981,-0.608,-0.572,-0.551,2533.15,45.210,-28.648,58.974,0.848,0.467,0.252,-0.174,0.542,-0.822,2611.94,-2.126,-15.331,16.114,0.298,-0.708,0.640,7.506,-1.360,7.695,10.835,-16.244,3.237,-7.282,0.660,-0.314,0.683,10.730,-3.084,-0.641,-36.580,none
2.104714,-0.222,-0.204,-0.953,2721.78,10.407,52.036,23.612,0.450,-0.067,0.891,0.159,0.184,-0.970,2655.93,-21.598,12.869,39.615,0.140,-0.096,0.985,-0.686,-0.499,-0.529,2213.54,41.181,-11.638,62.555,0.856,0.473,0.210,-0.201,0.573,-0.795,2605.28,-1.231,-25.850,15.891,0.315,-0.693,0.648,8.543,-1.626,7.659,11.588,-12.458,0.718,-6.168,0.725,-0.321,0.609,10.943,-9.374,-6.611,-32.702,none
2.125752,-0.209,-0.107,-0.972,2800.48,-1.119,28.200,28.984,0.473,-0.110,0.874,0.206,0.269,-0.941,2949.91,-21.374,-3.581,36.593,0.155,-0.140,0.978,-0.600,-0.468,-0.649,2318.86,53.379,1.343,47.448,0.852,0.440,0.284,-0.195,0.568,-0.799,2627.21,5.260,-26.186,12.422,0.286,-0.707,0.647,9.201,-1.492,8.475,12.598,-6.687,16.672,8.489,0.749,-0.329,0.575,11.261,-0.046,6.763,-26.763,none
2.146852,-0.273,-0.006,-0.962,2577.07,15.667,31.334,13.876,0.434,-0.115,0.893,0.071,0.313,-0.947,2348.25,0.224,-2.350,34.467,0.147,-0.141,0.979,-0.680,-0.512,-0.525,2119.55,63.898,8.169,36.034,0.859,0.435,0.269,-0.266,0.545,-0.795,2629.27,20.703,-23.724,4.364,0.297,-0.701,0.648,7.855,-1.784,8.052,11.389,-4.092,41.740,15.130,0.706,-0.385,0.594,10.039,15.344,31.466,-23.115,none
2.167342,-0.318,-0.127,-0.939,2366.17,35.474,34.355,1.455,0.414,-0.104,0.904,0.050,0.169,-0.984,2150.61,20.591,15.443,34.915,0.134,-0.144,0.980,-0.660,-0.572,-0.487,2344.37,72.179,26.522,17.457,0.859,0.462,0.222,-0.252,0.491,-0.834,2542.78,36.257,-14.660,4.924,0.288,-0.700,0.653,5.952,-2.054,6.807,9.272,-3.145,36.183,11.282,0.627,-0.349,0.696,9.346,22.763,25.405,-22.809,none
2.187199,-0.231,-0.306,-0.923,2450.62,35.698,34.803,-3.917,0.418,-0.090,0.904,0.132,0.127,-0.983,2231.89,14.324,36.369,30.998,0.119,-0.157,0.980,-0.519,-0.572,-0.635,2908.22,62.667,57.072,10.967,0.861,0.445,0.246,-0.247,0.477,-0.843,2430.91,27.753,-8.952,6.155,0.304,-0.675,0.672,5.782,-2.109,6.687,9.088,3.069,14.519,1.969,0.609,-0.290,0.739,9.717,10.962,8.504,-17.053,none
2.209056,-0.235,-0.299,-0.925,2445.97,20.591,26.298,1.679,0.415,-0.052,0.908,0.208,0.121,-0.971,2595.30,-0.895,36.257,23.948,0.104,-0.168,0.980,-0.605,-0.534,-0.591,2380.90,39.391,34.243,27.753,0.847,0.470,0.249,-0.256,0.466,-0.847,2422.63,9.512,-14.995,1.790,0.310,-0.667,0.677,6.615,-2.100,7.566,10.267,12.931,6.580,-3.450,0.649,-0.349,0.676,9.556,8.977,2.565,-17.847,none
2.230956,-0.286,-0.213,-0.934,2325.69,9.960,19.695,5.931,0.425,-0.078,0.902,0.169,0.153,-0.974,2434.14,-2.350,26.969,22.045,0.093,-0.166,0.982,-0.648,-0.490,-0.583,2192.68,31.669,28.760,5.036,0.843,0.466,0.267,-0.272,0.490,-0.828,2465.84,6.155,-14.548,1.231,0.328,-0.687,0.649,7.149,-1.776,8.317,11.111,12.611,13.573,-3.740,0.668,-0.308,0.678,10.278,9.115,7.435,-12.947,none
2.251441,-0.243,-0.206,-0.948,2457.67,13.205,23.388,-0.783,0.415,-0.069,0.907,0.178,0.193,-0.965,2488.08,-1.007,27.641,19.695,0.053,-0.158,0.986,-0.647,-0.589,-0.485,2275.09,39.391,29.543,-10.407,0.829,0.494,0.261,-0.261,0.482,-0.836,2524.96,16.338,-6.714,2.686,0.320,-0.680,0.659,7.125,-1.686,8.279,11.052,9.756,15.344,-4.489,0.646,-0.309,0.698,9.772,17.115,9.695,-16.183,none
2.275620,-0.242,-0.263,-0.934,2295.80,18.576,26.522,-4.476,0.408,-0.083,0.909,0.179,0.139,-0.974,2194.00,6.491,30.662,18.129,0.052,-0.126,0.991,-0.603,-0.618,-0.504,2341.45,50.358,47.560,-17.905,0.835,0.479,0.270,-0.234,0.478,-0.847,2527.96,25.291,-7.945,6.602,0.309,-0.691,0.654,6.685,-1.480,8.212,10.692,8.244,22.931,-1.740,0.646,-0.266,0.715,9.678,17.542,13.481,-15.374,none
2.291144,-0.165,-0.249,-0.954,2421.89,19.248,32.900,-7.274,0.379,-0.053,0.924,0.215,0.114,-0.970,2241.13,4.141,49.350,19.472,0.015,-0.186,0.982,-0.559,-0.657,-0.506,2488.46,50.358,62.220,-16.338,0.844,0.462,0.274,-0.244,0.444,-0.862,2346.38,25.738,-6.379,6.602,0.324,-0.669,0.669,6.038,-1.642,7.920,10.094,7.206,19.130,0.290,0.601,-0.227,0.766,9.879,14.489,11.588,-11.664,none
2.313508,-0.133,-0.333,-0.933,2485.80,27.865,24.619,-5.371,0.375,-0.044,0.926,0.313,0.103,-0.944,2667.58,6.267,39.727,16.450,0.006,-0.160,0.987,-0.520,-0.657,-0.545,2543.04,39.055,69.829,-8.057,0.820,0.499,0.281,-0.245,0.403,-0.882,2369.76,17.681,-9.064,4.700,0.328,-0.672,0.664,5.279,-1.650,8.167,9.863,7.527,9.069,-1.908,0.532,-0.270,0.802,9.130,11.145,3.863,-10.840,none
2.331911,-0.201,-0.447,-0.872,2380.83,10.407,16.898,-5.819,0.355,-0.045,0.934,0.279,0.030,-0.960,2564.23,1.231,27.529,9.400,-0.004,-0.160,0.987,-0.470,-0.665,-0.581,2810.79,26.969,63.115,-2.350,0.801,0.505,0.322,-0.277,0.398,-0.875,2447.78,8.505,-9.512,3.917,0.326,-0.658,0.678,5.571,-1.824,8.282,10.147,7.557,4.718,-9.267,0.532,-0.313,0.787,8.672,14.443,-3.496,-18.534,none
2.353942,-0.245,-0.409,-0.879,2148.71,-2.014,26.522,-4.029,0.349,-0.019,0.937,0.242,-0.009,-0.970,2150.90,-6.043,26.634,10.855,-0.012,-0.146,0.989,-0.516,-0.681,-0.519,2598.94,17.681,44.650,4.924,0.799,0.506,0.324,-0.264,0.389,-0.883,2502.40,0.783,-3.693,9.624,0.336,-0.683,0.649,5.655,-1.772,8.521,10.379,9.237,2.122,-14.198,0.542,-0.284,0.791,8.915,25.832,-10.321,-29.466,none
2.375640,-0.185,-0.396,-0.899,2317.29,-9.064,41.853,-6.602,0.324,-0.036,0.945,0.284,0.012,-0.959,2421.67,-20.255,45.210,13.764,-0.030,-0.184,0.982,-0.529,-0.685,-0.502,2629.57,9.624,35.474,10.295,0.781,0.513,0.355,-0.264,0.405,-0.875,2500.70,-8.505,-10.855,9.512,0.322,-0.661,0.678,5.722,-1.573,8.607,10.455,11.786,-2.550,-21.420,0.546,-0.195,0.815,9.892,30.962,-21.206,-39.511,none
2.396224,-0.114,-0.416,-0.902,2560.39,-9.064,48.791,-3.581,0.352,-0.051,0.935,0.324,0.019,-0.946,2602.16,-27.976,41.293,16.226,-0.048,-0.171,0.984,-0.556,-0.680,-0.478,2432.52,8.729,39.055,11.079,0.779,0.510,0.365,-0.235,0.442,-0.866,2515.41,-4.476,-10.072,16.674,0.322,-0.684,0.654,6.783,-1.259,9.024,11.359,10.015,-7.847,-24.443,0.605,-0.133,0.785,10.909,19.481,-21.847,-40.076,none
2.417901,-0.106,-0.283,-0.953,2477.05,-18.464,46.329,8.841,0.308,-0.026,0.951,0.349,0.107,-0.931,2556.74,-30.886,32.788,21.150,-0.086,-0.222,0.971,-0.531,-0.674,-0.513,2395.50,17.122,47.336,13.541,0.798,0.503,0.331,-0.237,0.449,-0.862,2540.18,2.462,-13.988,21.710,0.327,-0.679,0.658,6.531,-1.396,8.633,10.915,7.771,-2.748,-20.626,0.648,-0.242,0.723,8.963,25.267,-12.656,-46.076,none
2.438376,-0.212,-0.270,-0.939,2021.70,-15.107,52.036,5.819,0.287,-0.051,0.957,0.310,0.117,-0.943,2181.45,-30.103,33.907,23.612,-0.084,-0.220,0.972,-0.494,-0.665,-0.561,2560.59,20.814,54.051,13.317,0.762,0.518,0.388,-0.285,0.420,-0.862,2483.55,2.014,-20.367,23.165,0.338,-0.684,0.646,5.942,-1.719,7.513,9.732,10.656,-1.542,-27.542,0.623,-0.175,0.762,9.223,39.588,-22.687,-54.931,none
2.458620,-0.088,-0.325,-0.941,2308.06,-14.436,67.255,-3.469,0.291,-0.057,0.955,0.358,0.146,-0.922,2357.17,-41.629,52.148,20.479,-0.099,-0.288,0.953,-0.442,-0.657,-0.611,2639.06,8.952,45.658,13.764,0.735,0.504,0.453,-0.274,0.427,-0.861,2370.32,-4.812,-9.624,24.619,0.328,-0.677,0.659,6.199,-1.233,8.097,10.272,15.527,-7.588,-26.824,0.645,-0.060,0.762,10.977,26.336,-22.305,-46.489,none
2.478283,0.032,-0.280,-0.959,2817.55,-14.212,58.415,4.364,0.258,-0.063,0.964,0.397,0.185,-0.899,2595.03,-35.250,45.658,19.248,-0.128,-0.326,0.937,-0.480,-0.648,-0.592,2326.51,6.267,37.824,14.772,0.761,0.499,0.415,-0.244,0.446,-0.861,2381.60,-7.050,-6.714,23.836,0.336,-0.692,0.639,6.340,-0.960,8.612,10.737,11.115,-9.053,-29.282,0.636,-0.116,0.763,9.608,15.664,-19.389,-40.519,none
2.500221,-0.104,-0.323,-0.941,2144.03,-20.479,37.600,7.386,0.248,-0.058,0.967,0.396,0.150,-0.906,2553.04,-28.984,37.488,17.345,-0.131,-0.299,0.945,-0.482,-0.659,-0.577,2436.45,4.141,40.958,8.841,0.737,0.518,0.434,-0.264,0.437,-0.860,2498.82,-7.162,-6.826,25.515,0.331,-0.677,0.657,6.333,-1.326,7.882,10.197,13.298,-5.206,-35.496,0.640,-0.109,0.761,9.368,21.252,-23.710,-48.260,none
2.519968,-0.038,-0.285,-0.958,2288.81,-22.381,53.043,4.476,0.204,-0.095,0.974,0.401,0.105,-0.910,2325.10,-36.817,35.586,14.660,-0.168,-0.282,0.945,-0.493,-0.682,-0.540,2366.51,5.931,43.084,8.169,0.738,0.526,0.422,-0.255,0.442,-0.860,2511.02,-2.238,-1.343,30.550,0.314,-0.676,0.667,6.021,-1.159,7.848,9.960,23.496,-5.588,-38.489,0.659,-0.078,0.748,9.850,18.733,-19.802,-48.366,none
2.541882,-0.019,-0.280,-0.960,2367.21,-19.695,54.722,6.714,0.187,-0.089,0.978,0.391,0.163,-0.906,2336.92,-38.943,39.950,20.479,-0.192,-0.311,0.931,-0.506,-0.658,-0.557,2243.77,8.952,53.491,2.910,0.733,0.495,0.467,-0.276,0.458,-0.845,2426.05,-1.567,-0.671,34.467,0.297,-0.692,0.658,5.935,-0.783,8.080,10.057,25.573,-4.641,-48.855,0.636,-0.092,0.766,8.785,19.160,-19.847,-54.137,none
2.561199,-0.044,-0.345,-0.938,2150.91,-20.479,54.610,7.945,0.169,-0.072,0.983,0.388,0.162,-0.907,2247.54,-39.279,42.972,21.374,-0.225,-0.362,0.904,-0.448,-0.665,-0.597,2471.85,0.448,64.682,-4.924,0.700,0.488,0.522,-0.261,0.434,-0.862,2378.50,-5.260,5.707,41.741,0.296,-0.725,0.622,5.684,-0.888,7.312,9.304,32.931,-7.954,-51.908,0.617,-0.039,0.786,9.035,21.145,-27.099,-61.053,none
2.582477,0.010,-0.347,-0.938,2222.16,-30.103,65.465,11.302,0.137,-0.117,0.984,0.443,0.102,-0.891,2410.89,-46.553,46.889,19.919,-0.249,-0.390,0.887,-0.450,-0.668,-0.593,2372.17,-6.267,65.577,-1.231,0.684,0.526,0.506,-0.251,0.460,-0.852,2350.71,-8.169,10.295,48.231,0.296,-0.742,0.601,5.557,-0.484,7.381,9.252,45.939,-14.153,-64.641,0.637,0.025,0.770,9.477,15.924,-34.656,-65.527,none
2.603873,0.112,-0.287,-0.951,2480.58,-36.705,62.332,20.031,0.123,-0.128,0.984,0.484,0.160,-0.860,2574.58,-55.393,38.160,22.493,-0.237,-0.381,0.894,-0.450,-0.665,-0.596,2326.41,-10.631,68.934,0.448,0.699,0.507,0.504,-0.179,0.515,-0.838,2364.66,-16.003,13.541,56.848,0.265,-0.722,0.639,6.642,0.682,8.878,11.108,59.725,-13.527,-74.580,0.594,0.065,0.802,9.474,17.389,-26.641,-86.183,none
2.624475,0.064,-0.368,-0.928,2173.44,-35.810,63.898,30.215,0.089,-0.125,0.988,0.471,0.044,-0.881,2436.16,-48.120,23.388,42.748,-0.254,-0.428,0.867,-0.495,-0.684,-0.535,2372.95,14.212,67.703,12.533,0.671,0.515,0.534,-0.202,0.497,-0.844,2489.11,-1.902,2.350,68.822,0.249,-0.712,0.657,5.440,0.982,8.978,10.543,56.305,0.550,-88.000,0.540,0.034,0.841,8.086,21.130,-17.954,-114.076,none
2.646232,-0.014,-0.549,-0.835,1883.99,-33.348,84.153,42.860,0.042,-0.137,0.990,0.392,-0.114,-0.913,1804.13,-61.548,32.117,62.220,-0.296,-0.468,0.832,-0.566,-0.695,-0.444,2110.28,20.703,77.998,14.772,0.660,0.517,0.545,-0.274,0.466,-0.842,2553.53,12.645,-1.119,91.763,0.240,-0.725,0.645,4.290,0.553,7.321,8.504,52.168,6.779,-118.885,0.494,0.074,0.866,6.800,34.626,-33.481,-146.870,none
2.667319,0.008,-0.568,-0.823,1425.54,-50.917,142.680,52.372,0.008,-0.165,0.986,0.533,0.000,-0.846,1747.31,-83.146,57.072,77.775,-0.339,-0.507,0.792,-0.346,-0.711,-0.612,2602.30,14.660,110.899,3.469,0.653,0.547,0.523,-0.231,0.460,-0.857,2392.39,18.353,23.836,129.811,0.214,-0.728,0.651,5.080,1.824,7.913,9.579,57.649,-8.183,-144.290,0.599,0.254,0.759,9.621,29.298,-43.817,-163.206,none
2.687763,0.350,-0.297,-0.888,2525.52,-53.267,164.278,69.382,-0.087,-0.180,0.980,0.629,0.171,-0.759,1949.72,-103.849,84.825,89.860,-0.370,-0.500,0.783,-0.270,-0.657,-0.704,2933.62,6.491,98.589,28.760,0.619,0.508,0.598,-0.096,0.450,-0.888,2378.10,15.667,35.027,135.742,0.169,-0.758,0.630,5.962,2.138,7.379,9.724,57.298,-25.466,-148.748,0.725,0.294,0.623,7.751,36.260,-61.924,-168.779,none
2.708440,0.402,-0.150,-0.903,2253.72,-78.782,155.325,68.934,-0.163,-0.214,0.963,0.697,0.241,-0.675,2393.97,-117.501,97.022,87.398,-0.449,-0.524,0.724,-0.292,-0.669,-0.684,2515.88,-0.336,80.460,38.719,0.571,0.505,0.647,-0.052,0.465,-0.884,2511.46,10.855,35.362,130.482,0.102,-0.751,0.653,6.924,2.545,6.800,10.033,72.366,-36.412,-149.344,0.803,0.374,0.465,7.855,71.649,-86.321,-181.008,none
2.730457,0.545,0.119,-0.830,1767.90,-100.156,197.066,38.943,-0.199,-0.247,0.948,0.715,0.360,-0.599,2370.74,-130.594,105.863,77.103,-0.477,-0.559,0.678,-0.248,-0.647,-0.721,2603.21,9.400,77.215,33.460,0.548,0.492,0.676,-0.042,0.475,-0.879,2646.73,8.057,3.021,126.454,0.071,-0.776,0.627,7.633,3.637,7.262,11.145,88.840,-35.588,-141.969,0.756,0.450,0.475,10.522,97.847,-94.229,-186.931,none
2.781180,0.601,0.072,-0.796,2519.12,-93.218,223.700,22.269,-0.329,-0.306,0.894,0.721,0.358,-0.593,2626.08,-134.399,110.003,71.955,-0.512,-0.606,0.609,-0.186,-0.621,-0.761,2568.93,7.498,70.836,27.081,0.567,0.491,0.661,0.014,0.504,-0.864,2498.16,4.588,13.653,123.432,0.082,-0.747,0.659,7.410,3.742,6.567,10.585,95.847,-43.191,-130.092,0.798,0.495,0.343,10.243,110.397,-98.275,-179.328,none
2.814476,0.714,0.292,-0.637,2904.69,-105.303,227.952,-23.500,-0.517,-0.399,0.758,0.792,0.420,-0.443,2985.16,-109.556,122.313,57.072,-0.638,-0.615,0.463,-0.200,-0.643,-0.739,2008.16,9.848,75.425,8.617,0.453,0.476,0.754,0.075,0.551,-0.831,2585.19,-4.029,-11.750,77.551,-0.023,-0.768,0.640,7.424,6.390,5.739,11.353,216.672,-6.351,-68.214,0.710,0.621,0.332,13.193,154.916,-69.740,-141.939,none
2.827466,0.718,0.266,-0.643,2924.33,-94.784,232.540,-31.893,-0.532,-0.400,0.747,0.801,0.410,-0.436,2987.86,-108.213,114.592,55.841,-0.653,-0.642,0.402,-0.368,-0.639,-0.675,2097.86,24.395,114.144,7.722,0.459,0.464,0.758,0.007,0.569,-0.822,2435.27,16.338,-11.526,67.143,-0.014,-0.765,0.644,6.649,7.087,5.849,11.342,216.076,-9.969,-62.519,0.671,0.651,0.353,13.421,142.473,-62.458,-126.229,none
2.852340,0.733,0.120,-0.670,3538.65,-81.691,205.571,-56.401,-0.608,-0.472,0.638,0.807,0.453,-0.380,2989.79,-84.489,94.560,29.543,-0.671,-0.658,0.341,-0.158,-0.644,-0.749,2598.84,12.198,51.253,2.462,0.388,0.494,0.779,0.091,0.528,-0.844,2568.58,8.169,-10.183,45.546,-0.055,-0.790,0.611,7.573,7.827,5.933,12.402,201.359,-33.847,-48.168,0.665,0.677,0.315,13.004,124.092,-65.817,-101.847,none
2.873916,0.761,0.135,-0.634,3301.85,-86.279,148.051,-45.434,-0.637,-0.509,0.578,0.806,0.419,-0.418,3042.77,-68.934,74.417,21.486,-0.729,-0.634,0.260,-0.149,-0.616,-0.773,2682.91,21.486,49.574,1.455,0.391,0.534,0.749,0.073,0.524,-0.849,2531.01,-1.790,-18.912,34.691,-0.066,-0.767,0.638,7.779,8.107,5.990,12.732,173.008,-18.015,-33.466,0.667,0.683,0.298,12.779,103.878,-59.145,-77.924,none
2.894667,0.774,0.230,-0.589,2955.98,-87.622,116.046,-41.965,-0.668,-0.522,0.530,0.798,0.445,-0.405,2973.36,-59.310,53.827,13.988,-0.705,-0.647,0.290,-0.190,-0.695,-0.694,2211.77,38.160,42.188,-11.526,0.346,0.506,0.790,0.056,0.528,-0.848,2570.51,-5.483,-20.031,25.291,-0.084,-0.794,0.602,6.958,8.509,5.816,12.435,147.221,-5.878,-25.115,0.639,0.728,0.248,11.645,79.511,-38.473,-65.511,none
2.914210,0.797,0.219,-0.563,2796.27,-80.908,94.896,-39.279,-0.681,-0.552,0.481,0.841,0.418,-0.343,2507.07,-47.112,47.448,11.750,-0.715,-0.673,0.192,-0.177,-0.678,-0.713,2207.83,44.539,50.581,-17.457,0.364,0.545,0.755,0.030,0.514,-0.857,2505.20,6.714,-20.367,20.814,-0.055,-0.801,0.596,6.419,9.143,7.037,13.203,103.847,-6.412,-17.542,0.583,0.731,0.354,11.902,64.550,-35.985,-50.565,none
2.937921,0.811,0.146,-0.567,2710.59,-63.115,67.927,-26.522,-0.679,-0.568,0.466,0.847,0.390,-0.362,2538.64,-40.622,47.112,12.645,-0.743,-0.645,0.177,-0.164,-0.719,-0.676,2328.43,36.593,49.462,-22.493,0.327,0.538,0.777,0.042,0.480,-0.876,2474.87,16.338,-12.310,25.403,-0.064,-0.771,0.634,6.098,8.241,5.531,11.648,39.176,-8.046,-16.260,0.624,0.736,0.265,11.461,32.641,-30.641,-33.344,none
2.956898,0.815,0.293,-0.499,2624.82,-44.427,46.665,-10.855,-0.680,-0.586,0.441,0.840,0.443,-0.312,2567.67,-39.167,38.943,11.079,-0.755,-0.631,0.177,-0.161,-0.800,-0.578,2434.59,54.834,46.105,-19.248,0.300,0.564,0.769,0.030,0.489,-0.872,2511.07,12.086,-11.414,23.836,-0.064,-0.740,0.670,6.462,7.300,4.120,10.584,21.634,-8.870,-14.504,0.615,0.764,0.195,10.625,20.672,-20.382,-23.435,none
2.978353,0.834,0.272,-0.481,2542.67,-32.565,45.769,-12.869,-0.694,-0.566,0.445,0.852,0.411,-0.324,2509.10,-26.186,33.012,8.617,-0.715,-0.681,0.160,-0.071,-0.752,-0.655,1924.27,79.117,48.791,-23.836,0.289,0.609,0.738,0.015,0.489,-0.872,2454.13,14.548,-13.317,20.143,-0.065,-0.753,0.655,5.741,7.013,3.996,9.905,17.023,-2.473,-12.992,0.580,0.784,0.221,9.796,16.122,-12.992,-21.191,none
2.997892,0.848,0.197,-0.492,2305.43,-25.067,35.138,-11.302,-0.691,-0.606,0.394,0.866,0.366,-0.340,2276.01,-18.017,26.074,8.281,-0.738,-0.654,0.167,0.005,-0.702,-0.712,2047.15,76.991,56.512,-50.134,0.269,0.622,0.735,-0.014,0.473,-0.881,2307.46,19.136,-13.317,15.667,-0.104,-0.749,0.655,4.314,7.764,4.056,9.765,12.794,-6.641,-24.183,0.464,0.852,0.242,9.457,10.458,-14.336,-27.847,none
3.017907,0.927,0.125,-0.354,2149.31,-17.681,30.550,3.693,-0.680,-0.595,0.428,0.919,0.284,-0.274,2103.13,-13.876,23.500,15.891,-0.747,-0.648,0.146,-0.077,-0.912,-0.403,2274.42,106.646,48.008,-67.367,0.260,0.648,0.716,0.028,0.469,-0.883,2368.75,31.557,-11.750,26.634,-0.070,-0.730,0.679,4.705,7.654,3.735,9.730,4.321,-12.000,-35.649,0.449,0.867,0.217,9.395,0.046,-20.855,-34.427,none
3.037962,0.939,0.106,-0.328,2082.53,-25.962,33.348,11.638,-0.708,-0.588,0.390,0.932,0.249,-0.262,2084.43,-24.395,27.641,23.388,-0.755,-0.644,0.127,0.067,-0.825,-0.560,2230.24,110.227,76.096,-59.646,0.185,0.714,0.675,-0.001,0.422,-0.906,2351.00,40.846,-6.379,37.824,-0.094,-0.741,0.665,4.199,7.523,3.512,9.304,0.183,-20.443,-44.229,0.463,0.868,0.179,9.222,-6.168,-34.336,-40.321,none
3.059185,0.912,0.234,-0.338,2283.49,-41.741,38.943,16.674,-0.709,-0.590,0.385,0.933,0.274,-0.232,2185.70,-36.817,31.669,30.998,-0.801,-0.587,0.119,0.087,-0.747,-0.659,2832.61,89.637,75.984,-66.248,0.136,0.685,0.716,0.060,0.404,-0.913,2408.04,39.838,8.505,48.231,-0.104,-0.720,0.686,4.911,7.796,3.038,9.701,1.405,-33.069,-51.542,0.470,0.876,0.107,9.601,-2.137,-40.840,-44.122,none
3.079510,0.923,0.240,-0.300,2341.17,-40.846,39.615,17.793,-0.730,-0.583,0.357,0.929,0.310,-0.204,2345.25,-41.181,34.691,29.991,-0.782,-0.614,0.105,0.115,-0.832,-0.542,2576.04,63.563,75.089,-65.353,0.085,0.733,0.675,0.062,0.404,-0.913,2483.75,35.698,15.891,52.036,-0.125,-0.721,0.681,4.985,8.035,3.455,10.067,3.298,-37.023,-53.878,0.472,0.872,0.129,9.790,0.015,-50.015,-48.229,none
3.098296,0.929,0.208,-0.306,2326.39,-48.008,42.748,18.800,-0.748,-0.597,0.290,0.935,0.290,-0.205,2331.19,-45.769,36.817,30.886,-0.789,-0.613,0.045,0.180,-0.820,-0.543,2517.29,30.886,80.460,-62.555,0.044,0.788,0.614,0.068,0.402,-0.913,2419.36,34.467,24.060,58.079,-0.138,-0.692,0.709,4.709,8.018,3.179,9.827,-0.702,-41.374,-60.840,0.471,0.876,0.102,9.722,-1.359,-54.855,-51.908,none
3.118324,0.915,0.290,-0.282,2317.55,-52.931,43.979,22.045,-0.735,-0.605,0.307,0.928,0.344,-0.146,2338.36,-45.434,35.586,34.131,-0.826,-0.562,0.046,0.210,-0.764,-0.610,2627.02,21.374,81.579,-64.010,0.035,0.809,0.587,0.079,0.384,-0.920,2432.75,30.103,39.950,63.563,-0.136,-0.674,0.726,5.164,7.793,2.749,9.745,2.336,-50.626,-63.206,0.514,0.858,0.028,10.017,1.160,-59.618,-52.458,none
3.137195,0.903,0.358,-0.238,2502.34,-52.596,45.658,19.360,-0.745,-0.600,0.292,0.920,0.376,-0.112,2526.95,-45.881,39.279,30.886,-0.804,-0.594,0.036,0.254,-0.791,-0.557,2401.53,5.707,72.403,-71.844,0.000,0.796,0.605,0.093,0.405,-0.910,2599.71,12.198,57.743,67.032,-0.162,-0.661,0.732,6.055,8.622,2.670,10.868,8.901,-47.664,-62.626,0.492,0.870,0.022,10.939,6.122,-52.504,-52.092,none
3.157732,0.925,0.313,-0.216,2610.70,-47.896,47.560,17.905,-0.761,-0.595,0.259,0.935,0.348,-0.071,2592.06,-44.091,40.510,28.648,-0.807,-0.590,0.002,0.280,-0.793,-0.541,2456.73,3.245,73.075,-81.691,-0.047,0.773,0.633,0.235,0.470,-0.851,2572.82,13.876,29.655,55.729,-0.202,-0.661,0.722,6.352,9.112,3.531,11.656,7.863,-32.412,-57.985,0.498,0.863,0.085,11.321,-0.290,-44.153,-55.176,none
3.183896,0.916,0.288,-0.278,2668.32,-40.622,45.993,25.515,-0.753,-0.601,0.269,0.924,0.361,-0.126,2717.07,-33.684,33.012,36.817,-0.832,-0.554,0.004,0.297,-0.761,-0.577,2677.11,7.498,74.417,-82.363,-0.078,0.769,0.635,0.168,0.409,-0.897,2549.54,9.848,28.648,47.000,-0.182,-0.681,0.709,5.638,8.219,2.775,10.346,1.252,-24.534,-51.832,0.672,0.741,0.006,12.318,6.168,3.603,-9.084,none
3.200089,0.881,0.399,-0.254,2687.10,-35.362,37.824,26.857,-0.762,-0.615,0.204,0.888,0.456,-0.057,2728.55,-28.648,24.843,30.662,-0.850,-0.527,0.004,0.287,-0.738,-0.611,2944.89,-2.126,41.517,-76.096,-0.208,0.727,0.655,0.206,0.347,-0.915,2606.84,16.674,34.467,42.524,-0.224,-0.671,0.707,10.836,9.313,3.852,14.799,-2.794,-38.168,1.695,0.566,0.823,0.046,12.473,-1.008,-19.954,-8.870,none
3.225429,0.938,0.214,-0.274,2993.96,7.162,34.131,6.714,-0.777,-0.563,0.281,0.906,0.412,-0.094,2997.90,-9.176,32.676,15.667,-0.839,-0.543,-0.028,0.248,-0.763,-0.597,3129.56,-9.288,18.800,-68.263,-0.229,0.758,0.611,0.281,0.415,-0.866,2890.56,16.338,9.512,24.395,-0.245,-0.645,0.724,5.863,9.828,2.873,11.799,-0.947,15.313,12.107,0.497,0.867,0.046,12.635,10.168,-15.908,-0.107,none
3.243871,0.910,0.265,-0.318,3385.11,26.969,23.836,20.031,-0.780,-0.589,0.214,0.898,0.411,-0.154,3503.69,-3.245,25.067,22.157,-0.837,-0.545,-0.051,0.066,-0.862,-0.503,3011.39,-14.212,-2.350,-49.127,-0.225,0.787,0.574,0.250,0.314,-0.916,2849.82,24.060,8.841,6.267,-0.256,-0.638,0.726,5.361,8.296,3.086,10.348,3.206,6.183,4.855,0.505,0.862,0.053,10.820,-0.183,-13.664,4.992,none
3.262461,0.903,0.261,-0.342,2457.09,-4.812,-3.581,2.798,-0.807,-0.553,0.207,0.883,0.372,-0.285,2953.21,-23.388,-13.093,-5.036,-0.865,-0.502,-0.008,0.200,-0.804,-0.560,3301.27,-3.917,-13.988,-6.938,-0.219,0.735,0.641,0.161,0.562,-0.811,2481.41,-5.371,-38.719,-10.407,-0.262,-0.661,0.703,5.143,8.138,3.065,10.103,2.931,2.412,-12.626,0.467,0.883,0.044,10.025,-5.832,-28.534,-11.969,none
3.282783,0.934,0.289,-0.209,2418.49,-28.648,-15.667,5.931,-0.800,-0.563,0.208,0.911,0.359,0.203,2184.26,6.379,-30.886,7.722,-0.857,-0.514,-0.018,0.481,-0.735,-0.478,1958.59,6.602,-20.926,-8.169,-0.172,0.748,0.641,0.162,0.289,-0.944,2590.96,14.548,2.014,0.783,-0.253,-0.649,0.718,5.011,8.351,3.340,10.296,2.977,2.122,-15.298,0.458,0.887,0.061,10.081,-6.763,-18.000,-23.588,none
3.304479,0.955,0.241,-0.175,2333.97,19.024,8.057,11.414,-0.794,-0.566,0.221,0.954,0.275,-0.116,2600.80,12.757,7.274,8.617,-0.858,-0.511,-0.052,0.286,-0.827,-0.484,2783.04,2.686,-6.155,-29.767,-0.227,0.740,0.633,0.204,0.303,-0.931,2529.21,-6.379,23.836,13.205,-0.256,-0.643,0.721,4.571,8.531,3.290,10.222,-0.565,-0.718,-6.046,0.451,0.891,0.063,10.687,-4.504,-34.885,-17.145,none
3.326560,0.938,0.207,-0.279,2868.68,16.562,-2.686,4.924,-0.771,-0.581,0.261,0.948,0.270,-0.165,3010.25,13.988,4.924,4.141,-0.882,-0.469,-0.043,0.286,-0.855,-0.432,2918.02,-4.812,-13.093,-13.988,-0.261,0.765,0.588,0.246,0.327,-0.912,2614.52,-22.157,-16.562,5.819,-0.274,-0.632,0.725,4.949,8.856,3.359,10.687,2.076,-6.672,3.130,0.445,0.893,0.060,10.818,-4.366,-30.641,0.061,none
3.344222,0.951,0.201,-0.234,2661.87,-5.036,-16.114,-10.855,-0.785,-0.575,0.230,0.958,0.258,-0.127,2694.98,-1.343,-17.010,-14.995,-0.869,-0.494,0.004,0.309,-0.853,-0.420,2766.02,-2.126,-14.100,5.819,-0.282,0.738,0.613,0.207,0.361,-0.909,2588.83,-5.707,-18.800,-12.198,-0.262,-0.652,0.711,4.796,8.712,3.601,10.577,3.786,-5.618,4.092,0.385,0.913,0.138,10.831,-25.893,23.832,19.359,none
3.367298,0.941,0.254,-0.222,2409.49,-0.336,-17.793,-7.833,-0.774,-0.594,0.220,0.955,0.289,-0.063,2310.14,4.364,-13.093,-9.960,-0.839,-0.545,-0.008,0.390,-0.789,-0.474,2242.51,1.679,-11.191,13.541,-0.231,0.740,0.632,0.200,0.320,-0.926,2490.88,5.595,-0.560,-18.353,-0.235,-0.652,0.721,5.025,8.746,3.900,10.815,-7.557,-0.809,0.519,0.411,0.911,-0.025,9.328,-27.359,7.084,8.198,none
3.388176,0.961,0.206,-0.185,2259.25,14.324,-9.624,2.350,-0.781,-0.565,0.266,0.961,0.260,-0.095,2257.45,11.750,-9.848,-3.245,-0.867,-0.498,0.015,0.339,-0.803,-0.490,2350.59,8.169,-5.931,6.043,-0.256,0.755,0.603,0.175,0.366,-0.914,2393.43,3.357,6.155,-6.379,-0.234,-0.648,0.725,4.463,7.666,2.162,9.130,-6.092,7.328,-0.122,0.432,0.902,-0.008,9.299,-10.870,2.641,-2.611,none
3.408436,0.954,0.255,-0.157,2171.31,0.000,0.671,-0.224,-0.778,-0.578,0.247,0.954,0.297,-0.031,2180.29,2.238,0.000,3.469,-0.850,-0.526,0.036,0.363,-0.770,-0.525,2325.72,7.610,-1.343,6.155,-0.252,0.731,0.634,0.205,0.391,-0.897,2386.29,6.379,3.805,-3.693,-0.226,-0.649,0.726,4.592,7.913,2.727,9.547,6.779,2.534,-8.336,0.456,0.889,0.035,9.513,-10.260,4.382,-9.115,none
3.428094,0.933,0.289,-0.212,2250.67,0.783,7.833,4.252,-0.778,-0.594,0.207,0.927,0.372,-0.051,2264.00,1.790,1.790,7.274,-0.838,-0.545,0.037,0.416,-0.724,-0.551,2217.84,9.736,1.119,-1.679,-0.201,0.771,0.604,0.169,0.396,-0.903,2359.76,3.245,-2.014,-2.910,-0.258,-0.656,0.709,4.820,7.570,2.641,9.355,10.794,4.031,-10.718,0.476,0.879,0.040,9.549,-8.626,9.115,-12.214,none
3.447493,0.935,0.293,-0.202,2258.78,4.141,10.519,5.036,-0.808,-0.551,0.210,0.944,0.323,-0.064,2274.90,8.952,9.400,6.602,-0.860,-0.510,-0.008,0.360,-0.767,-0.531,2425.90,8.281,-1.343,-20.255,-0.183,0.756,0.628,0.163,0.262,-0.951,2331.53,0.112,23.612,9.064,-0.275,-0.658,0.701,4.650,7.956,2.959,9.678,21.298,6.870,-8.840,0.484,0.872,0.071,9.921,-8.656,16.550,-11.023,none
3.467918,0.947,0.242,-0.210,2363.05,9.512,16.226,1.007,-0.799,-0.553,0.238,0.955,0.278,-0.105,2402.36,11.526,16.674,3.917,-0.869,-0.495,0.014,0.322,-0.844,-0.428,2528.06,5.483,-5.819,-18.241,-0.204,0.755,0.623,0.151,0.160,-0.975,2523.86,-5.707,31.334,18.464,-0.263,-0.670,0.694,4.482,10.171,5.042,12.205,5.130,8.947,-9.389,0.330,0.928,0.173,10.871,-14.748,3.237,-16.183,none
3.488331,0.977,0.039,-0.208,2631.29,16.003,15.891,4.588,-0.766,-0.580,0.277,0.975,0.133,-0.180,2657.47,9.512,16.114,6.267,-0.848,-0.529,0.014,0.327,-0.849,-0.415,2491.31,1.679,-2.014,-11.526,-0.256,0.769,0.586,0.233,0.335,-0.913,2644.56,6.267,1.231,2.686,-0.262,-0.643,0.720,4.760,8.669,3.381,10.452,1.634,11.710,-8.046,0.432,0.896,0.104,10.682,-9.985,1.786,-8.779,none
3.509717,0.926,0.266,-0.267,2777.29,2.574,5.483,16.114,-0.767,-0.585,0.265,0.930,0.328,-0.165,2898.66,2.798,3.469,17.457,-0.867,-0.499,-0.018,0.312,-0.825,-0.471,2799.95,4.476,1.790,-6.602,-0.278,0.743,0.608,0.263,0.462,-0.847,2340.74,-13.317,-14.772,-1.902,-0.240,-0.656,0.715,4.834,8.717,3.450,10.548,4.275,2.931,-4.198,0.433,0.896,0.102,10.607,-8.214,-2.718,-3.664,none
3.531406,0.950,0.229,-0.214,2594.41,0.895,-3.245,-0.783,-0.796,-0.569,0.207,0.958,0.266,-0.108,2621.00,2.350,-3.133,-2.910,-0.862,-0.506,0.036,0.292,-0.814,-0.501,2787.24,-6.714,-6.826,10.631,-0.257,0.720,0.645,0.221,0.407,-0.887,2612.18,18.129,6.491,-13.429,-0.270,-0.659,0.702,4.927,8.557,3.304,10.412,5.771,-1.145,-1.740,0.435,0.895,0.098,10.408,-7.573,-3.344,-0.061,none
3.551845,0.945,0.226,-0.235,2491.97,-0.671,-3.021,-2.798,-0.793,-0.565,0.230,0.947,0.292,-0.136,2518.06,-1.007,-3.245,-2.462,-0.862,-0.507,-0.031,0.354,-0.795,-0.493,2414.97,-7.274,-5.819,16.898,-0.273,0.751,0.601,0.227,0.398,-0.889,2495.18,21.150,0.783,-17.345,-0.261,-0.657,0.707,4.896,8.298,3.187,10.148,10.779,-0.275,1.160,0.459,0.886,0.068,9.948,-6.885,-3.160,0.214,none
3.573416,0.942,0.250,-0.223,2407.92,0.112,-4.252,-0.448,-0.787,-0.562,0.255,0.954,0.291,-0.074,2354.94,2.014,-6.826,-1.455,-0.870,-0.490,-0.052,0.372,-0.777,-0.508,2404.84,-5.931,-6.602,12.086,-0.220,0.795,0.565,0.215,0.339,-0.916,2410.06,8.057,0.895,-6.379,-0.260,-0.638,0.725,4.618,8.080,3.318,9.881,9.282,4.153,2.015,0.426,0.901,0.085,9.582,-0.611,1.618,3.206,none
3.597376,0.960,0.203,-0.191,2187.91,5.148,-0.671,-1.790,-0.787,-0.560,0.259,0.954,0.291,-0.076,2292.18,8.281,-2.910,-0.336,-0.856,-0.516,0.024,0.350,-0.797,-0.491,2465.40,-4.812,-12.422,8.617,-0.190,0.773,0.605,0.192,0.271,-0.943,2288.76,10.855,22.045,-10.072,-0.267,-0.627,0.731,3.213,8.102,3.067,9.240,6.198,3.725,5.221,0.380,0.921,0.090,9.373,-0.565,-0.824,4.702,none
3.615510,0.984,0.137,-0.111,2253.31,8.393,3.469,-5.819,-0.785,-0.575,0.230,0.977,0.150,-0.149,2418.80,6.155,11.638,-5.707,-0.855,-0.519,0.004,0.404,-0.824,-0.397,2161.48,-15.331,-6.267,-1.567,-0.212,0.751,0.625,0.224,0.331,-0.917,2440.90,-10.407,6.938,-4.700,-0.285,-0.657,0.698,4.970,9.108,3.867,11.073,4.229,-2.305,5.099,0.403,0.908,0.114,10.551,-4.214,-0.275,0.656,none
3.636731,0.955,0.152,-0.255,2601.28,-0.224,9.400,-5.707,-0.770,-0.588,0.246,0.951,0.277,-0.141,2694.24,-2.462,7.498,-0.448,-0.855,-0.519,0.004,0.361,-0.806,-0.469,2392.19,-15.219,-3.693,-1.455,-0.184,0.767,0.615,0.243,0.381,-0.892,2608.49,-7.386,-5.483,-4.700,-0.267,-0.657,0.705,5.195,8.981,3.448,10.933,2.061,2.076,1.389,0.453,0.887,0.091,10.918,-8.443,2.427,-1.389,none
3.660280,0.926,0.291,-0.241,2672.50,3.245,0.000,1.790,-0.789,-0.555,0.265,0.929,0.354,-0.111,2713.88,6.155,-2.126,0.336,-0.846,-0.533,-0.019,0.327,-0.772,-0.546,2613.96,-5.260,0.112,-2.686,-0.155,0.778,0.608,0.192,0.388,-0.901,2634.80,-2.574,-20.591,-8.841,-0.244,-0.646,0.723,5.128,8.562,3.254,10.497,-1.191,5.008,-2.962,0.476,0.878,0.054,10.407,-10.580,8.779,2.611,none
3.681472,0.930,0.280,-0.238,2501.79,4.588,-2.910,-1.343,-0.787,-0.578,0.216,0.934,0.340,-0.109,2509.28,6.379,-2.350,-2.574,-0.857,-0.516,0.014,0.295,-0.780,-0.552,2599.53,-6.491,-13.205,5.483,-0.197,0.718,0.667,0.171,0.373,-0.912,2506.43,0.448,-4.141,-9.176,-0.281,-0.648,0.708,5.495,7.558,2.600,9.700,6.550,3.115,2.382,0.463,0.886,-0.000,9.583,3.496,-7.878,5.786,none
3.701603,0.928,0.307,-0.209,2378.06,2.686,-0.783,-10.072,-0.778,-0.578,0.245,0.931,0.356,-0.076,2423.44,5.707,-0.448,-7.274,-0.859,-0.512,0.004,0.332,-0.752,-0.570,2485.55,-10.295,-14.995,5.931,-0.218,0.749,0.625,0.214,0.370,-0.904,2420.75,9.176,-2.462,-10.407,-0.267,-0.618,0.740,4.769,8.095,3.318,9.964,16.992,5.115,9.664,0.487,0.873,0.037,9.783,11.008,-3.786,6.397,none
3.721597,0.949,0.232,-0.213,2379.16,8.617,3.581,-15.219,-0.782,-0.573,0.246,0.947,0.313,-0.074,2350.73,7.833,3.693,-12.310,-0.862,-0.507,-0.019,0.342,-0.775,-0.531,2409.54,-11.414,-18.464,-0.336,-0.211,0.739,0.640,0.204,0.343,-0.917,2440.19,-2.126,-2.350,-14.548,-0.241,-0.655,0.717,4.834,8.406,3.395,10.274,17.908,8.260,7.176,0.435,0.889,0.143,10.430,8.885,4.336,3.985,none
3.743161,0.952,0.211,-0.220,2432.15,11.191,5.483,-14.100,-0.779,-0.584,0.228,0.956,0.275,-0.098,2390.02,13.093,6.826,-9.400,-0.846,-0.533,0.014,0.337,-0.797,-0.502,2335.53,-7.050,-18.912,-5.036,-0.170,0.739,0.652,0.206,0.360,-0.910,2460.36,-4.588,-7.050,-17.457,-0.259,-0.643,0.721,4.578,8.674,3.440,10.394,13.969,12.321,4.092,0.429,0.897,0.102,10.291,4.122,4.305,2.626,none
3.762119,0.961,0.191,-0.200,2440.72,13.876,2.462,-5.595,-0.779,-0.575,0.249,0.961,0.246,-0.122,2469.16,14.436,3.133,-2.574,-0.864,-0.502,0.015,0.308,-0.814,-0.493,2395.11,-2.350,-15.219,-8.617,-0.140,0.709,0.691,0.191,0.345,-0.919,2455.36,4.476,5.483,-11.526,-0.233,-0.657,0.717,4.542,8.734,3.639,10.495,11.954,14.733,-0.122,0.392,0.912,0.119,10.085,0.794,6.733,-1.450,none
3.783217,0.968,0.157,-0.194,2403.15,13.764,5.819,-2.798,-0.800,-0.538,0.266,0.964,0.227,-0.135,2461.42,12.086,7.722,0.000,-0.831,-0.556,-0.018,0.272,-0.796,-0.540,2494.99,0.671,-6.826,-7.274,-0.154,0.732,0.664,0.123,0.370,-0.921,2525.74,-7.274,-13.653,-10.295,-0.213,-0.659,0.721,4.436,8.696,3.531,10.381,11.389,9.725,-3.878,0.427,0.898,0.102,10.345,-0.809,1.328,-3.725,none
3.803423,0.949,0.222,-0.224,2440.66,7.386,7.945,1.567,-0.775,-0.576,0.258,0.934,0.340,-0.109,2593.09,4.252,7.498,2.910,-0.851,-0.525,0.004,0.303,-0.756,-0.581,2525.15,-1.455,2.014,-8.952,-0.184,0.732,0.655,0.217,0.365,-0.906,2480.30,12.422,9.512,-5.819,-0.239,-0.661,0.711,5.296,8.552,3.462,10.638,8.534,6.733,-5.038,0.464,0.881,0.088,10.585,-2.718,5.542,-4.855,none
3.825330,0.939,0.268,-0.215,2580.95,9.064,2.462,2.238,-0.768,-0.590,0.249,0.939,0.325,-0.108,2620.90,13.764,0.112,2.238,-0.840,-0.543,-0.008,0.314,-0.784,-0.536,2534.95,2.686,-8.952,-8.505,-0.177,0.744,0.644,0.198,0.329,-0.923,2508.61,18.129,-2.238,-12.086,-0.232,-0.643,0.730,5.004,8.253,3.347,10.215,10.916,12.992,3.649,0.456,0.887,0.065,10.061,2.305,5.511,0.046,none
3.846901,0.944,0.257,-0.205,2422.57,9.960,-1.567,-1.567,-0.809,-0.552,0.201,0.950,0.297,-0.096,2446.93,15.331,-1.007,-2.350,-0.869,-0.494,0.004,0.304,-0.782,-0.545,2617.86,-2.910,-14.772,-2.238,-0.138,0.713,0.688,0.193,0.293,-0.936,2420.01,5.148,8.729,-14.660,-0.243,-0.642,0.727,3.962,8.135,3.182,9.592,13.710,9.679,8.794,0.406,0.906,0.122,9.901,4.351,3.771,6.397,none
3.867483,0.961,0.202,-0.186,2349.58,13.653,-0.783,-10.407,-0.775,-0.588,0.232,0.977,0.175,-0.124,2348.92,15.667,2.910,-9.176,-0.848,-0.529,0.004,0.306,-0.806,-0.507,2502.78,-19.360,-16.674,-1.455,-0.145,0.736,0.661,0.211,0.299,-0.931,2404.42,-6.043,7.274,-12.869,-0.248,-0.655,0.714,3.958,8.605,3.484,10.092,15.588,0.931,4.733,0.347,0.930,0.121,9.838,1.389,-0.824,3.695,none
3.887141,0.973,0.135,-0.186,2359.91,5.931,1.790,-5.819,-0.789,-0.559,0.253,0.976,0.174,-0.127,2369.71,7.274,3.357,-6.602,-0.846,-0.533,-0.019,0.310,-0.830,-0.464,2312.57,-21.262,-9.624,0.895,-0.129,0.718,0.684,0.181,0.358,-0.916,2473.60,-13.876,-4.812,-7.162,-0.233,-0.629,0.742,4.542,9.096,4.041,10.940,8.824,1.450,-1.252,0.405,0.903,0.143,10.484,-3.099,-2.153,-1.618,none
3.908349,0.955,0.197,-0.222,2458.00,1.567,4.700,1.007,-0.758,-0.588,0.281,0.959,0.254,-0.124,2433.25,2.574,2.574,4.029,-0.847,-0.530,0.037,0.328,-0.802,-0.499,2307.09,-9.400,-2.350,-0.671,-0.130,0.764,0.632,0.196,0.395,-0.897,2536.37,-9.624,4.588,-2.574,-0.237,-0.656,0.716,4.958,8.734,3.400,10.603,1.802,2.534,-5.313,0.434,0.896,0.093,10.541,-7.405,-3.695,-4.229,none
3.927494,0.945,0.232,-0.229,2554.62,3.917,1.902,8.393,-0.762,-0.593,0.259,0.948,0.291,-0.128,2597.43,4.252,-2.350,9.176,-0.843,-0.537,0.037,0.321,-0.761,-0.563,2479.87,-4.364,2.574,-3.693,-0.194,0.665,0.721,0.217,0.371,-0.903,2520.05,12.086,6.267,-1.231,-0.215,-0.651,0.728,4.925,8.610,3.244,10.436,1.466,4.092,-5.771,0.449,0.891,0.073,10.514,-9.924,-1.359,-4.061,none
3.948543,0.939,0.277,-0.204,2531.08,4.141,-1.679,8.393,-0.785,-0.571,0.242,0.949,0.302,-0.095,2564.04,7.945,-3.917,6.379,-0.854,-0.519,0.037,0.303,-0.769,-0.563,2623.07,1.790,-2.798,-0.783,-0.178,0.689,0.702,0.220,0.346,-0.912,2529.23,13.653,2.462,-4.588,-0.205,-0.638,0.742,4.956,8.643,3.352,10.512,0.702,4.290,-2.901,0.438,0.895,0.083,10.422,-9.878,0.046,-2.595,none
3.967848,0.950,0.241,-0.199,2500.96,5.819,-2.238,4.029,-0.764,-0.587,0.266,0.956,0.273,-0.109,2513.87,6.826,-3.021,2.910,-0.846,-0.533,0.014,0.308,-0.770,-0.559,2552.73,0.000,-4.252,2.686,-0.173,0.699,0.694,0.207,0.343,-0.916,2496.08,0.336,-5.595,-4.812,-0.238,-0.642,0.729,4.628,8.708,3.493,10.462,-2.336,4.992,-1.359,0.422,0.901,0.099,10.365,-12.275,0.443,-0.382,none
3.987665,0.955,0.199,-0.220,2477.92,7.274,-4.141,5.483,-0.793,-0.548,0.266,0.958,0.251,-0.137,2496.35,7.498,-4.029,3.357,-0.867,-0.498,0.004,0.309,-0.779,-0.546,2451.04,-0.783,-4.588,5.260,-0.137,0.740,0.659,0.210,0.360,-0.909,2515.38,1.231,-5.819,-4.700,-0.225,-0.630,0.743,4.855,8.667,3.558,10.552,-3.115,4.580,-3.252,0.427,0.897,0.113,10.460,-15.649,1.298,-1.206,none
4.007080,0.951,0.216,-0.220,2477.64,7.162,-4.924,8.952,-0.780,-0.558,0.283,0.958,0.265,-0.114,2480.40,6.938,-7.386,6.491,-0.860,-0.510,0.025,0.312,-0.794,-0.522,2393.05,1.790,-2.798,4.476,-0.148,0.727,0.671,0.206,0.368,-0.907,2510.23,9.288,-7.722,-5.260,-0.227,-0.644,0.730,5.025,9.131,4.187,11.233,-10.107,9.313,-5.573,0.432,0.888,0.159,10.935,-23.084,6.046,-1.939,none
4.026605,0.950,0.193,-0.247,2563.27,13.429,-5.931,16.114,-0.775,-0.567,0.278,0.957,0.241,-0.160,2562.66,10.967,-8.281,11.526,-0.843,-0.535,0.044,0.302,-0.797,-0.523,2407.25,13.093,-2.014,6.267,-0.148,0.727,0.671,0.198,0.373,-0.906,2555.59,17.010,-12.422,-6.714,-0.213,-0.637,0.741,5.064,9.175,4.432,11.378,-25.603,13.786,-7.237,0.431,0.885,0.175,11.154,-38.107,11.008,-0.260,none
4.049339,0.943,0.176,-0.281,2641.37,19.472,-13.317,26.634,-0.794,-0.559,0.237,0.953,0.247,-0.179,2624.61,16.562,-17.010,21.934,-0.853,-0.519,0.044,0.289,-0.787,-0.545,2511.67,20.703,-0.224,8.169,-0.093,0.729,0.678,0.173,0.336,-0.926,2543.91,25.179,-19.472,-6.379,-0.219,-0.654,0.724,5.061,8.243,3.675,10.348,-31.069,14.901,-3.359,0.483,0.869,0.110,10.442,-41.954,11.679,3.603,none
4.069541,0.931,0.263,-0.252,2551.54,15.891,-20.367,28.312,-0.797,-0.549,0.253,0.941,0.303,-0.149,2617.19,17.345,-21.710,17.233,-0.880,-0.469,0.069,0.269,-0.793,-0.546,2665.94,19.695,-1.790,9.064,-0.094,0.726,0.681,0.159,0.294,-0.942,2509.40,18.688,-14.883,-9.512,-0.190,-0.640,0.744,4.836,7.858,3.433,9.845,-24.153,11.466,5.908,0.467,0.880,0.084,9.848,-33.496,12.000,11.450,none
4.090010,0.941,0.245,-0.234,2452.61,18.912,-18.353,10.743,-0.804,-0.507,0.311,0.949,0.274,-0.157,2542.08,16.562,-19.919,5.819,-0.841,-0.539,0.032,0.266,-0.794,-0.547,2663.54,11.862,-4.588,14.995,-0.156,0.735,0.660,0.157,0.298,-0.942,2480.50,1.119,-13.876,-12.981,-0.200,-0.630,0.750,4.568,7.891,3.577,9.795,-14.672,7.282,11.679,0.451,0.883,0.132,9.912,-25.298,6.748,15.176,none
4.110199,0.946,0.196,-0.258,2419.61,16.003,-17.793,4.700,-0.786,-0.541,0.299,0.954,0.263,-0.145,2426.56,12.645,-18.241,-1.119,-0.829,-0.555,0.073,0.298,-0.779,-0.552,2477.02,4.364,-7.610,18.912,-0.164,0.763,0.625,0.156,0.311,-0.938,2439.13,-4.812,-9.960,-12.869,-0.188,-0.650,0.736,4.563,7.887,3.840,9.888,-12.656,1.511,15.542,0.466,0.874,0.135,9.869,-23.038,3.313,20.183,none
4.130081,0.941,0.205,-0.271,2412.22,15.443,-20.703,0.895,-0.789,-0.519,0.329,0.948,0.273,-0.164,2441.21,12.198,-14.883,-7.833,-0.852,-0.511,0.109,0.294,-0.785,-0.546,2470.90,-3.021,-9.512,14.883,-0.139,0.777,0.614,0.156,0.335,-0.929,2438.24,-9.736,-9.064,-13.988,-0.195,-0.639,0.744,4.798,7.985,3.864,10.085,-11.282,0.031,17.450,0.462,0.878,0.123,9.830,-18.870,3.023,22.046,none
4.152025,0.946,0.214,-0.244,2356.50,14.883,-20.479,-3.133,-0.773,-0.533,0.344,0.955,0.265,-0.136,2364.50,13.988,-13.317,-10.072,-0.831,-0.550,0.084,0.292,-0.787,-0.544,2425.18,-4.812,-12.981,12.086,-0.146,0.724,0.674,0.155,0.356,-0.922,2458.61,-12.422,-7.833,-16.338,-0.185,-0.650,0.737,4.877,8.191,4.075,10.367,-11.924,3.634,15.679,0.449,0.884,0.130,9.791,-14.763,5.527,18.305,none
4.170473,0.951,0.197,-0.240,2313.15,16.003,-16.226,-3.805,-0.795,-0.533,0.290,0.954,0.259,-0.150,2344.58,15.219,-9.288,-7.722,-0.840,-0.537,0.075,0.295,-0.778,-0.554,2363.53,-3.021,-11.862,8.169,-0.116,0.734,0.669,0.147,0.368,-0.918,2457.27,-10.072,-5.260,-16.898,-0.183,-0.637,0.749,4.657,8.011,3.895,10.052,-10.809,7.282,10.779,0.440,0.885,0.149,9.743,-11.389,6.641,11.924,none
4.190863,0.949,0.174,-0.264,2327.47,15.555,-10.631,-2.574,-0.774,-0.544,0.323,0.957,0.239,-0.163,2337.05,14.660,-6.155,-4.812,-0.872,-0.480,0.100,0.281,-0.790,-0.546,2379.97,-2.574,-10.183,3.357,-0.090,0.750,0.656,0.135,0.357,-0.924,2452.44,-4.812,1.231,-13.205,-0.163,-0.658,0.736,4.547,7.939,3.929,9.957,-5.160,7.313,6.061,0.433,0.887,0.159,9.780,-9.069,4.962,6.840,none
4.211626,0.955,0.157,-0.251,2333.53,11.974,-4.364,0.000,-0.778,-0.505,0.374,0.958,0.226,-0.176,2386.90,12.533,-2.910,-2.126,-0.854,-0.513,0.087,0.260,-0.818,-0.513,2381.72,0.112,-7.498,0.000,-0.123,0.763,0.635,0.141,0.360,-0.922,2489.00,-1.567,1.679,-9.848,-0.168,-0.643,0.748,4.638,8.169,4.202,10.291,-2.366,6.275,1.802,0.430,0.881,0.197,10.156,-9.313,2.336,2.718,none
4.232319,0.949,0.126,-0.288,2439.86,9.512,-2.238,2.014,-0.783,-0.521,0.339,0.956,0.217,-0.196,2440.66,7.050,-0.671,1.790,-0.827,-0.554,0.095,0.256,-0.814,-0.521,2416.58,1.119,-1.455,-0.448,-0.099,0.742,0.664,0.140,0.363,-0.921,2492.62,2.126,1.119,-4.924,-0.182,-0.651,0.737,4.764,8.171,4.269,10.378,-1.557,4.809,-2.122,0.441,0.877,0.187,10.104,-11.740,-1.160,-0.534,none
4.253183,0.947,0.156,-0.282,2418.29,5.483,-3.581,6.043,-0.809,-0.505,0.300,0.951,0.242,-0.194,2467.00,4.588,-1.902,4.924,-0.836,-0.533,0.129,0.258,-0.803,-0.537,2438.61,3.021,3.805,-1.679,-0.085,0.722,0.686,0.141,0.367,-0.919,2487.62,4.588,0.000,-1.343,-0.169,-0.656,0.736,4.966,7.930,4.008,10.178,1.496,4.580,-5.481,0.469,0.868,0.163,10.056,-10.855,-4.198,-3.679,none
4.273838,0.936,0.200,-0.290,2424.42,1.455,-2.798,7.162,-0.796,-0.501,0.341,0.942,0.284,-0.180,2447.66,1.679,-2.014,5.595,-0.835,-0.538,0.118,0.264,-0.790,-0.553,2454.60,3.021,7.162,-2.686,-0.113,0.732,0.672,0.140,0.378,-0.915,2498.80,8.617,-0.783,1.007,-0.171,-0.633,0.755,5.255,7.913,4.180,10.378,5.618,6.000,-6.763,0.497,0.854,0.154,10.186,-9.985,-4.046,-4.611,none
4.294748,0.928,0.213,-0.305,2465.68,1.567,-1.902,7.162,-0.773,-0.524,0.356,0.937,0.302,-0.174,2468.71,1.679,-0.783,5.819,-0.824,-0.563,0.056,0.283,-0.766,-0.578,2467.59,5.595,5.707,-4.029,-0.092,0.734,0.673,0.137,0.369,-0.919,2477.04,12.422,3.805,-0.560,-0.177,-0.633,0.754,5.116,7.973,4.331,10.416,5.908,10.031,-5.924,0.489,0.856,0.167,10.237,-8.718,-0.305,-3.740,none
4.315209,0.937,0.186,-0.296,2441.98,5.819,-1.790,5.931,-0.810,-0.473,0.348,0.944,0.271,-0.188,2494.59,8.169,0.783,4.924,-0.852,-0.510,0.123,0.261,-0.807,-0.530,2487.77,9.960,0.560,-6.267,-0.127,0.767,0.629,0.141,0.341,-0.929,2482.03,12.757,6.602,-2.686,-0.174,-0.634,0.754,4.774,8.066,4.554,10.421,6.092,11.206,-4.366,0.453,0.869,0.200,10.102,-7.542,1.527,-3.298,none
4.335857,0.945,0.121,-0.305,2463.58,7.498,-0.448,4.700,-0.795,-0.504,0.336,0.956,0.218,-0.198,2473.49,7.274,1.119,4.141,-0.833,-0.539,0.120,0.258,-0.811,-0.525,2512.04,7.945,0.112,-5.483,-0.094,0.722,0.686,0.136,0.304,-0.943,2496.29,8.952,8.057,-1.902,-0.162,-0.638,0.752,4.231,8.303,4.621,10.401,4.611,9.221,-3.939,0.399,0.884,0.244,10.329,-9.344,-2.870,-2.504,none
4.357707,0.951,0.060,-0.302,2516.58,5.483,-2.238,4.252,-0.767,-0.531,0.361,0.965,0.152,-0.213,2520.88,3.693,0.783,3.469,-0.854,-0.506,0.122,0.247,-0.840,-0.483,2506.13,5.148,4.141,-1.902,-0.095,0.767,0.635,0.151,0.316,-0.937,2524.45,7.162,3.581,4.141,-0.168,-0.629,0.759,4.439,8.466,4.911,10.747,3.771,1.527,-7.832,0.412,0.879,0.239,10.415,-13.298,-8.504,-5.282,none
4.375516,0.948,0.091,-0.305,2526.53,-5.036,-5.371,10.183,-0.775,-0.518,0.362,0.958,0.209,-0.197,2528.62,-3.693,-3.469,6.938,-0.866,-0.493,0.080,0.274,-0.825,-0.494,2512.45,3.245,6.938,0.336,-0.096,0.737,0.670,0.151,0.289,-0.945,2521.48,12.757,4.364,7.162,-0.181,-0.636,0.750,4.422,8.274,4.741,10.512,-0.855,-0.458,-5.924,0.434,0.873,0.222,10.363,-15.252,-11.328,-2.626,none
4.396173,0.943,0.116,-0.313,2560.82,-7.833,-11.191,7.945,-0.784,-0.496,0.372,0.963,0.187,-0.194,2567.90,-4.700,-4.588,4.252,-0.856,-0.509,0.090,0.257,-0.834,-0.488,2603.21,0.560,6.826,0.783,-0.117,0.752,0.649,0.171,0.270,-0.948,2515.66,8.617,2.350,7.833,-0.175,-0.633,0.754,4.365,8.322,4.628,10.475,-1.679,-3.863,-3.466,0.408,0.890,0.205,10.046,-13.573,-12.855,-0.702,none
4.416879,0.963,0.099,-0.251,2406.33,-8.057,-9.176,4.700,-0.790,-0.501,0.353,0.967,0.168,-0.190,2515.36,-8.505,-5.707,1.343,-0.860,-0.494,0.128,0.258,-0.842,-0.474,2557.44,-1.455,6.267,6.938,-0.145,0.736,0.661,0.160,0.269,-0.950,2489.98,-0.224,-4.812,9.176,-0.193,-0.635,0.748,3.946,7.999,4.389,9.940,-1.374,-8.275,-1.252,0.401,0.889,0.220,9.774,-11.145,-20.092,-1.038,none
4.436909,0.951,0.088,-0.297,2396.85,-13.988,-7.050,2.014,-0.809,-0.486,0.329,0.968,0.159,-0.195,2402.40,-17.345,-3.693,-1.567,-0.841,-0.523,0.140,0.265,-0.830,-0.491,2487.84,-6.155,9.848,12.086,-0.090,0.752,0.653,0.162,0.271,-0.949,2399.70,-8.505,-4.588,14.324,-0.177,-0.633,0.754,3.757,7.774,4.245,9.621,-1.344,-17.939,-0.809,3.797,8.454,1.997,9.480,-10.626,-28.168,1.206,none
4.457282,0.957,0.095,-0.275,2308.69,-22.717,-9.624,-1.455,-0.792,-0.513,0.331,0.963,0.178,-0.203,2364.79,-24.395,-3.917,-6.043,-0.856,-0.508,0.096,0.281,-0.819,-0.501,2378.95,-17.345,15.891,14.324,-0.111,0.759,0.641,0.159,0.305,-0.939,2383.91,-13.541,-6.379,20.926,-0.187,-0.622,0.761,4.149,7.875,4.113,9.805,1.985,-24.656,-7.053,3.998,8.461,1.721,9.515,-8.336,-32.489,-3.603,none
4.477709,0.961,0.130,-0.245,2227.38,-29.431,-2.462,0.224,-0.797,-0.478,0.369,0.966,0.221,-0.132,2213.75,-28.984,-3.469,-3.917,-0.842,-0.533,0.076,0.321,-0.801,-0.506,2236.78,-15.667,18.241,13.653,-0.100,0.718,0.689,0.156,0.343,-0.926,2436.67,-8.281,-3.805,23.500,-0.188,-0.631,0.753,4.846,8.145,4.503,10.493,-0.153,-22.443,-12.656,4.709,8.710,1.729,10.051,-9.191,-29.511,-9.389,none
4.507365,0.934,0.190,-0.303,2449.84,-27.081,1.007,4.364,-0.784,-0.496,0.372,0.945,0.286,-0.158,2470.53,-27.193,2.798,2.686,-0.866,-0.493,0.077,0.303,-0.772,-0.558,2431.92,-15.443,19.584,3.581,-0.105,0.736,0.669,0.186,0.327,-0.927,2468.07,-2.238,1.231,22.717,-0.206,-0.619,0.758,5.119,8.004,4.032,10.321,-0.076,-19.069,-9.573,4.951,8.796,1.551,10.213,-7.344,-27.053,-6.336,none
4.518804,0.929,0.191,-0.316,2536.19,-25.291,-2.014,0.224,-0.790,-0.514,0.335,0.937,0.292,-0.193,2585.37,-22.829,3.917,-3.021,-0.837,-0.535,0.119,0.235,-0.809,-0.539,2552.69,-16.226,13.988,2.574,-0.118,0.719,0.685,0.145,0.351,-0.925,2546.36,-4.588,-3.021,21.262,-0.195,-0.649,0.735,5.298,8.097,3.996,10.469,5.405,-26.687,-10.366,5.406,9.170,1.820,10.799,-6.779,-32.901,-5.908,none
4.539147,0.914,0.242,-0.327,2569.22,-32.117,-3.133,-0.783,-0.799,-0.501,0.333,0.935,0.301,-0.189,2635.30,-28.312,2.014,-1.231,-0.859,-0.506,0.079,0.240,-0.731,-0.639,2663.91,-16.003,18.353,5.036,-0.136,0.710,0.691,0.101,0.413,-0.905,2690.27,-9.960,-7.162,22.941,-0.210,-0.642,0.737,6.627,8.918,5.306,12.313,1.802,-17.664,-11.832,6.297,9.471,1.944,11.539,-10.443,-22.885,-8.031,none
4.560871,0.902,0.273,-0.335,2711.10,-24.172,-0.448,5.148,-0.789,-0.532,0.307,0.916,0.351,-0.193,2793.46,-19.695,-2.574,4.029,-0.833,-0.550,0.063,0.290,-0.746,-0.599,2544.60,-6.491,11.191,5.819,-0.111,0.718,0.687,0.172,0.404,-0.898,2601.73,5.483,-4.252,12.198,-0.182,-0.632,0.753,6.275,8.219,4.628,11.329,-9.237,0.427,-5.542,6.361,9.246,1.865,11.377,-16.977,-5.786,-3.450,none
4.581847,0.890,0.272,-0.365,2757.19,-3.917,-10.407,8.952,-0.779,-0.524,0.343,0.918,0.357,-0.170,2692.57,-4.029,-11.638,5.819,-0.867,-0.488,0.099,0.287,-0.757,-0.586,2532.29,7.050,-2.910,9.288,-0.170,0.710,0.684,0.175,0.356,-0.918,2513.16,13.764,-6.602,0.224,-0.206,-0.606,0.768,5.564,7.867,4.290,10.548,-9.496,10.275,2.122,5.339,8.674,1.604,10.311,-18.672,5.664,3.435,none
4.605475,0.927,0.195,-0.321,2436.01,6.826,-14.772,6.826,-0.787,-0.531,0.315,0.936,0.292,-0.195,2555.28,10.967,-18.017,1.679,-0.874,-0.476,0.100,0.280,-0.769,-0.575,2495.60,12.533,-10.631,10.519,-0.123,0.765,0.632,0.176,0.318,-0.932,2443.87,24.060,-8.169,-4.700,-0.210,-0.642,0.737,4.652,7.788,3.886,9.869,-8.840,11.221,3.237,4.606,8.665,1.688,9.957,-19.313,4.321,5.008,none
4.623044,0.939,0.173,-0.299,2353.45,6.155,-16.786,6.267,-0.809,-0.510,0.291,0.950,0.267,-0.161,2311.27,9.176,-22.269,1.902,-0.861,-0.495,0.119,0.306,-0.765,-0.567,2341.32,10.743,-9.064,7.610,-0.102,0.732,0.674,0.149,0.372,-0.916,2485.04,7.162,-16.562,-7.945,-0.208,-0.609,0.766,5.148,8.001,4.326,10.452,-4.198,11.802,-2.473,5.054,8.674,1.611,10.168,-20.931,7.679,0.519,none
4.643730,0.924,0.227,-0.306,2388.71,7.610,-13.093,11.414,-0.770,-0.528,0.359,0.934,0.319,-0.159,2394.69,12.422,-17.457,7.833,-0.835,-0.545,0.074,0.326,-0.749,-0.577,2352.03,16.562,-8.505,1.902,-0.086,0.741,0.666,0.163,0.358,-0.919,2444.14,18.241,-9.624,-9.624,-0.188,-0.618,0.763,5.148,8.040,4.377,10.502,-9.740,21.328,-3.985,4.891,8.614,1.611,10.036,-21.252,14.427,-1.542,none
4.665343,0.925,0.193,-0.328,2409.54,16.003,-12.310,14.324,-0.797,-0.494,0.348,0.934,0.296,-0.198,2415.81,22.493,-15.779,10.967,-0.885,-0.452,0.114,0.279,-0.778,-0.563,2393.04,22.045,-18.464,-3.245,-0.073,0.746,0.662,0.165,0.384,-0.909,2484.24,35.250,-9.288,-9.736,-0.179,-0.613,0.770,4.987,7.786,4.065,10.100,-5.115,18.595,-7.344,5.140,8.667,1.587,10.201,-19.420,13.481,-3.649,none
4.686161,0.917,0.243,-0.316,2440.23,11.974,-10.519,14.324,-0.788,-0.493,0.370,0.925,0.331,-0.187,2513.86,22.829,-14.772,10.967,-0.851,-0.503,0.149,0.280,-0.748,-0.602,2565.27,19.584,-18.912,-8.057,-0.122,0.769,0.628,0.108,0.313,-0.944,2516.74,48.679,-16.450,-9.960,-0.187,-0.612,0.768,5.435,8.059,4.571,10.741,-5.802,24.672,-4.443,5.037,8.581,1.741,10.101,-16.794,19.176,-1.542,none
4.705717,0.928,0.189,-0.321,2402.06,20.926,-7.833,11.862,-0.810,-0.500,0.306,0.944,0.260,-0.205,2671.90,26.857,-8.169,8.393,-0.862,-0.489,0.132,0.240,-0.864,-0.443,2379.70,20.591,-24.731,-9.512,-0.055,0.760,0.648,0.208,0.304,-0.929,2618.72,26.857,6.379,-14.212,-0.194,-0.595,0.780,4.985,7.788,4.961,10.494,-2.183,26.901,-0.840,4.951,8.744,2.523,10.360,-14.855,28.061,0.534,none
4.726349,0.919,0.186,-0.348,2499.52,22.941,-5.371,7.498,-0.805,-0.493,0.330,0.945,0.219,-0.241,2510.88,34.915,-11.191,6.155,-0.878,-0.467,0.108,0.192,-0.903,-0.384,2514.54,32.900,-38.608,-13.653,-0.026,0.787,0.616,0.138,0.173,-0.975,2396.36,26.298,-9.288,-23.836,-0.165,-0.586,0.794,3.057,7.640,4.951,9.604,-6.580,31.466,4.137,2.255,8.073,2.859,8.856,-13.664,13.588,4.550,none
4.747081,0.927,-0.135,-0.351,2225.27,28.312,-6.491,9.400,-0.785,-0.482,0.388,0.917,-0.214,-0.335,2566.86,30.662,-2.014,1.119,-0.857,-0.490,0.160,0.300,-0.914,-0.273,3180.90,32.900,25.738,-10.295,-0.086,0.780,0.620,0.251,0.170,-0.953,2491.24,16.338,6.491,-3.357,-0.169,-0.586,0.792,4.764,8.135,6.615,11.517,3.008,16.000,-6.748,4.104,8.373,3.771,10.058,-16.366,20.351,-3.954,none
4.768304,0.887,0.077,-0.456,2467.15,23.836,0.560,12.757,-0.805,-0.454,0.382,0.967,0.126,-0.222,2334.27,28.984,-9.848,7.386,-0.875,-0.452,0.175,0.219,-0.969,-0.111,2515.98,31.557,-24.395,-9.624,-0.071,0.770,0.634,0.044,0.147,-0.988,2412.57,40.734,-22.157,-13.205,-0.175,-0.584,0.793,2.009,7.276,4.164,8.620,-5.847,13.405,-1.130,2.176,8.619,2.825,9.328,-7.969,0.779,2.260,none
4.789496,0.978,-0.070,-0.199,2200.47,8.617,-6.267,1.679,-0.788,-0.482,0.383,0.965,-0.057,-0.258,2389.82,6.714,1.231,2.014,-0.880,-0.439,0.182,0.235,-0.844,-0.482,2714.02,3.805,12.422,-8.729,-0.090,0.797,0.597,0.158,0.151,-0.976,2343.78,28.536,9.288,-0.112,-0.167,-0.554,0.816,2.952,8.047,5.375,10.117,3.328,-12.489,-7.695,2.543,8.507,2.636,9.262,-4.351,-14.076,-13.649,none
4.810554,0.937,-0.014,-0.348,2441.04,-8.729,0.895,3.805,-0.813,-0.451,0.368,0.963,0.157,-0.217,2433.87,-13.429,2.798,2.126,-0.853,-0.506,0.127,0.269,-0.848,-0.457,2518.93,-11.079,11.526,-2.238,-0.115,0.766,0.633,0.164,0.123,-0.979,2487.02,2.350,10.855,12.981,-0.155,-0.558,0.815,4.235,7.939,4.982,10.286,4.275,-19.191,-9.344,4.597,8.957,2.734,10.432,-6.534,-20.763,-2.687,none
4.831599,0.932,0.123,-0.341,2580.27,-14.436,-1.679,2.014,-0.798,-0.473,0.374,0.959,0.184,-0.218,2559.16,-15.219,4.476,-1.455,-0.879,-0.460,0.123,0.297,-0.829,-0.474,2514.70,-13.205,11.526,-3.469,-0.083,0.787,0.611,0.189,0.179,-0.966,2479.39,-28.872,-0.112,10.072,-0.188,-0.549,0.814,4.307,8.384,5.255,10.792,3.084,-14.611,-2.351,4.317,9.141,2.751,10.477,-7.191,-20.748,2.168,none
4.853361,0.944,0.071,-0.321,2555.89,-16.114,-7.722,-2.462,-0.773,-0.500,0.391,0.967,0.123,-0.222,2555.56,-11.079,0.671,-6.602,-0.869,-0.471,0.154,0.256,-0.850,-0.461,2604.99,-13.205,12.757,1.231,-0.115,0.773,0.623,0.191,0.225,-0.955,2496.28,-15.219,-1.790,10.295,-0.186,-0.567,0.803,4.427,8.353,5.243,10.811,3.099,-19.756,-4.031,4.221,9.057,2.653,10.339,-8.351,-26.260,0.931,none
4.874022,0.943,0.069,-0.325,2465.99,-17.569,-7.945,-0.336,-0.807,-0.473,0.353,0.952,0.199,-0.233,2514.16,-20.031,-0.671,-2.798,-0.863,-0.484,0.143,0.257,-0.828,-0.498,2528.56,-12.645,16.003,5.595,-0.090,0.767,0.636,0.102,0.277,-0.955,2559.17,-12.869,-10.407,13.541,-0.147,-0.583,0.799,4.966,7.977,5.097,10.690,-1.740,-19.053,-3.618,5.332,8.808,2.619,10.624,-10.153,-26.412,-0.321,none
4.897292,0.903,0.194,-0.384,2543.66,-19.695,-6.491,1.679,-0.782,-0.492,0.382,0.934,0.267,-0.239,2573.80,-22.717,-2.126,-2.574,-0.896,-0.426,0.126,0.270,-0.807,-0.525,2547.69,-12.310,17.122,7.050,-0.105,0.771,0.628,0.142,0.260,-0.955,2464.43,-8.505,-2.574,14.883,-0.172,-0.560,0.810,5.069,7.544,4.738,10.250,-0.702,-17.206,2.748,5.200,8.540,2.239,10.246,-12.031,-22.397,7.237,none
4.916946,0.910,0.168,-0.378,2481.13,-13.764,-13.429,-2.014,-0.798,-0.455,0.396,0.934,0.275,-0.228,2531.91,-13.988,-6.714,-8.617,-0.868,-0.476,0.145,0.259,-0.808,-0.530,2545.29,-10.631,12.086,9.624,-0.157,0.753,0.639,0.116,0.243,-0.963,2436.64,-18.353,-8.952,10.743,-0.185,-0.574,0.797,4.472,7.590,4.841,10.052,1.893,-15.588,6.275,4.415,8.217,2.116,9.565,-8.412,-19.954,9.176,none
4.937737,0.938,0.105,-0.331,2271.46,-11.862,-12.422,-5.707,-0.787,-0.502,0.359,0.959,0.180,-0.217,2290.10,-13.429,-6.267,-10.631,-0.872,-0.467,0.147,0.275,-0.833,-0.480,2360.45,-10.855,13.429,11.079,-0.120,0.740,0.662,0.050,0.183,-0.982,2480.11,-22.381,-3.581,9.064,-0.184,-0.577,0.795,4.357,7.779,4.647,10.054,4.550,-18.031,0.794,4.262,8.578,2.567,9.917,-5.908,-25.237,3.603,none
4.958011,0.933,0.101,-0.346,2367.44,-15.443,-5.819,-4.476,-0.792,-0.478,0.380,0.957,0.189,-0.222,2338.16,-18.464,-1.902,-6.714,-0.865,-0.492,0.100,0.292,-0.798,-0.527,2354.06,-14.436,17.793,9.176,-0.132,0.761,0.636,0.142,0.295,-0.945,2471.72,-40.846,6.155,13.653,-0.171,-0.580,0.796,4.824,8.270,4.736,10.681,2.107,-18.550,-2.885,4.669,8.768,1.872,10.108,-10.107,-28.458,1.130,none
4.979328,0.931,0.149,-0.333,2465.50,-17.681,-7.274,3.469,-0.777,-0.516,0.362,0.937,0.294,-0.187,2501.84,-21.374,-4.588,-2.350,-0.848,-0.513,0.132,0.321,-0.748,-0.581,2421.06,-15.331,12.981,7.050,-0.110,0.747,0.655,0.136,0.352,-0.926,2573.90,-69.829,11.526,10.631,-0.183,-0.599,0.779,5.612,7.915,3.934,10.470,1.374,-16.427,-4.885,0.531,0.839,0.116,10.517,-10.443,-26.611,-1.008,none
5.000566,0.894,0.302,-0.330,2546.81,-17.457,-5.371,3.917,-0.796,-0.499,0.342,0.917,0.366,-0.160,2568.97,-21.374,-3.245,-0.112,-0.882,-0.451,0.135,0.314,-0.731,-0.606,2531.65,-10.407,19.919,5.595,-0.170,0.739,0.652,0.169,0.441,-0.881,2650.31,-35.922,-10.519,8.729,-0.197,-0.620,0.759,6.167,8.351,4.719,11.404,7.023,-1.771,-5.344,0.554,0.817,0.164,11.301,-7.969,-15.176,-2.031,none
5.020423,0.891,0.244,-0.382,2708.80,-6.602,-2.686,3.021,-0.787,-0.502,0.359,0.908,0.377,-0.186,2680.97,-4.700,-1.231,2.014,-0.852,-0.512,0.109,0.313,-0.724,-0.614,2512.79,3.021,7.386,-2.574,-0.128,0.761,0.636,0.165,0.415,-0.895,2654.34,20.926,24.507,6.602,-0.191,-0.607,0.771,6.938,8.669,5.816,12.535,1.511,12.580,-5.130,0.569,0.795,0.212,11.737,-13.359,3.771,-2.947,none
5.040929,0.874,0.238,-0.423,2818.65,2.910,-2.014,7.833,-0.790,-0.492,0.366,0.911,0.323,-0.256,2788.37,10.519,-2.350,7.050,-0.860,-0.501,0.101,0.234,-0.809,-0.539,2684.05,18.464,-4.141,-2.910,-0.135,0.767,0.627,0.183,0.328,-0.927,2550.77,34.691,-8.841,-9.064,-0.196,-0.589,0.784,5.215,7.645,4.764,10.408,-7.115,24.458,5.038,0.531,0.818,0.222,10.628,-16.397,12.947,4.962,none
5.061594,0.902,0.186,-0.390,2557.71,20.367,-14.995,6.491,-0.775,-0.496,0.392,0.924,0.285,-0.254,2652.91,19.248,-11.302,4.029,-0.850,-0.512,0.122,0.242,-0.815,-0.527,2595.39,19.472,-12.086,7.274,-0.177,0.746,0.641,0.108,0.210,-0.972,2433.93,23.388,-5.371,-16.338,-0.206,-0.605,0.769,4.219,7.319,4.944,9.788,-1.130,18.672,10.809,0.468,0.842,0.267,9.677,-15.359,14.718,12.305,none
5.082297,0.931,0.053,-0.361,2299.49,22.269,-16.786,0.783,-0.789,-0.470,0.396,0.958,0.175,-0.226,2292.76,22.605,-12.981,-3.469,-0.854,-0.500,0.142,0.262,-0.849,-0.458,2362.22,14.883,-19.695,11.079,-0.176,0.750,0.638,0.131,0.194,-0.972,2382.21,6.043,7.050,-16.898,-0.210,-0.599,0.773,3.096,7.278,4.738,9.220,3.221,10.275,8.962,0.346,0.894,0.285,8.801,-9.695,5.053,9.649,none
5.103337,0.955,-0.022,-0.294,2084.97,12.310,-12.981,-0.895,-0.789,-0.506,0.347,0.969,0.077,-0.236,2156.36,10.743,-6.938,-3.581,-0.845,-0.510,0.160,0.293,-0.846,-0.447,2315.73,0.224,-8.952,3.805,-0.109,0.773,0.625,0.111,0.200,-0.974,2369.52,-7.162,5.819,-13.764,-0.184,-0.587,0.788,3.352,7.652,4.911,9.690,6.824,-3.160,-0.565,0.376,0.885,0.273,9.127,-5.084,-6.168,0.855,none
5.124720,0.938,0.037,-0.345,2260.81,-0.336,-2.238,-2.350,-0.797,-0.475,0.373,0.965,0.137,-0.224,2225.83,-1.007,1.567,-1.455,-0.854,-0.503,0.130,0.267,-0.844,-0.464,2353.39,-8.617,-1.231,-0.112,-0.098,0.731,0.675,0.181,0.308,-0.934,2364.17,-17.569,-1.902,-8.952,-0.200,-0.605,0.770,4.752,7.676,4.913,10.278,6.626,-7.282,-5.496,0.497,0.832,0.245,10.263,-6.626,-9.237,-3.115,none
5.145454,0.912,0.109,-0.395,2474.97,-6.379,1.119,1.679,-0.789,-0.461,0.405,0.931,0.290,-0.222,2506.97,-5.483,4.700,1.790,-0.840,-0.532,0.108,0.277,-0.796,-0.539,2484.37,-9.624,-0.560,-3.581,-0.135,0.756,0.640,0.182,0.352,-0.918,2457.33,-11.862,12.533,-14.324,-0.220,-0.608,0.763,5.325,8.052,5.011,10.876,4.336,-2.794,-3.664,0.515,0.832,0.206,10.467,-9.160,-3.267,-0.809,none
5.166827,0.909,0.196,-0.369,2517.97,-4.812,-4.364,0.783,-0.775,-0.478,0.414,0.937,0.277,-0.212,2584.17,8.281,-2.014,0.671,-0.849,-0.467,0.247,0.265,-0.785,-0.559,2516.04,-6.826,-9.064,-1.007,-0.080,0.780,0.620,0.208,0.368,-0.906,2535.01,3.805,17.122,-25.179,-0.204,-0.614,0.763,5.775,8.387,5.049,11.366,0.351,5.298,-6.702,0.515,0.832,0.206,11.095,-11.069,3.130,-4.427,none
5.186693,0.885,0.263,-0.384,2594.11,-0.671,-1.902,3.021,-0.785,-0.471,0.403,0.891,0.341,-0.300,2676.41,10.967,9.288,10.183,-0.856,-0.495,0.151,0.300,-0.788,-0.538,2360.88,10.631,-3.693,-0.560,-0.092,0.747,0.658,0.095,0.394,-0.914,2642.25,13.653,-12.310,-14.100,-0.209,-0.596,0.775,6.548,8.356,5.507,11.959,-4.229,19.069,-10.290,0.572,0.790,0.222,10.898,-17.695,18.443,-7.832,none
5.209854,0.875,0.250,-0.414,2646.59,17.122,0.224,15.555,-0.775,-0.492,0.397,0.920,0.351,-0.175,2122.02,18.800,-5.819,17.681,-0.875,-0.476,0.092,0.437,-0.730,-0.526,2226.15,25.291,-1.231,-6.938,-0.104,0.753,0.650,0.317,0.526,-0.789,2896.00,1.679,-13.876,11.079,-0.177,-0.590,0.788,6.342,7.597,5.198,11.178,-7.115,38.031,-7.802,0.601,0.773,0.204,10.844,-16.901,33.176,-8.015,none
5.227859,0.862,0.290,-0.416,2584.69,41.069,0.783,17.010,-0.763,-0.507,0.401,0.864,0.440,-0.244,2760.89,29.879,3.581,25.403,-0.868,-0.479,0.132,0.315,-0.744,-0.589,2589.79,31.669,-23.612,-14.772,-0.121,0.762,0.637,0.158,0.262,-0.952,2402.43,47.224,20.255,-19.807,-0.188,-0.577,0.795,4.070,6.958,4.554,9.258,-3.954,39.786,4.977,0.473,0.846,0.248,9.461,-8.656,36.718,3.298,none
5.249645,0.930,0.038,-0.367,2396.89,39.279,-2.126,0.000,-0.778,-0.419,0.468,0.957,0.110,-0.267,2491.09,40.398,-3.245,2.014,-0.854,-0.494,0.160,0.204,-0.875,-0.438,2695.92,30.550,-26.410,-6.826,-0.114,0.795,0.596,0.113,0.164,-0.980,2413.14,47.448,5.483,-24.955,-0.199,-0.601,0.774,2.476,7.544,5.420,9.614,4.061,26.214,7.084,0.272,0.885,0.378,9.376,-4.626,21.679,5.084,none
5.270042,0.932,-0.187,-0.311,2286.08,29.991,-2.014,-3.581,-0.783,-0.458,0.420,0.962,-0.035,-0.269,2252.49,20.814,0.112,0.671,-0.874,-0.448,0.190,0.238,-0.898,-0.369,2352.87,9.624,-14.100,-1.007,-0.113,0.777,0.619,0.130,0.112,-0.985,2470.65,41.405,15.667,-14.548,-0.170,-0.576,0.800,2.720,8.016,5.722,10.217,4.733,9.634,-5.298,0.293,0.878,0.378,9.733,-7.817,5.725,-5.420,none
5.291620,0.930,-0.103,-0.352,2439.11,10.295,3.917,4.476,-0.807,-0.449,0.384,0.963,0.021,-0.269,2363.70,9.176,3.469,7.274,-0.876,-0.454,0.165,0.278,-0.883,-0.378,2372.32,0.560,-4.029,-6.491,-0.123,0.780,0.614,0.165,0.222,-0.961,2481.98,-15.107,5.260,1.343,-0.192,-0.548,0.814,3.778,7.966,5.286,10.280,4.885,-2.198,-12.397,0.398,0.867,0.300,10.112,-9.450,-6.702,-9.771,none
5.312318,0.928,0.053,-0.370,2507.76,-6.267,2.686,9.512,-0.788,-0.412,0.458,0.955,0.169,-0.242,2545.55,-1.902,4.476,9.960,-0.880,-0.441,0.177,0.249,-0.841,-0.480,2605.49,-2.574,4.700,-7.833,-0.072,0.778,0.624,0.168,0.268,-0.949,2492.31,-11.526,0.671,8.057,-0.193,-0.591,0.783,4.812,7.831,5.315,10.618,5.969,-5.038,-10.443,0.489,0.835,0.250,10.258,-7.420,-10.015,-7.969,none
5.334109,0.904,0.170,-0.393,2510.78,-8.729,2.126,5.595,-0.792,-0.464,0.397,0.935,0.249,-0.252,2600.43,-5.260,3.245,4.364,-0.860,-0.476,0.181,0.254,-0.813,-0.524,2552.04,-1.790,2.126,-1.902,-0.070,0.788,0.612,0.155,0.303,-0.940,2503.44,3.693,3.245,8.057,-0.189,-0.597,0.779,5.231,7.982,5.672,11.102,5.313,0.458,-7.252,0.499,0.822,0.273,10.600,-5.496,-3.160,-5.466,none
5.356052,0.907,0.115,-0.404,2511.90,-2.126,2.238,2.126,-0.801,-0.458,0.385,0.943,0.232,-0.240,2486.69,0.783,0.000,3.133,-0.874,-0.458,0.163,0.260,-0.833,-0.488,2420.47,4.812,-1.679,-1.902,-0.102,0.779,0.619,0.142,0.287,-0.947,2538.43,20.143,2.798,3.693,-0.168,-0.562,0.810,4.855,7.851,5.574,10.783,2.137,8.092,-7.237,0.481,0.830,0.283,10.326,-7.771,2.977,-7.573,none
5.378499,0.911,0.103,-0.400,2415.10,6.267,3.469,7.274,-0.805,-0.435,0.404,0.946,0.216,-0.240,2405.84,6.043,2.014,9.400,-0.864,-0.478,0.160,0.270,-0.821,-0.503,2444.43,9.176,-2.126,-3.581,-0.079,0.821,0.565,0.177,0.238,-0.955,2485.53,16.003,0.224,-0.112,-0.180,-0.574,0.799,4.197,7.482,5.136,9.998,1.191,10.366,-5.649,0.460,0.844,0.275,9.819,-7.985,6.122,-5.145,none
5.398849,0.920,0.063,-0.387,2400.76,8.057,3.133,4.364,-0.813,-0.451,0.368,0.949,0.184,-0.256,2448.72,8.841,4.252,5.036,-0.862,-0.472,0.186,0.270,-0.829,-0.490,2470.42,5.595,-3.245,-6.379,-0.118,0.808,0.577,0.159,0.225,-0.961,2448.95,11.750,-2.686,0.448,-0.195,-0.572,0.796,3.931,7.594,5.100,9.957,6.351,4.687,-6.305,0.423,0.862,0.279,9.692,-5.038,1.511,-5.191,none
5.420026,0.937,0.052,-0.347,2336.31,3.245,1.679,1.790,-0.800,-0.455,0.391,0.962,0.161,-0.222,2378.04,5.595,3.917,2.910,-0.878,-0.440,0.187,0.281,-0.841,-0.463,2446.63,1.679,-2.350,-8.841,-0.083,0.787,0.611,0.160,0.223,-0.962,2429.40,11.638,-0.783,3.021,-0.212,-0.550,0.808,3.929,7.985,5.576,10.502,5.573,3.924,-8.794,0.405,0.863,0.304,10.012,-4.656,-0.015,-7.450,none
5.440126,0.932,0.022,-0.362,2402.31,0.671,5.148,3.021,-0.806,-0.415,0.422,0.964,0.131,-0.232,2401.68,4.141,5.819,3.357,-0.890,-0.433,0.147,0.293,-0.846,-0.446,2384.87,1.455,0.448,-9.288,-0.116,0.780,0.615,0.167,0.221,-0.961,2450.93,13.988,3.133,5.260,-0.186,-0.549,0.815,4.207,7.843,5.394,10.407,4.168,4.244,-10.977,0.419,0.859,0.294,9.986,-5.282,-2.412,-10.137,none
5.460261,0.925,0.058,-0.375,2450.80,-0.448,6.714,5.707,-0.804,-0.447,0.392,0.962,0.163,-0.219,2406.59,1.679,6.938,6.714,-0.874,-0.438,0.208,0.274,-0.842,-0.465,2475.85,1.231,5.371,-11.638,-0.124,0.786,0.606,0.158,0.220,-0.963,2466.92,8.841,2.574,2.686,-0.192,-0.548,0.814,4.159,7.669,5.334,10.225,5.557,1.557,-8.504,0.452,0.845,0.286,10.101,-3.389,-5.160,-7.679,none
5.481459,0.917,0.091,-0.388,2515.89,-3.133,5.371,2.126,-0.787,-0.441,0.431,0.950,0.176,-0.258,2613.13,-0.112,7.498,1.455,-0.887,-0.412,0.211,0.264,-0.837,-0.479,2607.94,-3.357,3.581,-9.512,-0.130,0.786,0.604,0.179,0.201,-0.963,2506.21,5.707,5.483,3.021,-0.203,-0.543,0.815,4.391,8.056,5.653,10.777,6.183,-2.718,-5.084,0.442,0.847,0.295,10.589,-3.145,-6.840,-2.992,none
5.503217,0.922,0.073,-0.380,2597.36,-3.693,2.574,-1.679,-0.807,-0.416,0.420,0.956,0.164,-0.242,2625.91,-1.679,2.798,-1.679,-0.869,-0.474,0.140,0.268,-0.840,-0.472,2565.91,-3.245,2.574,-4.812,-0.123,0.780,0.614,0.059,0.242,-0.968,2766.13,3.357,-7.722,8.841,-0.197,-0.542,0.817,4.575,8.401,5.892,11.235,3.008,-1.420,-2.550,0.437,0.847,0.303,10.915,-6.595,-5.786,-1.053,none
5.522439,0.918,0.057,-0.393,2662.72,-1.007,0.671,-0.671,-0.798,-0.468,0.379,0.954,0.171,-0.246,2630.74,-2.014,-0.560,-0.336,-0.862,-0.467,0.196,0.271,-0.841,-0.469,2538.85,0.336,2.574,0.560,-0.114,0.784,0.610,0.181,0.254,-0.950,2591.28,2.798,-0.224,3.357,-0.191,-0.544,0.817,4.693,8.088,5.708,10.955,-0.427,1.420,-1.084,0.452,0.842,0.296,10.625,-11.328,-3.389,0.458,none
5.542529,0.917,0.095,-0.388,2516.72,-0.560,-6.826,3.917,-0.798,-0.446,0.406,0.948,0.203,-0.245,2556.01,0.448,-6.043,2.014,-0.905,-0.384,0.181,0.284,-0.826,-0.487,2488.96,5.931,1.455,3.469,-0.069,0.816,0.575,0.161,0.199,-0.967,2476.59,12.757,-7.050,1.119,-0.219,-0.531,0.818,4.310,7.688,5.389,10.331,0.260,4.565,1.344,0.457,0.846,0.275,10.005,-10.244,-1.618,2.260,none
5.562311,0.923,0.087,-0.376,2415.07,2.350,-6.602,1.343,-0.807,-0.442,0.391,0.956,0.185,-0.228,2442.51,3.469,-7.498,-0.783,-0.878,-0.440,0.187,0.273,-0.834,-0.480,2524.06,7.162,0.224,2.910,-0.093,0.810,0.579,0.143,0.209,-0.968,2454.64,11.526,-10.407,-1.119,-0.175,-0.538,0.825,4.180,7.712,5.420,10.311,3.069,3.756,1.038,0.428,0.855,0.293,9.896,-8.718,-2.305,1.954,none
5.585252,0.927,0.047,-0.372,2360.62,3.357,-4.812,0.895,-0.815,-0.408,0.411,0.960,0.157,-0.231,2371.14,3.245,-5.260,-0.448,-0.892,-0.407,0.194,0.282,-0.836,-0.471,2401.91,6.043,0.671,2.462,-0.142,0.784,0.604,0.142,0.208,-0.968,2463.35,13.429,-11.414,-0.895,-0.179,-0.529,0.829,4.168,7.539,5.531,10.237,2.718,4.382,-0.595,0.448,0.841,0.302,9.876,-8.183,-1.145,0.046,none
5.604692,0.920,0.072,-0.386,2378.93,1.902,-3.357,2.014,-0.800,-0.460,0.386,0.950,0.195,-0.244,2365.26,2.238,-2.686,1.679,-0.905,-0.384,0.181,0.291,-0.840,-0.459,2402.52,6.491,0.783,0.895,-0.118,0.808,0.577,0.111,0.175,-0.978,2368.23,7.050,-11.638,-1.119,-0.197,-0.525,0.828,3.682,7.393,5.356,9.844,4.580,4.366,3.603,0.422,0.852,0.310,9.529,-5.573,-2.214,4.168,none
5.625797,0.920,0.022,-0.392,2391.29,5.148,-3.805,-3.357,-0.794,-0.422,0.439,0.955,0.138,-0.264,2413.26,5.036,0.448,-2.910,-0.883,-0.436,0.172,0.262,-0.861,-0.435,2513.20,0.671,-1.679,-0.671,-0.086,0.780,0.620,0.150,0.192,-0.970,2458.47,9.960,-4.812,0.112,-0.176,-0.531,0.829,3.723,7.884,5.514,10.316,7.618,-3.908,-2.092,0.383,0.870,0.310,9.884,-4.427,-8.809,0.290,none
5.648771,0.940,-0.003,-0.342,2339.41,-2.462,-1.343,-0.560,-0.791,-0.448,0.417,0.966,0.117,-0.229,2346.02,-4.476,-0.112,0.000,-0.872,-0.442,0.210,0.309,-0.829,-0.465,2349.85,-2.350,1.567,0.671,-0.124,0.797,0.591,0.148,0.209,-0.967,2497.35,-0.783,-8.281,3.245,-0.184,-0.520,0.834,5.179,6.215,6.342,10.280,8.779,-3.924,-1.221,0.563,0.759,0.328,9.163,3.130,-12.000,-4.107,none
5.668450,0.837,0.245,-0.490,2335.63,-1.007,7.386,4.141,-0.800,-0.436,0.412,0.921,0.143,-0.362,2406.53,-5.483,12.645,-0.560,-0.884,-0.416,0.213,0.092,-0.955,-0.282,2347.74,8.281,23.724,-14.995,-0.124,0.786,0.606,0.326,0.146,-0.934,2364.52,33.012,57.072,-1.790,-0.176,-0.521,0.835,0.893,7.853,4.606,9.148,-0.611,-0.336,8.611,0.187,0.908,0.375,9.981,4.519,-14.000,10.214,none
5.689747,0.911,-0.332,-0.245,2467.94,3.693,2.126,-23.500,-0.810,-0.422,0.407,0.907,-0.197,-0.371,2692.05,-2.238,11.079,-15.667,-0.906,-0.371,0.205,0.436,-0.725,-0.532,2183.46,-19.919,16.450,16.003,-0.140,0.804,0.577,0.146,0.340,-0.929,2599.97,-48.791,9.288,9.624,-0.188,-0.532,0.825,4.463,8.583,5.318,11.039,9.786,-23.557,-19.832,0.447,0.863,0.236,10.461,-9.802,-32.260,-14.656,none
5.711149,0.916,0.169,-0.365,2518.30,-24.955,5.148,17.122,-0.813,-0.424,0.399,0.942,0.332,-0.054,2333.09,-14.995,6.938,9.960,-0.863,-0.460,0.211,0.348,-0.811,-0.471,2426.37,-11.079,15.779,-16.338,-0.138,0.816,0.562,0.195,0.239,-0.951,2549.46,24.284,7.162,20.255,-0.217,-0.527,0.822,6.428,8.176,5.397,11.717,-3.466,-3.740,-17.191,0.573,0.803,0.168,10.981,-11.618,-5.985,-11.298,none
5.732674,0.886,0.261,-0.384,2725.00,-3.245,6.602,12.086,-0.807,-0.444,0.389,0.930,0.315,-0.190,2775.33,-3.693,9.960,9.288,-0.877,-0.434,0.206,0.323,-0.809,-0.491,2588.27,2.350,20.703,-11.302,-0.180,0.771,0.611,0.189,0.248,-0.950,2581.66,-7.945,14.883,0.560,-0.214,-0.538,0.815,4.743,7.592,5.310,10.408,7.267,4.351,1.221,0.487,0.829,0.275,10.692,0.901,-3.969,2.015,none
5.754641,0.907,0.115,-0.404,2682.62,1.567,2.238,-3.805,-0.816,-0.416,0.400,0.939,0.197,-0.280,2830.48,3.133,7.610,-4.924,-0.875,-0.454,0.168,0.215,-0.863,-0.457,3016.31,-1.007,4.476,-6.938,-0.127,0.778,0.615,0.185,0.122,-0.975,2586.28,-11.079,18.464,-3.581,-0.204,-0.531,0.823,3.680,8.083,6.055,10.749,7.481,-7.893,12.153,0.377,0.851,0.366,10.822,1.542,-12.580,13.389,none
5.777598,0.920,-0.080,-0.383,2655.25,-0.448,-8.952,-14.100,-0.804,-0.445,0.394,0.954,0.044,-0.296,2705.31,-5.371,-3.133,-15.891,-0.882,-0.438,0.176,0.262,-0.895,-0.360,2516.53,-12.757,-3.021,10.631,-0.178,0.785,0.593,0.155,0.161,-0.975,2568.19,-25.515,2.126,-2.798,-0.232,-0.551,0.802,3.390,8.449,6.232,11.033,5.328,-15.847,8.809,0.333,0.871,0.362,10.374,-6.397,-18.977,9.389,none
5.796037,0.932,-0.082,-0.354,2455.79,-13.429,-9.736,-7.050,-0.791,-0.462,0.402,0.972,0.059,-0.226,2340.45,-15.891,-8.952,-8.617,-0.884,-0.432,0.180,0.298,-0.882,-0.366,2342.56,-13.093,4.924,15.555,-0.070,0.806,0.587,0.175,0.213,-0.961,2449.05,-34.803,1.343,4.924,-0.189,-0.542,0.819,3.761,7.585,5.145,9.907,1.817,-18.962,1.618,0.415,0.863,0.288,9.760,-10.092,-26.031,3.969,none
5.815316,0.929,0.087,-0.360,2304.02,-18.353,-10.183,0.224,-0.827,-0.434,0.358,0.953,0.212,-0.216,2356.39,-22.157,-3.917,-4.029,-0.899,-0.411,0.152,0.325,-0.807,-0.494,2390.42,-15.331,15.667,9.512,-0.143,0.763,0.631,0.170,0.270,-0.948,2411.55,-33.348,-4.924,12.757,-0.225,-0.563,0.795,4.645,7.578,4.853,10.127,6.183,-20.321,-2.214,0.488,0.849,0.205,9.741,-8.137,-27.725,1.939,none
5.836642,0.916,0.173,-0.362,2348.22,-20.255,-7.162,0.895,-0.801,-0.463,0.380,0.936,0.290,-0.197,2431.58,-21.262,-2.686,-4.364,-0.863,-0.485,0.142,0.339,-0.766,-0.546,2430.54,-14.995,14.883,6.602,-0.121,0.750,0.650,0.193,0.326,-0.925,2471.86,-16.338,8.169,12.086,-0.213,-0.559,0.801,5.358,7.669,4.865,10.545,8.260,-15.969,-1.863,0.530,0.828,0.181,10.251,-3.954,-23.023,1.328,none
5.857671,0.902,0.225,-0.369,2460.54,-16.338,-4.252,-2.798,-0.794,-0.439,0.420,0.930,0.317,-0.188,2501.20,-13.205,1.455,-6.826,-0.881,-0.454,0.132,0.335,-0.752,-0.567,2549.64,-13.093,11.079,1.231,-0.123,0.804,0.582,0.203,0.295,-0.934,2502.65,-3.917,10.967,6.043,-0.227,-0.577,0.785,5.181,7.752,5.042,10.600,10.015,-7.832,3.817,0.522,0.829,0.202,10.393,0.718,-15.405,5.130,none
5.878399,0.905,0.178,-0.387,2550.18,-4.924,-2.014,-9.400,-0.784,-0.449,0.429,0.948,0.231,-0.219,2587.72,-4.476,3.245,-11.862,-0.855,-0.495,0.155,0.299,-0.800,-0.520,2592.44,-10.855,2.350,-1.679,-0.133,0.806,0.577,0.207,0.279,-0.938,2542.41,-11.862,11.302,0.671,-0.220,-0.564,0.796,4.951,8.265,5.569,11.128,10.046,-5.252,5.710,0.461,0.842,0.281,10.968,-1.740,-11.252,7.053,none
5.899696,0.916,0.069,-0.396,2614.82,-1.790,-4.364,-8.393,-0.770,-0.500,0.396,0.956,0.184,-0.229,2564.90,-1.902,-1.119,-8.729,-0.876,-0.467,0.123,0.318,-0.813,-0.488,2442.30,-6.938,-1.007,6.155,-0.189,0.734,0.653,0.208,0.291,-0.934,2532.90,-23.053,-8.729,-2.238,-0.221,-0.558,0.800,4.650,8.068,5.471,10.800,5.863,-2.183,6.626,0.464,0.846,0.261,10.442,-7.954,-9.664,7.817,none
5.920295,0.913,0.094,-0.397,2537.65,-1.231,-9.064,-2.910,-0.801,-0.467,0.376,0.952,0.210,-0.225,2524.07,-1.231,-3.693,-5.707,-0.868,-0.472,0.153,0.290,-0.824,-0.488,2543.58,-5.036,0.224,3.581,-0.127,0.773,0.622,0.181,0.287,-0.941,2534.40,-12.422,-4.029,-0.895,-0.214,-0.593,0.776,4.726,7.786,5.279,10.527,6.336,-3.053,5.710,0.477,0.843,0.248,10.177,-7.069,-9.817,6.992,none
5.942204,0.914,0.122,-0.387,2448.70,-2.910,-9.512,-3.133,-0.777,-0.449,0.441,0.946,0.227,-0.230,2508.50,-2.014,-6.602,-5.707,-0.847,-0.506,0.161,0.305,-0.799,-0.518,2547.00,-5.148,-2.462,7.386,-0.108,0.813,0.572,0.172,0.273,-0.946,2487.25,-4.812,-4.252,-2.798,-0.219,-0.622,0.752,4.604,7.487,5.248,10.237,7.344,-1.863,9.008,0.492,0.833,0.253,9.890,-4.275,-8.214,8.992,none
5.963596,0.911,0.125,-0.394,2383.67,-1.343,-8.952,-6.379,-0.801,-0.443,0.402,0.949,0.219,-0.226,2416.92,1.007,-4.924,-9.848,-0.842,-0.520,0.141,0.281,-0.831,-0.480,2483.10,-6.602,-8.169,6.714,-0.125,0.759,0.639,0.168,0.264,-0.950,2428.81,-8.841,-5.931,-6.602,-0.224,-0.591,0.775,4.106,7.434,5.128,9.921,8.687,-3.969,7.939,0.442,0.853,0.278,9.595,-1.450,-11.038,7.450,none
5.987858,0.917,0.027,-0.399,2302.83,-0.895,-6.155,-9.288,-0.794,-0.485,0.367,0.956,0.159,-0.245,2277.21,-3.357,-4.029,-10.072,-0.836,-0.534,0.128,0.298,-0.809,-0.506,2275.10,-7.945,-1.119,9.288,-0.165,0.759,0.630,0.149,0.294,-0.944,2411.85,-7.610,1.231,-0.671,-0.210,-0.584,0.784,4.446,7.590,5.497,10.372,9.130,-6.427,0.382,0.480,0.828,0.292,10.036,-4.122,-12.107,1.206,none
6.007887,0.900,0.092,-0.427,2402.29,-7.274,-3.581,-1.007,-0.784,-0.453,0.424,0.940,0.230,-0.254,2390.22,-4.252,-2.462,-2.126,-0.853,-0.493,0.172,0.286,-0.829,-0.481,2373.38,-5.036,0.336,2.126,-0.160,0.736,0.658,0.184,0.284,-0.941,2429.24,-4.029,2.574,2.798,-0.224,-0.582,0.782,4.721,7.678,5.332,10.473,6.519,-3.802,-0.412,0.485,0.831,0.271,10.226,-6.947,-8.962,1.389,none
6.028275,0.906,0.097,-0.411,2469.42,-3.133,-5.371,0.560,-0.788,-0.478,0.388,0.948,0.214,-0.237,2473.61,-2.014,-3.693,-1.455,-0.847,-0.506,0.164,0.278,-0.822,-0.498,2511.93,-1.679,2.462,1.902,-0.172,0.737,0.654,0.168,0.276,-0.946,2498.70,-4.700,-5.707,1.455,-0.212,-0.575,0.790,4.602,7.719,5.200,10.383,8.183,-5.328,-0.260,0.480,0.842,0.247,10.052,-6.198,-10.840,1.405,none
6.049870,0.911,0.115,-0.397,2436.57,-3.581,-5.371,0.000,-0.782,-0.491,0.385,0.945,0.227,-0.235,2501.36,-3.693,-2.350,-2.014,-0.865,-0.487,0.126,0.274,-0.813,-0.513,2549.93,-3.693,0.112,3.469,-0.209,0.759,0.617,0.175,0.298,-0.938,2508.69,-9.624,-1.902,1.567,-0.210,-0.591,0.779,4.944,7.913,5.320,10.740,7.496,-5.542,-0.550,0.491,0.832,0.257,10.500,-5.573,-10.534,1.053,none
6.071048,0.902,0.110,-0.417,2535.33,-5.036,-4.812,-0.224,-0.765,-0.481,0.428,0.944,0.231,-0.234,2504.37,-3.357,-3.805,-1.343,-0.842,-0.510,0.177,0.288,-0.813,-0.505,2454.97,-2.238,0.671,5.260,-0.140,0.767,0.627,0.185,0.319,-0.930,2532.11,-4.588,-2.350,1.679,-0.249,-0.617,0.747,5.174,7.951,5.296,10.864,5.038,-2.397,-0.351,0.501,0.832,0.238,10.382,-7.328,-8.748,0.000,none
6.091439,0.897,0.139,-0.419,2495.53,-3.245,-4.812,2.014,-0.772,-0.481,0.416,0.935,0.265,-0.237,2518.22,-2.910,-4.700,0.671,-0.850,-0.498,0.173,0.285,-0.794,-0.536,2513.01,0.336,1.119,4.924,-0.176,0.750,0.638,0.180,0.313,-0.933,2484.54,-1.902,-3.693,1.119,-0.195,-0.611,0.767,4.963,7.491,4.786,10.181,4.550,-0.824,0.824,0.518,0.825,0.225,10.237,-7.786,-7.450,1.450,none
6.110773,0.899,0.163,-0.406,2433.66,-3.357,-7.050,1.455,-0.794,-0.482,0.372,0.935,0.273,-0.225,2475.17,-0.895,-6.155,-1.119,-0.866,-0.483,0.129,0.284,-0.795,-0.536,2497.14,0.448,-1.902,4.588,-0.110,0.747,0.655,0.180,0.313,-0.933,2484.54,-1.231,-2.798,-0.112,-0.210,-0.600,0.772,5.052,7.695,5.069,10.508,6.672,1.756,1.328,0.508,0.834,0.217,10.000,-5.527,-4.427,1.344,none
6.134508,0.907,0.159,-0.391,2372.79,-0.671,-5.595,-0.671,-0.768,-0.497,0.403,0.944,0.252,-0.210,2368.50,1.679,-5.819,-1.790,-0.871,-0.475,0.121,0.311,-0.798,-0.516,2366.92,3.021,-3.357,4.700,-0.100,0.783,0.614,0.182,0.316,-0.931,2456.58,0.112,-0.895,-3.021,-0.207,-0.591,0.779,4.855,7.666,5.009,10.365,6.168,5.664,0.458,0.503,0.833,0.233,10.101,-4.519,-1.023,-0.504,none
6.156420,0.902,0.144,-0.406,2405.86,4.029,-0.895,0.336,-0.781,-0.466,0.417,0.944,0.255,-0.209,2380.48,4.812,-1.231,0.895,-0.859,-0.481,0.173,0.307,-0.796,-0.522,2434.49,4.924,-2.686,0.336,-0.160,0.779,0.607,0.187,0.293,-0.938,2449.80,2.126,0.560,-4.141,-0.205,-0.600,0.774,4.673,7.623,5.011,10.250,7.618,6.962,0.000,0.490,0.841,0.229,9.929,-3.038,0.672,-0.870,none
6.175974,0.907,0.107,-0.407,2423.31,5.931,0.000,-0.895,-0.772,-0.485,0.412,0.946,0.225,-0.233,2436.37,6.491,0.112,0.224,-0.857,-0.485,0.175,0.292,-0.811,-0.507,2486.04,3.693,-3.693,-2.014,-0.172,0.776,0.607,0.179,0.280,-0.943,2456.81,3.581,2.238,-5.036,-0.204,-0.605,0.770,4.391,7.817,5.073,10.302,8.641,5.649,0.198,0.456,0.851,0.260,10.149,-2.901,-1.649,-0.275,none
6.196807,0.911,0.069,-0.406,2478.28,5.260,-0.448,-1.343,-0.800,-0.455,0.391,0.950,0.194,-0.244,2478.64,5.819,0.895,-0.895,-0.826,-0.539,0.164,0.276,-0.822,-0.498,2490.21,1.007,-4.141,-3.581,-0.178,0.713,0.678,0.183,0.314,-0.932,2508.13,-0.560,-0.224,-3.133,-0.205,-0.586,0.784,5.217,7.872,5.499,10.928,7.893,3.710,-1.420,0.515,0.819,0.254,10.477,-5.069,-1.008,-1.557,none
6.216830,0.892,0.175,-0.416,2487.44,0.671,-1.231,2.462,-0.775,-0.477,0.414,0.934,0.273,-0.229,2476.50,3.805,-1.567,2.238,-0.859,-0.476,0.187,0.303,-0.839,-0.453,2369.30,3.581,-7.274,-0.112,-0.135,0.774,0.619,0.185,0.294,-0.938,2479.92,1.455,3.133,-5.931,-0.221,-0.597,0.771,4.362,7.748,5.124,10.262,5.466,8.748,0.305,0.462,0.850,0.253,10.056,-5.008,2.061,0.076,none
6.237526,0.919,0.058,-0.389,2412.31,7.945,-1.231,0.000,-0.761,-0.484,0.431,0.948,0.174,-0.265,2471.66,8.169,-0.336,1.343,-0.869,-0.465,0.169,0.284,-0.810,-0.514,2490.25,5.707,-3.133,-1.455,-0.085,0.774,0.628,0.177,0.293,-0.940,2486.82,3.245,-1.119,-5.707,-0.230,-0.582,0.780,4.666,7.920,5.428,10.675,4.473,7.527,-2.626,0.468,0.842,0.268,10.168,-7.496,1.160,-2.901,none
6.257750,0.908,0.103,-0.405,2410.03,4.924,0.000,3.917,-0.777,-0.468,0.420,0.948,0.224,-0.228,2402.06,5.707,-1.567,4.476,-0.845,-0.504,0.180,0.278,-0.835,-0.475,2403.00,5.931,-4.476,-1.231,-0.142,0.784,0.604,0.171,0.310,-0.935,2508.28,5.483,0.671,-3.469,-0.213,-0.584,0.783,5.035,7.748,5.320,10.662,4.046,9.130,-5.832,0.510,0.822,0.253,10.445,-8.183,3.939,-5.389,none
6.278940,0.889,0.135,-0.437,2506.33,7.610,2.462,5.931,-0.783,-0.474,0.402,0.931,0.265,-0.252,2519.61,7.610,0.112,7.945,-0.850,-0.511,0.128,0.281,-0.800,-0.531,2484.98,11.414,-4.252,-3.581,-0.177,0.776,0.605,0.176,0.320,-0.931,2488.33,9.512,-0.671,-4.812,-0.210,-0.575,0.791,5.145,7.638,5.033,10.494,2.092,14.641,-4.397,0.519,0.826,0.220,10.227,-10.076,7.817,-4.672,none
6.299781,0.895,0.167,-0.413,2435.42,11.638,0.000,7.610,-0.791,-0.466,0.397,0.937,0.268,-0.223,2448.12,12.422,-2.350,8.281,-0.862,-0.492,0.121,0.292,-0.789,-0.540,2457.11,13.764,-6.491,-2.686,-0.106,0.778,0.620,0.177,0.329,-0.927,2476.85,13.093,-2.910,-7.610,-0.220,-0.578,0.786,5.298,7.594,5.160,10.600,4.565,17.176,-3.908,0.543,0.809,0.224,10.350,-9.160,12.534,-3.740,none
6.320551,0.884,0.176,-0.434,2476.50,16.898,0.671,6.267,-0.775,-0.474,0.418,0.925,0.309,-0.221,2472.81,18.688,-1.343,8.505,-0.857,-0.485,0.175,0.284,-0.808,-0.516,2459.32,16.450,-12.757,-3.805,-0.151,0.775,0.613,0.166,0.303,-0.938,2468.86,17.345,-0.895,-12.086,-0.222,-0.592,0.775,4.894,7.547,5.413,10.498,2.504,23.282,-0.763,0.506,0.823,0.259,10.131,-8.351,18.672,-1.695,none
6.340036,0.897,0.074,-0.437,2462.45,22.941,0.224,4.364,-0.784,-0.459,0.418,0.943,0.177,-0.283,2487.79,23.948,0.112,7.050,-0.861,-0.477,0.177,0.264,-0.839,-0.476,2460.67,18.912,-16.003,-4.700,-0.070,0.788,0.612,0.149,0.250,-0.957,2482.32,19.136,3.693,-15.779,-0.222,-0.592,0.775,4.056,7.518,5.674,10.255,4.321,22.198,0.809,0.448,0.839,0.309,9.836,-5.847,18.183,-0.901,none
6.359957,0.905,0.014,-0.426,2410.52,21.486,-0.895,2.798,-0.797,-0.465,0.385,0.942,0.150,-0.300,2477.80,21.822,-0.895,5.595,-0.841,-0.502,0.201,0.237,-0.866,-0.440,2531.41,15.443,-14.548,-4.364,-0.070,0.796,0.601,0.134,0.199,-0.971,2476.25,7.945,0.224,-14.100,-0.194,-0.562,0.804,3.649,7.412,5.660,10.015,5.679,15.740,2.260,0.418,0.846,0.331,9.684,-3.145,12.672,0.198,none
6.379697,0.915,-0.027,-0.403,2373.46,16.114,1.231,-1.343,-0.781,-0.455,0.428,0.957,0.077,-0.280,2408.04,16.450,0.671,0.895,-0.862,-0.477,0.172,0.239,-0.885,-0.399,2544.13,8.281,-13.764,-1.902,-0.153,0.772,0.617,0.138,0.172,-0.975,2465.64,5.483,3.133,-10.631,-0.178,-0.580,0.795,3.146,7.676,5.796,10.120,8.947,6.702,1.389,0.359,0.859,0.366,9.877,-0.962,4.076,0.489,none
6.400658,0.914,-0.106,-0.391,2470.18,8.505,2.350,-4.924,-0.777,-0.449,0.441,0.957,0.032,-0.290,2462.09,7.050,3.581,-1.679,-0.867,-0.464,0.179,0.258,-0.894,-0.367,2474.65,1.007,-6.714,-0.783,-0.109,0.773,0.625,0.162,0.156,-0.974,2467.11,0.000,1.007,-3.581,-0.202,-0.552,0.809,2.969,8.047,5.923,10.424,5.267,-3.771,-1.710,0.322,0.876,0.358,9.918,-3.557,-7.084,-1.496,none
6.420748,0.923,-0.111,-0.369,2437.03,-5.371,1.679,-1.343,-0.793,-0.437,0.425,0.962,0.024,-0.272,2446.84,-1.567,2.910,-1.343,-0.869,-0.454,0.197,0.262,-0.887,-0.380,2516.84,-5.483,2.462,-0.336,-0.077,0.781,0.620,0.181,0.187,-0.965,2469.52,-4.812,2.014,4.924,-0.191,-0.572,0.798,3.323,7.819,5.296,10.012,5.573,-14.473,-5.649,0.368,0.877,0.309,9.810,-4.122,-18.366,-4.733,none
6.441109,0.928,-0.019,-0.373,2412.23,-16.338,3.805,0.112,-0.787,-0.437,0.435,0.962,0.124,-0.244,2447.23,-19.360,2.910,-1.231,-0.868,-0.452,0.207,0.298,-0.835,-0.463,2509.44,-14.100,11.079,2.462,-0.116,0.780,0.615,0.191,0.225,-0.955,2496.28,-11.414,-1.119,12.422,-0.181,-0.589,0.788,4.235,7.906,4.848,10.195,8.840,-24.855,-7.573,0.446,0.864,0.236,10.063,-2.489,-29.344,-4.748,none
6.460760,0.920,0.121,-0.372,2464.82,-26.186,2.350,-2.126,-0.779,-0.428,0.458,0.949,0.236,-0.209,2531.96,-24.619,4.476,-5.483,-0.859,-0.463,0.217,0.281,-0.800,-0.530,2618.39,-23.612,13.093,-0.560,-0.145,0.787,0.600,0.207,0.302,-0.931,2541.50,-15.331,-2.126,17.457,-0.192,-0.588,0.786,5.411,7.961,5.171,10.927,11.069,-24.443,-5.847,0.526,0.826,0.204,10.555,-0.275,-30.031,-3.878,none
6.481453,0.884,0.200,-0.423,2566.17,-26.074,3.245,-4.924,-0.791,-0.469,0.393,0.922,0.316,-0.221,2605.06,-24.619,4.700,-7.162,-0.873,-0.462,0.155,0.292,-0.786,-0.545,2527.34,-22.157,10.407,1.790,-0.058,0.772,0.633,0.175,0.342,-0.923,2561.16,-13.653,-5.595,14.436,-0.222,-0.562,0.797,5.933,7.946,5.440,11.311,9.405,-15.588,-2.580,0.558,0.799,0.225,11.031,-0.595,-20.611,-0.779,none
6.504035,0.870,0.185,-0.457,2673.50,-17.457,2.910,-6.267,-0.791,-0.469,0.393,0.923,0.300,-0.243,2615.67,-14.100,2.686,-7.386,-0.854,-0.494,0.162,0.261,-0.802,-0.538,2489.07,-14.324,2.574,0.895,-0.092,0.747,0.658,0.188,0.343,-0.920,2494.67,-7.050,-3.805,6.379,-0.181,-0.589,0.788,5.454,7.683,5.329,10.825,5.786,-5.710,2.824,0.535,0.809,0.243,10.560,-5.481,-10.397,4.046,none
6.523773,0.882,0.164,-0.443,2539.60,-4.700,-5.707,-4.700,-0.774,-0.452,0.444,0.927,0.271,-0.259,2529.55,-2.574,-4.700,-5.931,-0.876,-0.444,0.189,0.288,-0.788,-0.544,2423.07,-5.707,-2.238,5.819,-0.105,0.781,0.615,0.134,0.307,-0.942,2469.63,8.505,-6.714,3.021,-0.195,-0.582,0.790,4.532,7.391,4.994,10.005,5.252,-2.473,3.237,0.493,0.837,0.239,9.690,-4.870,-7.084,4.000,none
6.543299,0.914,0.105,-0.392,2267.29,-2.350,-4.029,-5.036,-0.761,-0.475,0.442,0.951,0.208,-0.229,2309.98,0.112,-1.679,-6.155,-0.857,-0.485,0.175,0.280,-0.809,-0.517,2419.91,-5.595,-5.707,1.455,-0.106,0.788,0.606,0.151,0.289,-0.945,2450.19,8.617,-1.119,0.560,-0.204,-0.590,0.781,4.465,7.621,5.217,10.258,7.328,-4.641,-0.641,0.467,0.844,0.263,9.953,-3.160,-7.542,1.145,none
6.563602,0.907,0.079,-0.413,2412.85,-2.798,1.007,-4.364,-0.774,-0.467,0.428,0.951,0.198,-0.238,2424.12,-0.671,2.462,-4.588,-0.860,-0.481,0.169,0.280,-0.818,-0.502,2489.79,-9.288,-10.631,-4.029,-0.104,0.764,0.637,0.193,0.289,-0.938,2481.72,5.036,-5.707,1.902,-0.218,-0.574,0.789,4.764,7.985,5.416,10.760,6.611,-5.344,-2.244,0.482,0.837,0.259,10.485,-4.656,-6.336,-0.550,none
6.585011,0.906,0.091,-0.414,2527.16,-2.574,0.560,-2.798,-0.788,-0.455,0.415,0.941,0.231,-0.246,2583.94,0.112,-0.224,-2.798,-0.850,-0.498,0.173,0.278,-0.815,-0.509,2512.62,-9.176,-12.981,-0.112,-0.103,0.750,0.653,0.204,0.294,-0.934,2480.10,19.136,-45.881,0.448,-0.204,-0.575,0.792,4.836,7.750,5.109,10.467,5.664,-1.969,0.794,0.491,0.836,0.244,10.335,-6.137,-4.168,1.466,none
6.606417,0.905,0.128,-0.405,2483.68,-5.148,-5.371,-4.700,-0.781,-0.466,0.417,0.941,0.242,-0.237,2512.64,5.819,-6.267,-4.476,-0.861,-0.482,0.163,0.278,-0.807,-0.521,2511.85,-5.931,-15.779,3.357,-0.136,0.763,0.632,0.182,0.284,-0.941,2460.32,30.886,-26.857,-5.148,-0.188,-0.583,0.790,4.415,7.654,5.030,10.168,5.847,-2.473,1.969,0.468,0.850,0.241,9.863,-5.389,-2.626,2.580,none
6.629618,0.912,0.109,-0.394,2378.20,-5.931,-5.595,-6.602,-0.768,-0.479,0.425,0.948,0.223,-0.226,2419.13,6.379,-7.274,-6.155,-0.855,-0.479,0.200,0.287,-0.788,-0.544,2494.68,-6.826,-18.912,4.924,-0.112,0.736,0.667,0.145,0.254,-0.956,2483.37,44.650,-44.203,2.686,-0.184,-0.565,0.805,4.422,7.772,5.351,10.420,8.687,-5.588,0.809,0.473,0.838,0.273,10.080,-4.275,-0.290,1.634,none
6.650855,0.903,0.070,-0.424,2444.95,-4.141,-2.014,-8.169,-0.775,-0.487,0.403,0.945,0.168,-0.281,2399.27,11.079,-9.512,-7.945,-0.844,-0.511,0.165,0.236,-0.845,-0.480,2501.90,-9.288,-20.479,2.798,-0.038,0.741,0.670,0.156,0.246,-0.957,2563.85,13.317,-26.634,2.014,-0.159,-0.544,0.824,4.547,7.875,5.533,10.644,4.687,-5.939,0.397,0.461,0.832,0.308,10.481,-7.985,1.099,0.672,none
6.671364,0.893,0.036,-0.448,2550.78,-8.281,-6.714,-5.931,-0.754,-0.485,0.443,0.937,0.184,-0.297,2502.08,10.295,-14.883,-2.574,-0.853,-0.484,0.196,0.229,-0.823,-0.520,2403.05,-7.945,-22.269,11.302,-0.074,0.770,0.633,0.177,0.251,-0.952,2473.55,18.800,-23.388,6.379,-0.153,-0.550,0.821,4.654,7.891,5.399,10.634,0.412,-6.992,-1.878,0.477,0.839,0.261,10.064,-12.855,2.046,-0.076,none
6.691263,0.900,0.134,-0.415,2378.90,-9.400,-9.288,-2.350,-0.765,-0.491,0.417,0.935,0.257,-0.244,2403.23,11.191,-15.107,-0.336,-0.859,-0.469,0.207,0.392,-0.786,-0.478,2453.98,-16.114,-1.119,2.238,-0.043,0.742,0.669,0.046,0.217,-0.975,2496.27,21.374,-25.850,9.624,-0.139,-0.559,0.818,5.270,7.685,5.205,10.674,0.260,-4.122,-4.443,0.516,0.814,0.267,10.705,-13.130,1.466,-1.832,none
6.711479,0.874,0.165,-0.458,2585.35,-5.260,-5.371,1.007,-0.791,-0.474,0.386,0.924,0.282,-0.258,2430.43,13.429,-12.086,4.812,-0.857,-0.492,0.154,0.259,-0.724,-0.639,2541.20,3.245,8.057,9.848,-0.094,0.760,0.643,0.051,0.223,-0.973,2428.56,4.700,8.729,-3.021,-0.148,-0.516,0.844,5.382,7.604,5.284,10.710,-0.504,2.015,0.885,0.530,0.825,0.198,9.858,-14.229,9.496,1.466,none
6.732153,0.881,0.210,-0.424,2395.49,6.602,-8.393,4.029,-0.778,-0.486,0.399,0.929,0.266,-0.258,2429.00,13.988,-6.714,4.141,-0.841,-0.495,0.217,0.252,-0.808,-0.532,2495.50,7.050,-4.141,4.252,-0.084,0.756,0.650,0.096,0.188,-0.977,2418.45,-3.133,7.050,-7.274,-0.161,-0.543,0.824,4.578,7.477,5.200,10.193,2.718,11.893,4.809,0.511,0.808,0.293,10.401,-3.756,11.725,0.718,none
