0.002360,BNO0_UnitAccX,BNO0_UnitAccY,BNO0_UnitAccZ,BNO0_RawAccMag,BNO0_GyrX,BNO0_GyrY,BNO0_GyrZ,BNO0_MagX,BNO0_MagY,BNO0_MagZ,BNO1_UnitAccX,BNO1_UnitAccY,BNO1_UnitAccZ,BNO1_RawAccMag,BNO1_GyrX,BNO1_GyrY,BNO1_GyrZ,BNO1_MagX,BNO1_MagY,BNO1_MagZ,BNO2_UnitAccX,BNO2_UnitAccY,BNO2_UnitAccZ,BNO2_RawAccMag,BNO2_GyrX,BNO2_GyrY,BNO2_GyrZ,BNO2_MagX,BNO2_MagY,BNO2_MagZ,BNO3_UnitAccX,BNO3_UnitAccY,BNO3_UnitAccZ,BNO3_RawAccMag,BNO3_GyrX,BNO3_GyrY,BNO3_GyrZ,BNO3_MagX,BNO3_MagY,BNO3_MagZ,MPU0_UnitAccX,MPU0_UnitAccY,MPU0_UnitAccZ,MPU0_RawAccMag,MPU0_GyrX,MPU0_GyrY,MPU0_GyrZ,MPU1_UnitAccX,MPU1_UnitAccY,MPU1_UnitAccZ,MPU1_RawAccMag,MPU1_GyrX,MPU1_GyrY,MPU1_GyrZ,none
0.021218,0.427,-0.490,-0.760,2459.20,-1.007,0.224,-0.560,-0.440,0.325,0.837,0.545,-0.377,-0.749,2464.80,-1.343,-0.112,-0.671,-0.314,0.627,0.713,-0.040,-0.547,-0.836,2472.39,-0.560,0.671,-0.336,-0.145,0.145,-0.979,0.332,-0.113,-0.937,2485.79,-1.567,0.224,-0.448,-0.880,0.420,0.221,0.345,0.185,0.920,10.990,5.679,0.183,-1.542,0.568,0.282,0.773,10.006,-5.557,-4.855,-0.580,none
0.064851,0.428,-0.492,-0.758,2450.85,-0.224,0.000,0.336,-0.459,0.342,0.820,0.545,-0.381,-0.747,2467.85,0.671,-0.224,0.000,-0.328,0.604,0.726,-0.039,-0.554,-0.832,2496.41,-0.671,-0.224,0.224,-0.155,0.115,-0.981,0.328,-0.121,-0.937,2484.84,0.000,0.000,-0.336,-0.868,0.431,0.247,0.345,0.185,0.920,11.013,5.542,-0.061,-1.527,0.568,0.281,0.773,9.992,-5.786,-4.931,-0.046,none
0.088505,0.429,-0.489,-0.760,2445.95,-0.448,-0.448,0.336,-0.448,0.329,0.831,0.544,-0.376,-0.750,2472.30,0.783,-0.224,0.000,-0.321,0.604,0.729,-0.040,-0.552,-0.833,2469.54,-1.231,-0.671,0.448,-0.120,0.130,-0.984,0.329,-0.118,-0.937,2474.27,0.448,-0.112,0.112,-0.851,0.440,0.287,0.345,0.186,0.920,10.988,5.649,0.489,-1.908,0.568,0.282,0.773,10.003,-5.939,-4.351,-0.015,none
0.089638,0.426,-0.489,-0.761,2441.68,0.560,-0.560,0.671,-0.483,0.320,0.815,0.545,-0.381,-0.747,2467.85,1.119,-0.224,0.336,-0.292,0.651,0.701,-0.044,-0.552,-0.833,2469.12,0.112,-0.224,0.671,-0.120,0.130,-0.984,0.329,-0.118,-0.937,2474.27,0.112,0.336,0.224,-0.865,0.411,0.287,0.343,0.182,0.922,10.956,5.710,0.550,-1.847,0.565,0.278,0.777,9.997,-5.863,-4.244,-0.458,none
0.106151,0.424,-0.491,-0.761,2454.95,0.671,-0.112,0.671,-0.459,0.352,0.815,0.539,-0.384,-0.750,2474.49,0.783,0.000,0.112,-0.279,0.622,0.732,-0.044,-0.552,-0.833,2469.12,0.560,0.000,0.000,-0.121,0.112,-0.986,0.323,-0.121,-0.939,2490.96,0.448,-0.448,0.448,-0.863,0.425,0.273,0.345,0.181,0.921,10.975,5.679,0.137,-1.450,0.565,0.277,0.777,10.017,-5.450,-5.069,-0.809,none
0.127337,0.422,-0.493,-0.761,2442.78,0.448,0.224,-0.112,-0.494,0.293,0.818,0.541,-0.385,-0.748,2467.00,-0.336,0.112,-0.336,-0.319,0.552,0.770,-0.044,-0.550,-0.834,2478.29,0.000,0.448,-0.112,-0.113,0.089,-0.990,0.326,-0.114,-0.939,2469.84,0.671,-0.336,0.448,-0.887,0.398,0.233,0.344,0.183,0.921,10.994,5.695,0.412,-1.649,0.568,0.276,0.775,10.032,-5.588,-4.473,-0.763,none
0.148541,0.424,-0.491,-0.761,2454.95,0.000,-0.112,0.336,-0.483,0.320,0.815,0.545,-0.381,-0.747,2467.85,0.671,0.112,0.448,-0.282,0.676,0.681,-0.043,-0.551,-0.833,2492.13,0.112,-0.336,0.224,-0.155,0.137,-0.978,0.323,-0.124,-0.938,2492.06,-0.224,0.448,-0.224,-0.868,0.423,0.259,0.343,0.183,0.921,10.977,5.588,0.061,-1.252,0.569,0.277,0.775,9.997,-5.450,-4.977,-0.473,none
0.172146,0.424,-0.491,-0.761,2454.95,-0.336,-0.224,-0.112,-0.451,0.312,0.836,0.543,-0.380,-0.749,2475.33,0.336,-0.336,-0.112,-0.267,0.690,0.672,-0.047,-0.554,-0.831,2497.28,-0.783,-0.336,0.112,-0.159,0.117,-0.980,0.330,-0.120,-0.936,2498.43,-0.336,0.000,-0.448,-0.870,0.422,0.254,0.346,0.181,0.921,10.999,5.573,0.061,-1.374,0.569,0.279,0.773,10.018,-5.496,-4.931,-0.412,none
0.194856,0.428,-0.487,-0.762,2454.32,-0.112,-0.448,0.000,-0.461,0.324,0.826,0.542,-0.375,-0.752,2479.81,0.336,-0.112,-0.112,-0.341,0.598,0.725,-0.043,-0.548,-0.835,2485.80,-0.448,0.000,0.000,-0.145,0.111,-0.983,0.328,-0.117,-0.937,2484.58,-0.224,0.224,0.000,-0.879,0.412,0.240,0.345,0.185,0.920,10.973,5.725,0.656,-1.908,0.568,0.281,0.774,10.019,-5.802,-4.290,-0.763,none
0.216497,0.424,-0.488,-0.763,2450.06,0.336,0.000,0.336,-0.456,0.315,0.832,0.541,-0.377,-0.752,2466.88,0.560,0.336,0.448,-0.292,0.617,0.731,-0.044,-0.547,-0.836,2471.97,0.783,0.000,0.112,-0.121,0.100,-0.988,0.328,-0.117,-0.937,2484.58,0.448,0.000,0.224,-0.881,0.400,0.251,0.341,0.184,0.922,10.973,5.786,0.595,-1.695,0.565,0.279,0.776,9.985,-5.466,-4.595,-1.557,none
0.239800,0.423,-0.494,-0.760,2459.88,0.783,0.448,0.112,-0.473,0.315,0.823,0.539,-0.384,-0.750,2474.49,-0.783,0.448,0.000,-0.279,0.622,0.732,-0.040,-0.550,-0.834,2477.04,1.231,0.783,-0.783,-0.138,0.128,-0.982,0.326,-0.118,-0.938,2471.00,1.007,-0.671,0.671,-0.890,0.415,0.190,0.345,0.182,0.921,11.002,5.756,0.427,-1.573,0.567,0.280,0.775,10.024,-5.206,-4.718,-2.031,none
0.263197,0.425,-0.493,-0.759,2446.59,0.000,0.671,-0.448,-0.461,0.277,0.843,0.542,-0.383,-0.748,2479.89,-1.007,0.448,0.112,-0.315,0.591,0.743,-0.039,-0.556,-0.830,2488.93,1.343,0.671,-0.671,-0.120,0.118,-0.986,0.324,-0.129,-0.937,2483.95,0.112,-0.336,-0.112,-0.896,0.407,0.178,0.346,0.182,0.920,11.004,5.618,-0.153,-1.069,0.569,0.279,0.774,10.022,-5.053,-5.511,-1.481,none
0.284934,0.429,-0.484,-0.763,2449.47,-1.567,0.336,-0.783,-0.454,0.338,0.824,0.544,-0.373,-0.751,2468.55,-1.119,-0.224,-0.336,-0.315,0.643,0.699,-0.039,-0.551,-0.833,2490.89,0.000,0.448,-0.560,-0.121,0.086,-0.989,0.332,-0.113,-0.937,2485.79,-1.231,0.112,-0.671,-0.888,0.401,0.224,0.346,0.184,0.920,10.974,5.664,0.168,-1.359,0.568,0.281,0.773,10.020,-5.389,-4.840,-0.855,none
0.307166,0.428,-0.487,-0.762,2454.32,-0.112,0.336,0.000,-0.472,0.341,0.813,0.549,-0.378,-0.746,2486.24,0.336,-0.224,0.224,-0.312,0.619,0.721,-0.039,-0.554,-0.832,2496.41,-0.671,-0.224,0.448,-0.110,0.118,-0.987,0.329,-0.118,-0.937,2474.27,0.000,0.224,-0.224,-0.907,0.360,0.217,0.347,0.181,0.920,10.998,5.588,0.198,-1.695,0.569,0.279,0.774,10.023,-5.817,-4.519,-0.244,none
0.330105,0.424,-0.488,-0.763,2450.06,0.000,-0.336,0.560,-0.450,0.303,0.840,0.540,-0.381,-0.751,2469.91,1.007,-0.336,0.224,-0.315,0.629,0.711,-0.044,-0.550,-0.834,2478.29,-0.224,-0.560,0.560,-0.121,0.110,-0.987,0.324,-0.117,-0.939,2481.32,0.783,-0.112,0.112,-0.896,0.398,0.196,0.343,0.183,0.921,11.008,5.588,0.504,-1.924,0.568,0.279,0.774,9.992,-5.878,-4.351,-0.107,none
0.351949,0.428,-0.487,-0.762,2454.32,0.671,-0.336,0.560,-0.472,0.321,0.821,0.540,-0.381,-0.751,2469.91,1.007,0.000,0.224,-0.288,0.636,0.716,-0.044,-0.550,-0.834,2478.29,-0.336,-0.224,0.448,-0.138,0.092,-0.986,0.326,-0.114,-0.939,2469.84,0.671,0.224,0.560,-0.875,0.432,0.219,0.343,0.185,0.921,10.954,5.664,0.870,-2.122,0.568,0.278,0.775,10.013,-5.924,-4.061,-0.672,none
0.377497,0.424,-0.488,-0.763,2450.06,1.007,-0.224,0.671,-0.441,0.352,0.826,0.542,-0.383,-0.748,2479.89,0.448,0.112,0.336,-0.308,0.630,0.713,-0.043,-0.553,-0.832,2482.97,0.895,0.000,0.224,-0.128,0.103,-0.987,0.326,-0.128,-0.936,2496.57,0.448,0.000,0.448,-0.893,0.401,0.205,0.343,0.183,0.921,10.965,5.557,0.076,-1.450,0.568,0.279,0.775,10.020,-5.542,-5.084,-0.840,none
0.398290,0.428,-0.492,-0.758,2450.85,-0.448,0.000,-0.224,-0.465,0.329,0.822,0.545,-0.377,-0.749,2464.80,-0.783,0.112,-0.112,-0.253,0.657,0.711,-0.043,-0.556,-0.830,2488.52,0.000,0.224,-0.224,-0.130,0.143,-0.981,0.328,-0.121,-0.937,2484.84,0.112,-0.112,0.112,-0.875,0.432,0.219,0.345,0.182,0.921,10.946,5.664,0.122,-1.389,0.567,0.278,0.776,10.032,-5.405,-5.023,-0.824,none
0.421425,0.425,-0.493,-0.759,2446.59,-0.112,0.112,-0.112,-0.474,0.335,0.814,0.545,-0.377,-0.749,2464.80,-0.112,-0.112,0.112,-0.314,0.619,0.719,-0.039,-0.556,-0.830,2488.93,-0.448,0.000,-0.112,-0.145,0.123,-0.982,0.328,-0.125,-0.936,2485.94,-0.671,0.224,-0.224,-0.889,0.412,0.199,0.345,0.182,0.921,10.981,5.588,-0.229,-1.053,0.565,0.278,0.777,10.018,-5.374,-5.191,-0.534,none
0.442574,0.428,-0.487,-0.762,2454.32,-0.560,-0.224,-0.224,-0.461,0.324,0.826,0.543,-0.380,-0.749,2475.33,-0.448,-0.224,-0.224,-0.357,0.583,0.730,-0.043,-0.551,-0.833,2492.13,-1.343,-0.112,0.224,-0.131,0.086,-0.988,0.328,-0.113,-0.938,2483.43,-0.895,0.000,-0.448,-0.880,0.427,0.210,0.346,0.183,0.920,10.991,5.725,0.336,-1.740,0.568,0.280,0.774,10.030,-5.634,-4.550,-0.382,none
0.486535,0.424,-0.488,-0.763,2450.06,0.000,-0.224,0.224,-0.453,0.339,0.825,0.545,-0.377,-0.749,2464.80,0.671,0.000,0.112,-0.300,0.650,0.698,-0.044,-0.550,-0.834,2478.29,-0.671,-0.336,0.224,-0.129,0.084,-0.988,0.329,-0.118,-0.937,2474.27,0.671,0.000,0.000,-0.873,0.411,0.264,0.344,0.184,0.921,10.994,5.863,0.977,-2.092,0.567,0.279,0.775,10.019,-5.863,-3.786,-0.626,none
0.509940,0.425,-0.493,-0.759,2446.59,1.231,-0.336,0.560,-0.496,0.345,0.797,0.539,-0.384,-0.750,2474.49,1.343,0.112,0.448,-0.285,0.645,0.709,-0.044,-0.552,-0.833,2469.12,0.783,-0.112,0.112,-0.118,0.140,-0.983,0.325,-0.125,-0.937,2474.24,1.007,-0.448,0.336,-0.857,0.418,0.300,0.344,0.182,0.921,10.991,5.664,0.275,-1.466,0.567,0.275,0.776,10.008,-5.374,-4.916,-1.450,none
0.512002,0.425,-0.493,-0.759,2446.59,0.224,0.336,-0.112,-0.475,0.334,0.814,0.538,-0.379,-0.752,2477.43,-0.895,0.336,-0.112,-0.324,0.634,0.702,-0.044,-0.550,-0.834,2478.29,1.231,0.895,-0.671,-0.142,0.124,-0.982,0.325,-0.122,-0.938,2473.13,0.112,-0.336,0.336,-0.872,0.411,0.267,0.344,0.183,0.921,10.967,5.786,0.244,-1.374,0.567,0.278,0.776,10.012,-5.053,-5.206,-2.137,none
0.544756,0.428,-0.487,-0.762,2454.32,-0.560,1.007,-0.671,-0.441,0.323,0.838,0.544,-0.376,-0.750,2472.30,-1.679,0.224,-0.112,-0.303,0.606,0.736,-0.043,-0.556,-0.830,2488.52,1.455,1.007,-1.007,-0.128,0.116,-0.985,0.328,-0.121,-0.937,2484.84,-1.343,0.336,-0.336,-0.887,0.410,0.210,0.347,0.183,0.920,10.944,5.710,-0.061,-1.145,0.567,0.280,0.775,10.025,-5.008,-5.435,-1.893,none
0.555983,0.429,-0.489,-0.760,2445.95,-1.231,0.560,-0.783,-0.514,0.294,0.806,0.548,-0.376,-0.747,2470.27,-1.455,0.000,-0.448,-0.318,0.625,0.713,-0.039,-0.556,-0.830,2488.93,-0.560,0.448,-0.448,-0.120,0.146,-0.982,0.329,-0.118,-0.937,2474.27,-0.560,-0.224,-0.336,-0.861,0.415,0.293,0.346,0.183,0.920,10.982,5.664,0.275,-1.527,0.568,0.284,0.772,10.021,-5.527,-4.718,-0.702,none
0.577232,0.429,-0.489,-0.760,2445.95,-0.336,-0.224,-0.112,-0.480,0.327,0.814,0.546,-0.379,-0.747,2480.77,0.671,0.000,0.336,-0.332,0.586,0.739,-0.039,-0.554,-0.832,2496.41,-0.560,-0.336,0.560,-0.148,0.105,-0.983,0.328,-0.121,-0.937,2484.84,0.336,0.224,-0.224,-0.891,0.395,0.223,0.346,0.182,0.920,10.968,5.664,0.275,-1.847,0.568,0.280,0.774,9.995,-5.924,-4.427,0.351,none
0.599082,0.425,-0.493,-0.759,2446.59,0.224,-0.895,0.895,-0.459,0.342,0.820,0.543,-0.380,-0.749,2475.33,1.679,-0.224,0.112,-0.280,0.659,0.698,-0.044,-0.550,-0.834,2478.29,-1.567,-1.007,1.007,-0.145,0.133,-0.980,0.328,-0.117,-0.937,2484.58,0.000,0.000,-0.112,-0.857,0.441,0.265,0.344,0.184,0.921,10.982,5.573,0.336,-1.802,0.565,0.277,0.777,9.997,-5.969,-4.336,0.565,none
0.623782,0.424,-0.491,-0.761,2454.95,0.783,-0.560,0.895,-0.463,0.327,0.824,0.539,-0.384,-0.750,2474.49,2.126,-0.336,0.336,-0.310,0.672,0.672,-0.044,-0.552,-0.833,2469.12,-1.007,-0.671,0.895,-0.118,0.136,-0.984,0.323,-0.117,-0.939,2490.71,0.671,0.000,0.000,-0.878,0.408,0.251,0.344,0.183,0.921,10.989,5.588,0.473,-1.786,0.567,0.277,0.776,9.998,-5.924,-4.321,-0.015,none
0.645625,0.419,-0.490,-0.764,2458.02,0.671,-0.336,0.560,-0.486,0.329,0.810,0.540,-0.381,-0.751,2469.91,0.783,-0.112,0.336,-0.319,0.563,0.763,-0.047,-0.553,-0.832,2484.26,0.000,-0.336,0.560,-0.138,0.150,-0.979,0.327,-0.117,-0.938,2493.96,0.560,0.224,0.336,-0.882,0.394,0.259,0.344,0.183,0.921,10.981,5.634,0.534,-1.847,0.568,0.280,0.774,10.020,-5.740,-4.351,-0.824,none
0.666712,0.426,-0.489,-0.761,2441.68,0.112,0.000,0.224,-0.477,0.317,0.820,0.540,-0.381,-0.751,2469.91,0.224,0.336,0.336,-0.297,0.640,0.708,-0.043,-0.551,-0.833,2492.13,0.783,0.112,-0.112,-0.128,0.114,-0.985,0.325,-0.122,-0.938,2473.13,0.336,0.224,0.000,-0.879,0.417,0.230,0.342,0.183,0.922,10.957,5.664,0.244,-1.374,0.567,0.276,0.776,9.986,-5.359,-4.779,-1.069,none
0.690475,0.427,-0.490,-0.760,2459.20,-0.336,0.224,-0.448,-0.489,0.340,0.803,0.544,-0.384,-0.746,2472.42,-0.560,0.112,0.000,-0.304,0.640,0.706,-0.043,-0.553,-0.832,2482.97,-0.224,0.000,-0.224,-0.131,0.110,-0.985,0.332,-0.117,-0.936,2486.94,0.112,-0.224,-0.112,-0.880,0.417,0.227,0.346,0.184,0.920,10.979,5.695,0.229,-1.374,0.567,0.282,0.774,10.031,-5.466,-4.656,-0.870,none
0.712530,0.431,-0.494,-0.755,2460.83,0.224,-0.112,0.224,-0.477,0.317,0.820,0.544,-0.384,-0.746,2472.42,-0.336,0.000,-0.224,-0.318,0.608,0.727,-0.039,-0.553,-0.832,2483.39,-0.448,-0.224,0.000,-0.128,0.102,-0.987,0.331,-0.121,-0.936,2489.07,-0.112,0.224,-0.448,-0.893,0.404,0.197,0.347,0.184,0.920,10.958,5.710,0.153,-1.603,0.567,0.280,0.775,10.020,-5.603,-4.718,-0.489,none
0.734297,0.427,-0.490,-0.760,2459.20,-0.224,-0.336,0.112,-0.507,0.312,0.804,0.543,-0.380,-0.749,2475.33,0.560,-0.224,0.000,-0.285,0.646,0.708,-0.044,-0.550,-0.834,2478.29,-0.448,-0.448,0.448,-0.128,0.102,-0.987,0.331,-0.113,-0.937,2495.16,0.000,-0.112,0.112,-0.878,0.409,0.250,0.344,0.184,0.921,10.958,5.756,0.656,-1.847,0.566,0.277,0.776,9.991,-5.725,-4.198,-0.962,none
0.757309,0.424,-0.491,-0.761,2454.95,0.448,0.224,0.560,-0.478,0.315,0.820,0.537,-0.385,-0.751,2469.65,0.336,0.000,0.224,-0.315,0.591,0.743,-0.048,-0.555,-0.831,2475.11,0.895,0.224,-0.112,-0.140,0.097,-0.985,0.328,-0.125,-0.936,2485.94,1.119,-0.560,0.671,-0.868,0.423,0.259,0.345,0.183,0.921,10.964,5.664,0.427,-1.618,0.568,0.275,0.776,10.038,-5.344,-4.885,-1.832,none
0.779278,0.424,-0.488,-0.763,2450.06,0.112,0.448,-0.560,-0.490,0.310,0.815,0.538,-0.379,-0.752,2477.43,-1.231,0.448,0.000,-0.308,0.620,0.721,-0.044,-0.550,-0.834,2478.29,1.567,0.895,-0.895,-0.120,0.131,-0.984,0.323,-0.121,-0.939,2490.96,0.448,-0.224,0.224,-0.868,0.419,0.265,0.342,0.183,0.922,10.952,5.817,0.229,-1.389,0.567,0.274,0.777,9.995,-4.931,-5.069,-2.397,none
0.802857,0.424,-0.491,-0.761,2454.95,-0.448,1.119,-1.007,-0.479,0.274,0.834,0.540,-0.381,-0.751,2469.91,-1.790,0.671,0.112,-0.311,0.644,0.699,-0.043,-0.556,-0.830,2488.52,1.455,0.783,-1.343,-0.130,0.108,-0.986,0.324,-0.129,-0.937,2483.95,-1.119,-0.112,-0.448,-0.869,0.428,0.248,0.347,0.182,0.920,10.982,5.710,-0.366,-0.870,0.570,0.280,0.772,10.023,-4.702,-5.924,-1.985,none
0.824258,0.427,-0.486,-0.763,2461.18,-1.902,0.671,-1.455,-0.442,0.342,0.829,0.546,-0.374,-0.750,2461.05,-1.343,-0.224,-0.448,-0.288,0.627,0.723,-0.039,-0.556,-0.830,2488.93,-0.671,0.783,-1.231,-0.161,0.145,-0.976,0.330,-0.114,-0.937,2473.12,-0.783,0.112,-0.560,-0.864,0.422,0.275,0.345,0.184,0.921,10.981,5.725,0.305,-1.664,0.569,0.280,0.774,10.046,-5.588,-4.595,-0.397,none
0.846528,0.425,-0.493,-0.759,2446.59,0.224,0.000,0.448,-0.510,0.319,0.799,0.543,-0.380,-0.749,2475.33,1.343,-0.448,0.448,-0.294,0.626,0.722,-0.039,-0.556,-0.830,2488.93,-1.567,-0.671,1.007,-0.145,0.104,-0.984,0.328,-0.121,-0.937,2484.84,-0.448,0.336,-0.224,-0.875,0.432,0.219,0.345,0.182,0.921,11.008,5.557,0.061,-1.527,0.570,0.279,0.773,10.009,-5.863,-4.718,0.672,none
0.868309,0.424,-0.488,-0.763,2450.06,0.112,-0.671,0.560,-0.487,0.314,0.815,0.541,-0.377,-0.752,2466.88,1.343,-0.448,-0.112,-0.312,0.610,0.728,-0.044,-0.550,-0.834,2478.29,-1.790,-1.007,1.119,-0.139,0.120,-0.983,0.327,-0.113,-0.938,2492.81,0.895,-0.224,0.224,-0.893,0.409,0.186,0.345,0.183,0.920,10.978,5.649,0.580,-1.939,0.567,0.278,0.775,10.008,-6.031,-4.107,0.397,none
0.891260,0.425,-0.493,-0.759,2446.59,1.231,-0.448,0.783,-0.441,0.333,0.833,0.540,-0.381,-0.751,2469.91,1.343,-0.112,0.112,-0.318,0.638,0.702,-0.044,-0.552,-0.833,2469.12,0.000,-0.671,0.783,-0.148,0.115,-0.982,0.324,-0.121,-0.938,2481.57,0.783,0.224,0.336,-0.892,0.403,0.203,0.342,0.184,0.922,10.968,5.679,0.397,-1.679,0.564,0.277,0.778,9.998,-5.817,-4.443,-0.443,none
0.912641,0.423,-0.494,-0.760,2459.88,0.671,0.000,0.448,-0.465,0.284,0.839,0.542,-0.383,-0.748,2479.89,1.007,0.112,0.112,-0.310,0.636,0.706,-0.043,-0.551,-0.833,2492.13,0.336,0.000,0.000,-0.110,0.108,-0.988,0.324,-0.125,-0.938,2482.68,0.336,0.000,0.224,-0.876,0.389,0.286,0.347,0.184,0.920,10.983,5.634,0.214,-1.420,0.570,0.279,0.773,10.003,-5.450,-4.885,-1.099,none
0.947038,0.428,-0.487,-0.762,2454.32,-0.560,0.224,-0.448,-0.468,0.347,0.813,0.544,-0.373,-0.751,2468.55,-0.671,0.336,0.000,-0.274,0.658,0.702,-0.043,-0.553,-0.832,2482.97,0.671,0.336,-0.560,-0.113,0.091,-0.989,0.329,-0.122,-0.936,2476.41,0.224,0.224,0.224,-0.862,0.430,0.269,0.346,0.184,0.920,10.960,5.679,0.412,-1.664,0.567,0.279,0.775,10.035,-5.542,-4.565,-0.870,none
0.956371,0.427,-0.490,-0.760,2459.20,0.112,0.336,0.112,-0.489,0.323,0.810,0.545,-0.381,-0.747,2467.85,0.783,0.000,0.336,-0.283,0.611,0.740,-0.039,-0.554,-0.832,2496.41,0.000,0.000,0.000,-0.160,0.144,-0.977,0.331,-0.124,-0.935,2490.17,-0.336,0.112,-0.112,-0.874,0.414,0.256,0.344,0.184,0.921,10.964,5.573,0.046,-1.405,0.566,0.278,0.776,9.990,-5.679,-4.763,-0.229,none
0.976800,0.428,-0.492,-0.758,2450.85,0.112,-0.112,0.336,-0.483,0.309,0.819,0.543,-0.380,-0.749,2475.33,0.671,-0.448,0.000,-0.289,0.613,0.736,-0.039,-0.548,-0.835,2486.22,0.000,0.000,0.000,-0.110,0.133,-0.985,0.328,-0.117,-0.937,2484.58,-0.112,0.000,-0.224,-0.878,0.386,0.282,0.345,0.183,0.921,10.973,5.542,0.031,-1.420,0.567,0.279,0.775,10.011,-5.649,-5.023,-0.183,none
0.997470,0.425,-0.493,-0.759,2446.59,-0.224,-0.336,0.336,-0.459,0.317,0.830,0.539,-0.384,-0.750,2474.49,0.448,-0.112,-0.224,-0.337,0.596,0.729,-0.048,-0.550,-0.834,2477.91,0.000,0.000,0.000,-0.148,0.127,-0.981,0.328,-0.113,-0.938,2483.43,0.000,0.000,0.000,-0.880,0.421,0.221,0.344,0.182,0.921,11.012,5.756,0.687,-1.908,0.568,0.276,0.775,10.011,-5.740,-4.229,-0.901,none
1.019940,0.424,-0.491,-0.761,2454.95,0.560,0.336,0.336,-0.439,0.306,0.845,0.540,-0.381,-0.751,2469.91,0.560,0.112,0.336,-0.292,0.651,0.701,-0.048,-0.547,-0.836,2473.26,0.000,0.000,0.000,-0.167,0.152,-0.974,0.323,-0.117,-0.939,2490.71,0.000,0.000,0.000,-0.879,0.417,0.230,0.343,0.182,0.921,10.968,5.725,0.580,-1.725,0.567,0.274,0.776,9.987,-5.389,-4.656,-1.893,none
1.044019,0.423,-0.494,-0.760,2459.88,-0.224,0.671,-0.448,-0.475,0.334,0.814,0.539,-0.384,-0.750,2474.49,-1.567,0.671,0.112,-0.303,0.664,0.684,-0.043,-0.553,-0.832,2482.97,0.000,0.000,0.000,-0.145,0.111,-0.983,0.323,-0.124,-0.938,2492.06,0.000,0.000,0.000,-0.870,0.404,0.281,0.343,0.183,0.921,10.973,5.725,0.000,-1.206,0.566,0.278,0.776,10.000,-4.809,-5.527,-2.687,none
1.066833,0.425,-0.493,-0.759,2446.59,-1.231,1.119,-1.119,-0.452,0.306,0.838,0.543,-0.380,-0.749,2475.33,-2.686,0.448,-0.224,-0.308,0.620,0.721,-0.039,-0.556,-0.830,2488.93,0.000,0.000,0.000,-0.120,0.130,-0.984,0.324,-0.125,-0.938,2482.68,0.000,0.000,0.000,-0.855,0.442,0.272,0.345,0.184,0.920,10.994,5.847,0.275,-1.328,0.565,0.282,0.775,10.043,-4.947,-5.053,-2.046,none
1.090168,0.432,-0.491,-0.757,2455.91,-0.224,0.560,-0.560,-0.486,0.321,0.813,0.547,-0.380,-0.746,2473.31,-1.007,0.112,-0.112,-0.327,0.666,0.671,-0.039,-0.557,-0.830,2502.79,0.000,0.000,0.000,-0.131,0.120,-0.984,0.328,-0.125,-0.936,2485.94,-1.790,0.448,-0.783,-0.858,0.434,0.274,0.345,0.185,0.920,10.978,5.634,-0.168,-1.237,0.567,0.283,0.774,10.012,-5.450,-5.252,-0.260,none
1.112759,0.427,-0.490,-0.760,2459.20,-0.448,-0.336,0.112,-0.453,0.289,0.843,0.545,-0.377,-0.749,2464.80,0.224,-0.336,-0.448,-0.339,0.591,0.732,-0.039,-0.551,-0.833,2490.89,0.000,0.000,0.000,-0.131,0.063,-0.989,0.330,-0.114,-0.937,2473.12,-0.224,0.000,-0.560,-0.883,0.403,0.241,0.344,0.183,0.921,10.984,5.588,0.321,-1.878,0.567,0.282,0.774,10.026,-6.031,-4.397,0.672,none
1.133869,0.428,-0.487,-0.762,2454.32,0.336,-0.783,1.119,-0.469,0.330,0.819,0.545,-0.381,-0.747,2467.85,2.350,-0.224,0.224,-0.285,0.618,0.733,-0.040,-0.550,-0.834,2477.04,0.000,0.000,0.000,-0.138,0.104,-0.985,0.328,-0.113,-0.938,2483.43,0.671,0.224,0.224,-0.870,0.389,0.303,0.343,0.184,0.921,10.961,5.588,0.855,-2.214,0.566,0.277,0.776,9.990,-6.305,-3.695,0.565,none
1.157718,0.425,-0.493,-0.759,2446.59,1.567,-0.783,1.231,-0.483,0.355,0.800,0.539,-0.384,-0.750,2474.49,0.000,0.000,0.000,-0.270,0.679,0.683,-0.043,-0.553,-0.832,2482.97,0.000,0.000,0.000,-0.138,0.116,-0.984,0.323,-0.124,-0.938,2492.06,0.783,0.112,0.448,-0.891,0.400,0.212,0.344,0.182,0.921,10.943,5.466,-0.076,-1.389,0.565,0.276,0.777,10.011,-5.679,-5.206,-0.214,none
1.181003,0.424,-0.491,-0.761,2454.95,-0.560,-0.224,-0.336,-0.462,0.309,0.831,0.544,-0.376,-0.750,2472.30,0.000,0.000,0.000,-0.328,0.641,0.694,-0.043,-0.548,-0.835,2485.80,0.000,0.000,0.000,-0.138,0.148,-0.979,0.328,-0.109,-0.938,2481.38,0.112,0.000,0.671,-0.848,0.413,0.331,0.345,0.182,0.921,10.978,5.634,0.534,-1.771,0.569,0.276,0.774,10.003,-5.679,-4.489,-0.931,none
1.202738,0.424,-0.491,-0.761,2454.95,0.671,0.112,0.224,-0.469,0.323,0.822,0.540,-0.381,-0.751,2469.91,0.000,0.000,0.000,-0.281,0.665,0.692,-0.043,-0.554,-0.832,2497.66,0.000,0.000,0.000,-0.138,0.138,-0.981,0.328,-0.125,-0.936,2485.94,0.000,0.448,0.112,-0.863,0.425,0.273,0.343,0.182,0.922,10.960,5.588,0.122,-1.435,0.567,0.277,0.776,9.997,-5.466,-4.824,-0.519,none
1.224012,0.427,-0.490,-0.760,2459.20,-0.224,-0.112,0.000,-0.459,0.309,0.833,0.543,-0.380,-0.749,2475.33,0.000,0.000,0.000,-0.283,0.638,0.717,-0.043,-0.553,-0.832,2482.97,0.000,0.000,0.000,-0.155,0.125,-0.980,0.325,-0.125,-0.937,2474.24,-0.112,-0.336,0.112,-0.876,0.405,0.261,0.346,0.183,0.920,10.971,5.588,0.061,-1.359,0.569,0.279,0.774,10.022,-5.573,-4.870,-0.198,none
1.246647,0.425,-0.493,-0.759,2446.59,-0.560,-0.560,0.112,-0.477,0.317,0.820,0.541,-0.379,-0.751,2482.83,0.000,0.000,0.000,-0.296,0.607,0.738,-0.044,-0.550,-0.834,2478.29,0.000,0.000,0.000,-0.134,0.101,-0.986,0.328,-0.117,-0.937,2484.58,-0.224,0.000,0.000,-0.867,0.423,0.262,0.345,0.184,0.920,10.953,5.740,0.809,-1.908,0.570,0.275,0.774,10.038,-5.893,-4.061,-0.427,none
1.270327,0.424,-0.488,-0.763,2450.06,0.671,-0.224,0.448,-0.463,0.309,0.831,0.537,-0.383,-0.751,2481.99,0.000,0.000,0.000,-0.319,0.680,0.661,-0.047,-0.553,-0.832,2484.26,0.000,0.000,0.000,-0.148,0.127,-0.981,0.324,-0.121,-0.938,2481.57,0.000,0.336,-0.112,-0.892,0.403,0.203,0.344,0.182,0.921,10.959,5.588,0.107,-1.374,0.567,0.275,0.776,9.994,-5.344,-5.130,-1.542,none
1.292116,0.424,-0.491,-0.761,2454.95,-0.336,0.448,-0.783,-0.421,0.330,0.845,0.542,-0.382,-0.749,2462.42,0.000,0.000,0.000,-0.296,0.668,0.682,-0.040,-0.550,-0.834,2477.04,0.000,0.000,0.000,-0.145,0.111,-0.983,0.323,-0.113,-0.940,2489.56,0.336,-0.560,0.560,-0.879,0.408,0.248,0.345,0.184,0.920,10.978,5.802,0.351,-1.496,0.567,0.278,0.776,10.007,-5.038,-5.023,-2.550,none
1.313913,0.427,-0.490,-0.760,2459.20,-0.448,1.119,-0.895,-0.447,0.335,0.830,0.545,-0.381,-0.747,2467.85,0.000,0.000,0.000,-0.335,0.556,0.761,-0.043,-0.556,-0.830,2488.52,0.000,0.000,0.000,-0.116,0.129,-0.985,0.328,-0.129,-0.936,2487.21,-0.560,0.000,-0.112,-0.834,0.432,0.343,0.343,0.185,0.921,10.946,5.863,-0.061,-1.099,0.565,0.279,0.776,10.013,-4.641,-5.389,-2.550,none
1.335777,0.428,-0.492,-0.758,2450.85,-0.671,1.119,-1.231,-0.482,0.309,0.820,0.547,-0.380,-0.746,2473.31,0.000,0.000,0.000,-0.332,0.602,0.726,-0.039,-0.556,-0.830,2488.93,0.000,0.000,0.000,-0.099,0.134,-0.986,0.333,-0.125,-0.935,2479.89,-1.567,-0.112,-0.895,-0.874,0.414,0.256,0.346,0.186,0.920,10.981,5.695,-0.305,-0.885,0.569,0.283,0.772,10.017,-4.870,-5.588,-1.206,none
1.356925,0.432,-0.488,-0.758,2451.02,-1.679,-0.112,-1.231,-0.488,0.334,0.806,0.548,-0.376,-0.747,2470.27,0.000,0.000,0.000,-0.305,0.613,0.729,-0.039,-0.556,-0.830,2488.93,0.000,0.000,0.000,-0.110,0.123,-0.986,0.328,-0.121,-0.937,2484.84,-1.007,0.224,-0.783,-0.844,0.417,0.337,0.346,0.182,0.920,10.995,5.618,-0.260,-1.298,0.569,0.281,0.773,10.010,-5.481,-5.160,0.168,none
1.380533,0.429,-0.489,-0.760,2445.95,-0.224,-0.671,0.336,-0.491,0.298,0.819,0.544,-0.376,-0.750,2472.30,0.000,0.000,0.000,-0.259,0.622,0.739,-0.040,-0.547,-0.836,2472.39,0.000,0.000,0.000,-0.148,0.095,-0.984,0.330,-0.110,-0.938,2472.94,-0.224,0.000,0.000,-0.865,0.428,0.263,0.343,0.183,0.921,10.991,5.588,0.534,-2.107,0.567,0.281,0.774,10.008,-6.122,-4.000,0.473,none
1.402501,0.426,-0.493,-0.758,2464.12,1.231,-0.448,1.231,-0.451,0.331,0.829,0.545,-0.381,-0.747,2467.85,0.000,0.000,0.000,-0.300,0.652,0.697,-0.044,-0.550,-0.834,2478.29,0.000,0.000,0.000,-0.149,0.132,-0.980,0.328,-0.117,-0.937,2484.58,1.231,-0.112,0.671,-0.841,0.465,0.276,0.342,0.182,0.922,10.997,5.603,0.870,-2.275,0.566,0.276,0.777,10.005,-6.366,-3.847,0.275,none
1.424333,0.420,-0.495,-0.761,2456.08,0.000,0.000,0.000,-0.459,0.342,0.820,0.542,-0.382,-0.749,2462.42,0.000,0.000,0.000,-0.319,0.617,0.720,-0.043,-0.553,-0.832,2482.97,0.000,0.000,0.000,-0.139,0.120,-0.983,0.324,-0.129,-0.937,2483.95,1.231,-0.224,0.895,-0.857,0.418,0.300,0.341,0.182,0.922,10.975,5.573,0.183,-1.603,0.566,0.272,0.778,10.013,-5.725,-4.824,-0.321,none
1.446271,0.426,-0.489,-0.761,2441.68,0.000,0.000,0.000,-0.469,0.321,0.823,0.542,-0.382,-0.749,2462.42,0.000,0.000,0.000,-0.305,0.613,0.729,-0.043,-0.553,-0.832,2482.97,0.000,0.000,0.000,-0.138,0.128,-0.982,0.329,-0.125,-0.936,2477.52,0.224,0.000,0.224,-0.869,0.439,0.226,0.344,0.183,0.921,10.987,5.527,-0.137,-1.298,0.568,0.277,0.775,10.018,-5.328,-5.221,-0.519,none
1.468033,0.427,-0.490,-0.760,2459.20,0.000,0.000,0.000,-0.481,0.302,0.823,0.542,-0.378,-0.750,2459.37,0.000,0.000,0.000,-0.319,0.617,0.720,-0.039,-0.553,-0.832,2483.39,0.000,0.000,0.000,-0.150,0.134,-0.980,0.329,-0.122,-0.936,2476.41,-1.007,0.448,-0.336,-0.876,0.435,0.206,0.345,0.182,0.921,10.976,5.603,0.321,-1.603,0.568,0.279,0.774,10.012,-5.679,-4.595,-0.336,none
1.490412,0.425,-0.493,-0.759,2446.59,0.000,0.000,0.000,-0.440,0.307,0.844,0.540,-0.381,-0.751,2469.91,0.000,0.000,0.000,-0.308,0.631,0.712,-0.043,-0.553,-0.832,2482.97,0.000,0.000,0.000,-0.131,0.089,-0.987,0.332,-0.117,-0.936,2486.94,-0.448,0.448,-0.224,-0.863,0.435,0.257,0.344,0.183,0.921,10.981,5.679,0.626,-1.756,0.567,0.276,0.776,10.009,-5.847,-4.290,-0.504,none
1.512138,0.426,-0.489,-0.761,2441.68,0.000,0.000,0.000,-0.464,0.300,0.834,0.539,-0.384,-0.750,2474.49,0.000,0.000,0.000,-0.289,0.608,0.739,-0.048,-0.547,-0.836,2473.26,0.000,0.000,0.000,-0.118,0.104,-0.987,0.324,-0.121,-0.938,2481.57,1.119,-0.336,0.448,-0.887,0.416,0.200,0.343,0.181,0.922,11.005,5.786,0.580,-1.634,0.566,0.275,0.777,9.987,-5.282,-4.611,-1.756,none
1.534236,0.424,-0.491,-0.761,2454.95,0.000,0.000,0.000,-0.481,0.311,0.820,0.537,-0.385,-0.751,2469.65,0.000,0.000,0.000,-0.325,0.578,0.748,-0.048,-0.550,-0.834,2477.91,0.000,0.000,0.000,-0.116,0.143,-0.983,0.324,-0.121,-0.938,2481.57,0.112,-0.336,0.448,-0.874,0.418,0.248,0.343,0.183,0.922,10.967,5.847,0.336,-1.435,0.566,0.275,0.777,9.988,-4.947,-4.992,-2.656,none
1.555626,0.423,-0.494,-0.760,2459.88,0.000,0.000,0.000,-0.503,0.318,0.804,0.544,-0.384,-0.746,2472.42,0.000,0.000,0.000,-0.318,0.622,0.716,-0.043,-0.554,-0.832,2497.66,0.000,0.000,0.000,-0.145,0.147,-0.978,0.326,-0.128,-0.936,2496.57,-0.783,0.000,-0.112,-0.855,0.415,0.311,0.340,0.182,0.922,10.997,5.878,0.122,-1.206,0.567,0.279,0.775,10.016,-4.656,-5.191,-2.489,none
1.575864,0.428,-0.495,-0.757,2455.79,0.000,0.000,0.000,-0.472,0.321,0.821,0.547,-0.380,-0.746,2473.31,0.000,0.000,0.000,-0.251,0.639,0.727,-0.039,-0.559,-0.828,2493.67,0.000,0.000,0.000,-0.138,0.118,-0.983,0.334,-0.125,-0.934,2473.35,-0.336,0.224,-0.224,-0.900,0.409,0.149,0.345,0.186,0.920,10.972,5.710,-0.198,-1.038,0.568,0.284,0.773,10.014,-5.008,-5.527,-1.145,none
1.597719,0.429,-0.489,-0.760,2445.95,0.000,0.000,0.000,-0.421,0.330,0.845,0.547,-0.380,-0.746,2473.31,0.000,0.000,0.000,-0.321,0.617,0.718,-0.039,-0.553,-0.832,2483.39,0.000,0.000,0.000,-0.138,0.096,-0.986,0.333,-0.125,-0.935,2479.89,-1.007,0.000,-0.671,-0.874,0.425,0.238,0.345,0.186,0.920,11.010,5.573,-0.244,-1.344,0.567,0.283,0.773,10.016,-5.588,-5.008,0.107,none
1.619493,0.431,-0.490,-0.758,2438.37,0.000,0.000,0.000,-0.455,0.317,0.832,0.545,-0.381,-0.747,2467.85,0.000,0.000,0.000,-0.304,0.640,0.706,-0.040,-0.550,-0.834,2477.04,0.000,0.000,0.000,-0.149,0.132,-0.980,0.333,-0.117,-0.936,2478.52,-0.671,0.336,-0.448,-0.870,0.431,0.238,0.344,0.185,0.921,10.999,5.450,0.153,-1.756,0.568,0.281,0.774,10.026,-5.954,-4.473,0.489,none
1.641445,0.426,-0.489,-0.762,2466.05,0.000,0.000,0.000,-0.463,0.303,0.833,0.542,-0.383,-0.748,2479.89,0.000,0.000,0.000,-0.285,0.649,0.706,-0.044,-0.550,-0.834,2478.29,0.000,0.000,0.000,-0.145,0.133,-0.980,0.327,-0.113,-0.938,2492.81,0.671,0.000,0.000,-0.885,0.406,0.229,0.345,0.184,0.920,10.970,5.618,0.489,-1.985,0.567,0.282,0.774,10.024,-6.031,-4.305,0.000,none
1.664747,0.428,-0.487,-0.762,2454.32,0.000,0.000,0.000,-0.489,0.323,0.810,0.544,-0.376,-0.750,2472.30,0.000,0.000,0.000,-0.312,0.619,0.721,-0.043,-0.548,-0.835,2485.80,0.000,0.000,0.000,-0.130,0.096,-0.987,0.327,-0.117,-0.938,2493.96,1.679,0.000,0.671,-0.858,0.428,0.283,0.342,0.183,0.922,10.974,5.603,0.748,-2.031,0.567,0.278,0.775,10.013,-6.031,-4.168,-0.321,none
1.687441,0.429,-0.489,-0.760,2445.95,0.000,0.000,0.000,-0.469,0.321,0.823,0.544,-0.376,-0.750,2472.30,0.000,0.000,0.000,-0.317,0.634,0.705,-0.039,-0.553,-0.832,2483.39,0.000,0.000,0.000,-0.134,0.114,-0.984,0.328,-0.129,-0.936,2487.21,0.112,0.224,0.112,-0.853,0.433,0.291,0.342,0.183,0.922,10.977,5.389,-0.351,-1.130,0.563,0.275,0.779,9.988,-5.542,-5.496,-0.168,none
1.709708,0.423,-0.499,-0.756,2456.50,0.000,0.000,0.000,-0.450,0.337,0.827,0.541,-0.385,-0.748,2467.00,0.000,0.000,0.000,-0.302,0.631,0.715,-0.044,-0.545,-0.837,2481.17,0.000,0.000,0.000,-0.123,0.101,-0.987,0.325,-0.113,-0.939,2480.17,-0.560,0.000,0.112,-0.889,0.382,0.252,0.344,0.184,0.921,10.981,5.634,0.366,-1.527,0.568,0.277,0.775,10.019,-5.664,-4.748,-0.412,none
1.731683,0.424,-0.491,-0.761,2454.95,0.000,0.000,0.000,-0.457,0.306,0.835,0.543,-0.380,-0.749,2475.33,0.000,0.000,0.000,-0.324,0.634,0.702,-0.048,-0.550,-0.834,2477.91,0.000,0.000,0.000,-0.148,0.117,-0.982,0.328,-0.117,-0.937,2484.58,-0.336,0.336,-0.448,-0.885,0.391,0.253,0.343,0.180,0.922,10.959,5.695,0.519,-1.679,0.569,0.274,0.776,9.983,-5.573,-4.550,-0.947,none
1.753641,0.421,-0.492,-0.762,2451.15,0.000,0.000,0.000,-0.447,0.336,0.829,0.537,-0.383,-0.751,2481.99,0.000,0.000,0.000,-0.286,0.619,0.732,-0.048,-0.550,-0.834,2477.91,0.000,0.000,0.000,-0.118,0.116,-0.986,0.324,-0.121,-0.938,2481.57,0.560,-0.224,0.336,-0.865,0.448,0.227,0.341,0.180,0.922,10.981,5.817,0.519,-1.664,0.565,0.275,0.778,10.002,-5.206,-4.748,-2.076,none
1.774632,0.424,-0.491,-0.761,2454.95,0.000,0.000,0.000,-0.454,0.313,0.834,0.538,-0.379,-0.752,2477.43,0.000,0.000,0.000,-0.308,0.608,0.732,-0.047,-0.553,-0.832,2484.26,0.000,0.000,0.000,-0.145,0.135,-0.980,0.324,-0.121,-0.938,2481.57,0.783,-0.448,0.448,-0.865,0.444,0.234,0.343,0.182,0.922,10.966,5.817,0.473,-1.542,0.567,0.278,0.776,10.002,-5.038,-5.053,-2.565,none
1.796683,0.424,-0.491,-0.761,2454.95,0.000,0.000,0.000,-0.457,0.324,0.828,0.543,-0.380,-0.749,2475.33,0.000,0.000,0.000,-0.305,0.611,0.730,-0.040,-0.558,-0.829,2479.80,0.000,0.000,0.000,-0.136,0.124,-0.983,0.329,-0.125,-0.936,2477.52,-0.783,0.000,-0.224,-0.874,0.418,0.248,0.342,0.182,0.922,10.970,5.679,-0.260,-0.947,0.565,0.279,0.776,10.009,-4.733,-5.740,-2.046,none
1.818740,0.432,-0.491,-0.757,2455.91,0.000,0.000,0.000,-0.456,0.306,0.836,0.546,-0.379,-0.747,2480.77,0.000,0.000,0.000,-0.287,0.664,0.690,-0.039,-0.555,-0.831,2508.61,0.000,0.000,0.000,-0.142,0.088,-0.986,0.332,-0.117,-0.936,2486.94,-1.455,0.336,-0.783,-0.879,0.418,0.230,0.345,0.184,0.920,10.981,5.588,-0.168,-1.115,0.568,0.283,0.773,10.024,-5.237,-5.267,-0.534,none
1.841322,0.428,-0.492,-0.758,2450.85,0.000,0.000,0.000,-0.461,0.319,0.828,0.549,-0.373,-0.748,2466.52,0.000,0.000,0.000,-0.318,0.685,0.655,-0.036,-0.554,-0.832,2496.91,0.000,0.000,0.000,-0.138,0.140,-0.980,0.333,-0.117,-0.936,2478.52,-1.007,0.224,-0.783,-0.881,0.429,0.201,0.345,0.186,0.920,10.978,5.527,-0.122,-1.450,0.568,0.281,0.773,10.025,-5.695,-4.947,0.427,none
1.863222,0.432,-0.488,-0.758,2451.02,0.000,0.000,0.000,-0.439,0.281,0.853,0.548,-0.376,-0.747,2470.27,0.000,0.000,0.000,-0.359,0.572,0.737,-0.039,-0.553,-0.832,2483.39,0.000,0.000,0.000,-0.131,0.089,-0.987,0.332,-0.113,-0.937,2485.79,0.448,0.224,0.000,-0.872,0.411,0.267,0.346,0.185,0.920,10.968,5.649,0.489,-1.969,0.569,0.280,0.773,10.024,-6.122,-4.076,0.443,none
1.888878,0.425,-0.493,-0.759,2446.59,0.000,0.000,0.000,-0.505,0.255,0.824,0.545,-0.381,-0.747,2467.85,0.000,0.000,0.000,-0.279,0.647,0.710,-0.043,-0.553,-0.832,2482.97,0.000,0.000,0.000,-0.110,0.141,-0.984,0.329,-0.118,-0.937,2474.27,1.007,-0.112,0.671,-0.867,0.410,0.284,0.344,0.183,0.921,10.950,5.649,0.855,-2.122,0.568,0.278,0.775,9.997,-6.092,-3.939,-0.031,none
1.908832,0.425,-0.493,-0.759,2446.59,0.000,0.000,0.000,-0.473,0.349,0.809,0.539,-0.384,-0.750,2474.49,0.000,0.000,0.000,-0.299,0.616,0.729,-0.044,-0.550,-0.834,2478.29,0.000,0.000,0.000,-0.132,0.127,-0.983,0.325,-0.125,-0.937,2474.24,1.119,-0.224,0.560,-0.892,0.412,0.184,0.342,0.184,0.921,10.980,5.450,-0.061,-1.328,0.567,0.277,0.776,10.033,-5.679,-5.176,-0.183,none
1.930358,0.422,-0.489,-0.763,2461.81,0.000,0.000,0.000,-0.431,0.345,0.834,0.539,-0.384,-0.750,2474.49,0.000,0.000,0.000,-0.278,0.651,0.706,-0.044,-0.550,-0.834,2478.29,0.000,0.000,0.000,-0.134,0.098,-0.986,0.327,-0.117,-0.938,2493.96,-0.112,0.000,0.224,-0.896,0.390,0.215,0.347,0.182,0.920,10.967,5.603,0.382,-1.649,0.570,0.278,0.773,10.006,-5.710,-4.534,-0.656,none
1.952829,0.422,-0.489,-0.763,2461.81,0.000,0.000,0.000,-0.513,0.301,0.804,0.542,-0.382,-0.749,2462.42,0.000,0.000,0.000,-0.312,0.585,0.749,-0.043,-0.556,-0.830,2488.52,0.000,0.000,0.000,-0.155,0.137,-0.978,0.327,-0.121,-0.937,2494.21,-0.448,0.560,-0.448,-0.836,0.454,0.308,0.341,0.179,0.923,10.993,5.740,0.611,-1.771,0.566,0.273,0.778,10.015,-5.618,-4.489,-1.176,none
1.974119,0.421,-0.492,-0.762,2451.15,0.000,0.000,0.000,-0.474,0.299,0.828,0.535,-0.384,-0.753,2477.17,0.000,0.000,0.000,-0.305,0.619,0.724,-0.047,-0.553,-0.832,2484.26,0.000,0.000,0.000,-0.128,0.126,-0.984,0.324,-0.121,-0.938,2481.57,0.336,-0.336,0.000,-0.852,0.449,0.268,0.343,0.182,0.922,10.971,5.771,0.046,-1.252,0.566,0.275,0.777,10.005,-4.947,-5.420,-2.260,none
1.995592,0.421,-0.496,-0.759,2447.72,0.000,0.000,0.000,-0.494,0.308,0.813,0.539,-0.376,-0.754,2474.41,0.000,0.000,0.000,-0.302,0.631,0.715,-0.043,-0.553,-0.832,2482.97,0.000,0.000,0.000,-0.144,0.102,-0.984,0.324,-0.117,-0.939,2481.32,0.448,-0.448,0.224,-0.873,0.430,0.228,0.344,0.182,0.921,10.953,6.015,0.824,-1.710,0.567,0.280,0.775,10.032,-4.977,-4.733,-2.855,none
2.016881,0.427,-0.490,-0.760,2459.20,0.000,0.000,0.000,-0.461,0.319,0.828,0.547,-0.380,-0.746,2473.31,0.000,0.000,0.000,-0.289,0.635,0.717,-0.036,-0.551,-0.834,2491.38,0.000,0.000,0.000,-0.120,0.118,-0.986,0.328,-0.129,-0.936,2487.21,-1.007,0.000,-0.560,-0.880,0.420,0.221,0.343,0.183,0.921,10.949,5.740,-0.214,-1.008,0.564,0.282,0.776,10.016,-4.809,-5.893,-1.893,none
2.038746,0.428,-0.487,-0.762,2454.32,0.000,0.000,0.000,-0.454,0.315,0.834,0.546,-0.375,-0.749,2477.75,0.000,0.000,0.000,-0.325,0.642,0.694,-0.039,-0.556,-0.830,2488.93,0.000,0.000,0.000,-0.131,0.133,-0.983,0.333,-0.113,-0.936,2477.37,-1.231,0.224,-0.560,-0.885,0.414,0.211,0.346,0.186,0.920,11.010,5.664,0.061,-1.328,0.567,0.285,0.773,10.010,-5.450,-5.069,-0.672,none
2.061287,0.430,-0.489,-0.759,2462.73,0.000,0.000,0.000,-0.482,0.331,0.811,0.547,-0.372,-0.750,2474.01,0.000,0.000,0.000,-0.297,0.640,0.708,-0.036,-0.554,-0.832,2496.91,0.000,0.000,0.000,-0.113,0.067,-0.991,0.331,-0.121,-0.936,2489.07,-0.336,0.224,-0.448,-0.883,0.403,0.241,0.345,0.186,0.920,10.985,5.557,0.153,-1.664,0.565,0.281,0.775,10.004,-5.817,-4.565,0.305,none
2.082566,0.428,-0.492,-0.758,2450.85,0.000,0.000,0.000,-0.475,0.334,0.814,0.544,-0.384,-0.746,2472.42,0.000,0.000,0.000,-0.332,0.602,0.726,-0.043,-0.553,-0.832,2482.97,0.000,0.000,0.000,-0.148,0.107,-0.983,0.331,-0.124,-0.935,2490.17,-0.224,0.224,-0.112,-0.883,0.410,0.229,0.345,0.182,0.921,10.984,5.450,0.153,-1.695,0.569,0.277,0.774,10.020,-5.954,-4.687,0.260,none
2.104728,0.426,-0.489,-0.761,2441.68,0.000,0.000,0.000,-0.448,0.345,0.825,0.541,-0.377,-0.752,2466.88,0.000,0.000,0.000,-0.331,0.556,0.763,-0.043,-0.553,-0.832,2482.97,0.000,0.000,0.000,-0.120,0.133,-0.984,0.326,-0.118,-0.938,2471.00,0.895,-0.112,0.224,-0.882,0.399,0.250,0.346,0.183,0.920,10.981,5.573,0.305,-1.771,0.569,0.278,0.774,10.000,-5.786,-4.534,-0.321,none
2.125897,0.424,-0.488,-0.763,2450.06,0.000,0.000,0.000,-0.470,0.349,0.811,0.544,-0.376,-0.750,2472.30,0.000,0.000,0.000,-0.280,0.656,0.701,-0.043,-0.548,-0.835,2485.80,0.000,0.000,0.000,-0.128,0.118,-0.985,0.328,-0.117,-0.937,2484.58,0.224,-0.224,0.560,-0.884,0.406,0.232,0.344,0.180,0.922,11.013,5.695,0.290,-1.618,0.568,0.276,0.776,10.012,-5.573,-4.611,-0.672,none
2.148976,0.424,-0.491,-0.761,2454.95,0.000,0.000,0.000,-0.477,0.335,0.812,0.545,-0.381,-0.747,2467.85,0.000,0.000,0.000,-0.297,0.644,0.705,-0.043,-0.556,-0.830,2488.52,0.000,0.000,0.000,-0.139,0.133,-0.981,0.328,-0.117,-0.937,2484.58,0.000,0.000,0.224,-0.874,0.431,0.222,0.344,0.181,0.921,10.988,5.786,0.611,-1.802,0.569,0.277,0.775,10.006,-5.725,-4.275,-0.550,none
2.175293,0.424,-0.491,-0.761,2454.95,0.000,0.000,0.000,-0.433,0.345,0.832,0.542,-0.383,-0.748,2479.89,0.000,0.000,0.000,-0.295,0.628,0.720,-0.043,-0.556,-0.830,2488.52,0.000,0.000,0.000,-0.177,0.096,-0.980,0.328,-0.121,-0.937,2484.84,0.224,0.224,0.000,-0.885,0.423,0.194,0.343,0.182,0.922,10.949,5.679,0.275,-1.481,0.566,0.274,0.777,10.011,-5.557,-4.763,-0.641,none
2.197591,0.421,-0.492,-0.762,2451.15,0.000,0.000,0.000,-0.487,0.289,0.824,0.539,-0.384,-0.750,2474.49,0.000,0.000,0.000,-0.316,0.574,0.755,-0.047,-0.553,-0.832,2484.26,0.000,0.000,0.000,-0.148,0.095,-0.984,0.327,-0.117,-0.938,2493.96,-0.112,0.000,-0.224,-0.875,0.427,0.228,0.345,0.183,0.921,10.994,5.786,0.656,-1.740,0.568,0.276,0.776,10.055,-5.511,-4.366,-1.527,none
2.220372,0.424,-0.491,-0.761,2454.95,0.000,0.000,0.000,-0.441,0.333,0.833,0.544,-0.376,-0.750,2472.30,0.000,0.000,0.000,-0.334,0.629,0.701,-0.043,-0.556,-0.830,2488.52,0.000,0.000,0.000,-0.149,0.140,-0.979,0.327,-0.124,-0.937,2495.31,-0.112,0.224,-0.224,-0.860,0.436,0.263,0.344,0.184,0.921,10.963,5.771,0.351,-1.527,0.568,0.277,0.775,10.000,-5.252,-4.840,-1.649,none
2.241704,0.425,-0.493,-0.759,2446.59,0.000,0.000,0.000,-0.445,0.318,0.837,0.540,-0.381,-0.751,2469.91,0.000,0.000,0.000,-0.309,0.664,0.680,-0.039,-0.556,-0.830,2488.93,0.000,0.000,0.000,-0.139,0.120,-0.983,0.328,-0.125,-0.936,2485.94,0.112,-0.336,-0.112,-0.884,0.406,0.232,0.341,0.184,0.922,10.964,5.786,0.015,-1.115,0.565,0.279,0.776,10.000,-5.023,-5.038,-1.466,none
2.264262,0.429,-0.496,-0.755,2448.23,0.000,0.000,0.000,-0.470,0.349,0.811,0.546,-0.386,-0.744,2481.33,0.000,0.000,0.000,-0.276,0.641,0.717,-0.039,-0.559,-0.828,2493.67,0.000,0.000,0.000,-0.153,0.124,-0.980,0.333,-0.129,-0.934,2481.16,-1.007,-0.224,0.000,-0.883,0.403,0.240,0.346,0.185,0.920,10.993,5.588,-0.397,-0.977,0.570,0.281,0.772,10.042,-5.145,-5.573,-0.718,none
2.286202,0.428,-0.492,-0.758,2450.85,0.000,0.000,0.000,-0.432,0.294,0.853,0.547,-0.380,-0.746,2473.31,0.000,0.000,0.000,-0.329,0.595,0.734,-0.039,-0.553,-0.832,2483.39,0.000,0.000,0.000,-0.121,0.096,-0.988,0.329,-0.122,-0.936,2476.41,-1.567,0.224,-0.783,-0.880,0.426,0.211,0.346,0.184,0.920,10.958,5.542,-0.290,-1.359,0.568,0.280,0.774,10.021,-5.603,-5.115,0.183,none
2.308557,0.428,-0.487,-0.762,2454.32,0.000,0.000,0.000,-0.458,0.333,0.824,0.541,-0.377,-0.752,2466.88,0.000,0.000,0.000,-0.326,0.618,0.716,-0.043,-0.553,-0.832,2482.97,0.000,0.000,0.000,-0.121,0.086,-0.989,0.330,-0.110,-0.938,2472.94,-0.560,0.448,-0.224,-0.892,0.403,0.203,0.346,0.184,0.920,10.972,5.710,0.718,-2.107,0.569,0.278,0.774,10.027,-6.031,-3.954,-0.046,none
2.330754,0.427,-0.490,-0.760,2459.20,0.000,0.000,0.000,-0.455,0.322,0.830,0.542,-0.383,-0.748,2479.89,0.000,0.000,0.000,-0.317,0.608,0.728,-0.043,-0.553,-0.832,2482.97,0.000,0.000,0.000,-0.128,0.131,-0.983,0.329,-0.125,-0.936,2477.52,1.790,-0.112,0.448,-0.869,0.439,0.226,0.344,0.182,0.921,10.966,5.634,0.519,-1.847,0.568,0.278,0.774,10.022,-5.847,-4.321,-0.534,none
2.352349,0.424,-0.491,-0.761,2454.95,0.000,0.000,0.000,-0.450,0.337,0.827,0.543,-0.380,-0.749,2475.33,0.000,0.000,0.000,-0.321,0.587,0.743,-0.044,-0.550,-0.834,2478.29,0.000,0.000,0.000,-0.145,0.135,-0.980,0.328,-0.121,-0.937,2484.84,0.560,-0.224,0.112,-0.878,0.409,0.250,0.343,0.182,0.922,10.971,5.649,0.183,-1.496,0.566,0.279,0.776,10.001,-5.527,-4.840,-0.718,none
2.374656,0.424,-0.491,-0.761,2454.95,0.000,0.000,0.000,-0.453,0.357,0.817,0.543,-0.380,-0.749,2475.33,0.000,0.000,0.000,-0.372,0.558,0.742,-0.043,-0.551,-0.833,2492.13,0.000,0.000,0.000,-0.165,0.127,-0.978,0.328,-0.121,-0.937,2484.84,-0.671,0.224,0.000,-0.865,0.421,0.271,0.346,0.185,0.920,10.978,5.664,0.260,-1.527,0.568,0.280,0.774,10.027,-5.496,-4.718,-0.595,none
2.396342,0.427,-0.490,-0.760,2459.20,0.000,0.000,0.000,-0.488,0.307,0.817,0.544,-0.376,-0.750,2472.30,0.000,0.000,0.000,-0.296,0.607,0.738,-0.039,-0.553,-0.832,2483.39,0.000,0.000,0.000,-0.149,0.132,-0.980,0.333,-0.121,-0.935,2478.78,-0.336,0.224,-0.224,-0.873,0.421,0.248,0.345,0.184,0.920,10.944,5.573,0.290,-1.603,0.567,0.279,0.775,9.969,-5.725,-4.580,-0.305,none
2.418174,0.428,-0.487,-0.762,2454.32,0.000,0.000,0.000,-0.500,0.311,0.809,0.545,-0.381,-0.747,2467.85,0.000,0.000,0.000,-0.316,0.662,0.680,-0.043,-0.553,-0.832,2482.97,0.000,0.000,0.000,-0.152,0.100,-0.983,0.328,-0.117,-0.937,2484.58,0.112,0.000,0.000,-0.891,0.432,0.140,0.345,0.181,0.921,10.975,5.588,0.427,-1.695,0.568,0.277,0.775,10.023,-5.832,-4.504,-0.351,none
2.439400,0.425,-0.493,-0.759,2446.59,0.000,0.000,0.000,-0.457,0.299,0.838,0.540,-0.381,-0.751,2469.91,0.000,0.000,0.000,-0.324,0.634,0.702,-0.044,-0.547,-0.836,2471.97,0.000,0.000,0.000,-0.120,0.108,-0.987,0.325,-0.122,-0.938,2473.13,0.448,-0.112,0.336,-0.877,0.437,0.197,0.342,0.182,0.922,10.975,5.603,0.366,-1.573,0.568,0.275,0.776,10.020,-5.603,-4.672,-0.901,none
2.461389,0.421,-0.492,-0.762,2451.15,0.000,0.000,0.000,-0.442,0.342,0.829,0.541,-0.385,-0.748,2467.00,0.000,0.000,0.000,-0.313,0.654,0.689,-0.048,-0.552,-0.833,2470.41,0.000,0.000,0.000,-0.128,0.128,-0.983,0.327,-0.121,-0.937,2494.21,0.000,-0.112,0.224,-0.880,0.421,0.221,0.342,0.179,0.922,10.973,5.756,0.366,-1.481,0.568,0.273,0.777,10.042,-5.237,-4.702,-1.740,none
2.483844,0.421,-0.492,-0.762,2451.15,0.000,0.000,0.000,-0.504,0.307,0.807,0.539,-0.384,-0.750,2474.49,0.000,0.000,0.000,-0.336,0.609,0.718,-0.047,-0.553,-0.832,2484.26,0.000,0.000,0.000,-0.149,0.109,-0.983,0.323,-0.124,-0.938,2492.06,0.336,-0.336,0.000,-0.896,0.387,0.216,0.345,0.179,0.921,10.970,5.817,0.260,-1.420,0.569,0.275,0.775,10.002,-4.962,-5.008,-2.168,none
2.507698,0.424,-0.491,-0.761,2454.95,0.000,0.000,0.000,-0.485,0.340,0.805,0.540,-0.381,-0.751,2469.91,0.000,0.000,0.000,-0.305,0.619,0.724,-0.044,-0.555,-0.831,2475.49,0.000,0.000,0.000,-0.125,0.131,-0.983,0.324,-0.121,-0.938,2481.57,-0.224,-0.336,-0.112,-0.877,0.436,0.202,0.345,0.183,0.920,10.980,5.908,0.489,-1.481,0.568,0.279,0.774,10.008,-5.008,-4.885,-2.076,none
2.534317,0.425,-0.493,-0.759,2446.59,0.000,0.000,0.000,-0.478,0.301,0.825,0.546,-0.379,-0.747,2480.77,0.000,0.000,0.000,-0.326,0.559,0.762,-0.039,-0.553,-0.832,2483.39,0.000,0.000,0.000,-0.135,0.135,-0.982,0.331,-0.124,-0.935,2490.17,-0.783,0.336,-0.671,-0.874,0.407,0.265,0.344,0.184,0.921,10.945,5.771,0.229,-1.344,0.566,0.281,0.775,9.995,-5.069,-5.038,-1.191,none
2.547868,0.428,-0.492,-0.758,2450.85,0.000,0.000,0.000,-0.495,0.310,0.812,0.547,-0.380,-0.746,2473.31,0.000,0.000,0.000,-0.283,0.611,0.740,-0.043,-0.556,-0.830,2488.52,0.000,0.000,0.000,-0.120,0.143,-0.982,0.334,-0.125,-0.934,2473.35,-0.895,-0.224,-0.448,-0.868,0.419,0.265,0.346,0.185,0.920,10.982,5.679,-0.076,-1.466,0.568,0.283,0.773,10.028,-5.573,-5.008,-0.305,none
2.571181,0.429,-0.489,-0.760,2445.95,0.000,0.000,0.000,-0.465,0.329,0.822,0.544,-0.376,-0.750,2472.30,0.000,0.000,0.000,-0.280,0.656,0.701,-0.040,-0.552,-0.833,2469.54,0.000,0.000,0.000,-0.151,0.086,-0.985,0.329,-0.118,-0.937,2474.27,-0.224,0.224,-0.224,-0.872,0.425,0.242,0.344,0.186,0.920,10.955,5.618,0.443,-1.969,0.567,0.281,0.774,10.011,-5.954,-4.290,-0.015,none
2.592451,0.428,-0.492,-0.758,2450.85,0.000,0.000,0.000,-0.448,0.336,0.829,0.543,-0.380,-0.749,2475.33,0.000,0.000,0.000,-0.336,0.609,0.718,-0.039,-0.553,-0.832,2483.39,0.000,0.000,0.000,-0.138,0.092,-0.986,0.332,-0.117,-0.936,2486.94,0.671,0.224,0.560,-0.879,0.408,0.248,0.341,0.185,0.922,10.985,5.634,0.504,-1.924,0.566,0.279,0.776,10.008,-5.878,-4.412,-0.427,none
2.614238,0.425,-0.493,-0.759,2446.59,0.000,0.000,0.000,-0.456,0.315,0.832,0.543,-0.380,-0.749,2475.33,0.000,0.000,0.000,-0.257,0.645,0.720,-0.043,-0.553,-0.832,2482.97,0.000,0.000,0.000,-0.138,0.096,-0.986,0.327,-0.121,-0.937,2494.21,1.007,-0.224,0.448,-0.858,0.428,0.283,0.343,0.184,0.921,10.983,5.542,0.305,-1.679,0.567,0.277,0.775,10.009,-5.725,-4.565,-0.626,none
2.637100,0.427,-0.490,-0.760,2459.20,0.000,0.000,0.000,-0.504,0.330,0.798,0.545,-0.381,-0.747,2467.85,0.000,0.000,0.000,-0.287,0.654,0.700,-0.043,-0.551,-0.833,2492.13,0.000,0.000,0.000,-0.121,0.087,-0.989,0.328,-0.125,-0.936,2485.94,0.112,0.112,0.000,-0.886,0.418,0.202,0.342,0.182,0.922,10.962,5.603,-0.168,-1.115,0.567,0.279,0.775,9.989,-5.206,-5.344,-1.038,none
2.658991,0.428,-0.487,-0.762,2454.32,0.000,0.000,0.000,-0.491,0.325,0.808,0.546,-0.375,-0.749,2477.75,0.000,0.000,0.000,-0.324,0.650,0.687,-0.040,-0.558,-0.829,2479.80,0.000,0.000,0.000,-0.123,0.091,-0.988,0.332,-0.113,-0.937,2485.79,-0.895,0.112,0.000,-0.879,0.412,0.240,0.348,0.187,0.919,10.972,5.756,0.397,-1.649,0.569,0.281,0.773,10.053,-5.511,-4.580,-0.947,none
2.681955,0.428,-0.487,-0.762,2454.32,0.000,0.000,0.000,-0.441,0.350,0.827,0.548,-0.376,-0.747,2470.27,0.000,0.000,0.000,-0.294,0.663,0.689,-0.039,-0.556,-0.830,2488.93,0.000,0.000,0.000,-0.102,0.100,-0.990,0.333,-0.121,-0.935,2478.78,-0.112,0.224,0.000,-0.872,0.404,0.275,0.344,0.182,0.921,10.975,5.664,0.626,-1.954,0.567,0.277,0.776,10.022,-6.000,-4.214,-0.183,none
2.705852,0.421,-0.492,-0.762,2451.15,0.000,0.000,0.000,-0.475,0.334,0.814,0.545,-0.381,-0.747,2467.85,0.000,0.000,0.000,-0.312,0.619,0.721,-0.048,-0.552,-0.833,2470.41,0.000,0.000,0.000,-0.165,0.170,-0.972,0.328,-0.117,-0.937,2484.58,1.343,-0.224,0.448,-0.867,0.427,0.257,0.341,0.184,0.922,10.950,5.649,0.473,-1.756,0.565,0.275,0.778,9.985,-5.756,-4.443,-0.473,none
2.729438,0.425,-0.493,-0.759,2446.59,0.000,0.000,0.000,-0.476,0.334,0.814,0.538,-0.387,-0.749,2477.96,0.000,0.000,0.000,-0.305,0.613,0.729,-0.047,-0.553,-0.832,2484.26,0.000,0.000,0.000,-0.110,0.134,-0.985,0.323,-0.113,-0.940,2489.56,0.224,-0.224,0.448,-0.884,0.420,0.203,0.343,0.180,0.922,10.966,5.756,0.626,-1.756,0.568,0.275,0.775,10.013,-5.481,-4.611,-1.527,none
2.750560,0.423,-0.494,-0.760,2459.88,0.000,0.000,0.000,-0.471,0.325,0.820,0.538,-0.381,-0.752,2465.06,0.000,0.000,0.000,-0.276,0.638,0.719,-0.047,-0.553,-0.832,2484.26,0.000,0.000,0.000,-0.153,0.109,-0.982,0.324,-0.121,-0.938,2481.57,-0.560,0.224,0.112,-0.888,0.409,0.211,0.343,0.180,0.922,10.971,5.756,0.122,-1.359,0.566,0.274,0.777,10.033,-5.008,-5.313,-2.443,none
2.772544,0.424,-0.491,-0.761,2454.95,0.000,0.000,0.000,-0.493,0.319,0.809,0.539,-0.384,-0.750,2474.49,0.000,0.000,0.000,-0.324,0.605,0.727,-0.043,-0.554,-0.832,2497.66,0.000,0.000,0.000,-0.145,0.125,-0.981,0.327,-0.117,-0.938,2493.96,0.336,-0.336,0.448,-0.888,0.398,0.231,0.345,0.183,0.921,10.980,5.878,0.687,-1.695,0.566,0.280,0.775,10.038,-4.947,-4.809,-2.779,none
2.800608,0.430,-0.489,-0.759,2462.73,0.000,0.000,0.000,-0.491,0.328,0.807,0.549,-0.375,-0.747,2483.23,0.000,0.000,0.000,-0.315,0.573,0.756,-0.036,-0.556,-0.830,2487.76,0.000,0.000,0.000,-0.158,0.093,-0.983,0.331,-0.124,-0.935,2490.17,0.000,0.000,-0.224,-0.863,0.426,0.271,0.343,0.185,0.921,10.958,5.847,0.641,-1.771,0.563,0.281,0.777,9.990,-5.359,-4.504,-1.420,none
2.817840,0.428,-0.495,-0.757,2455.79,0.000,0.000,0.000,-0.486,0.338,0.806,0.547,-0.380,-0.746,2473.31,0.000,0.000,0.000,-0.282,0.639,0.716,-0.035,-0.560,-0.828,2507.21,0.000,0.000,0.000,-0.132,0.088,-0.987,0.328,-0.129,-0.936,2487.21,-0.895,0.224,-0.671,-0.884,0.420,0.203,0.344,0.184,0.921,10.977,5.557,-0.305,-1.130,0.568,0.280,0.774,10.025,-5.420,-5.298,0.031,none
2.852942,0.428,-0.487,-0.762,2454.32,0.000,0.000,0.000,-0.515,0.295,0.805,0.543,-0.380,-0.749,2475.33,0.000,0.000,0.000,-0.328,0.631,0.703,-0.040,-0.555,-0.831,2474.24,0.000,0.000,0.000,-0.141,0.135,-0.981,0.328,-0.113,-0.938,2483.43,-0.671,-0.336,-0.671,-0.884,0.412,0.220,0.346,0.186,0.919,10.975,5.527,0.198,-1.695,0.569,0.283,0.772,10.021,-5.863,-4.702,0.305,none
2.861358,0.428,-0.487,-0.762,2454.32,0.000,0.000,0.000,-0.470,0.303,0.829,0.544,-0.376,-0.750,2472.30,0.000,0.000,0.000,-0.305,0.613,0.729,-0.040,-0.550,-0.834,2477.04,0.000,0.000,0.000,-0.108,0.156,-0.982,0.330,-0.114,-0.937,2473.12,-0.336,0.336,-0.112,-0.884,0.412,0.220,0.342,0.185,0.921,10.979,5.634,0.733,-2.046,0.566,0.280,0.775,10.018,-6.046,-4.168,-0.137,none
2.884893,0.428,-0.495,-0.757,2455.79,0.000,0.000,0.000,-0.465,0.329,0.822,0.542,-0.383,-0.748,2479.89,0.000,0.000,0.000,-0.321,0.604,0.729,-0.043,-0.551,-0.833,2492.13,0.000,0.000,0.000,-0.111,0.095,-0.989,0.328,-0.117,-0.937,2484.58,1.119,-0.224,0.448,-0.872,0.419,0.254,0.342,0.184,0.921,11.007,5.695,0.641,-1.847,0.566,0.276,0.777,10.004,-5.679,-4.321,-0.977,none
2.906448,0.425,-0.493,-0.759,2446.59,0.000,0.000,0.000,-0.489,0.323,0.810,0.542,-0.383,-0.748,2479.89,0.000,0.000,0.000,-0.302,0.631,0.715,-0.040,-0.555,-0.831,2474.24,0.000,0.000,0.000,-0.138,0.143,-0.980,0.328,-0.129,-0.936,2487.21,1.343,-0.448,0.671,-0.893,0.404,0.197,0.345,0.183,0.920,11.000,5.710,0.305,-1.557,0.569,0.280,0.774,10.031,-5.435,-4.901,-1.038,none
2.930410,0.428,-0.487,-0.762,2454.32,0.000,0.000,0.000,-0.493,0.333,0.804,0.545,-0.377,-0.749,2464.80,0.000,0.000,0.000,-0.324,0.605,0.727,-0.039,-0.554,-0.832,2496.41,0.000,0.000,0.000,-0.129,0.084,-0.988,0.331,-0.121,-0.936,2489.07,-0.671,0.224,0.224,-0.884,0.406,0.232,0.343,0.182,0.921,11.001,5.557,0.122,-1.542,0.567,0.275,0.777,10.043,-5.649,-4.870,-0.397,none
2.952245,0.424,-0.491,-0.761,2454.95,0.000,0.000,0.000,-0.459,0.260,0.850,0.539,-0.376,-0.754,2474.41,0.000,0.000,0.000,-0.301,0.623,0.722,-0.047,-0.555,-0.830,2489.80,0.000,0.000,0.000,-0.135,0.123,-0.983,0.328,-0.117,-0.937,2484.58,-0.336,0.224,-0.224,-0.882,0.399,0.250,0.344,0.179,0.922,10.999,5.679,0.382,-1.679,0.568,0.274,0.776,10.013,-5.771,-4.458,-0.397,none
2.973894,0.421,-0.489,-0.764,2446.25,0.000,0.000,0.000,-0.462,0.293,0.837,0.536,-0.380,-0.754,2472.59,0.000,0.000,0.000,-0.305,0.584,0.752,-0.048,-0.555,-0.831,2475.11,0.000,0.000,0.000,-0.148,0.127,-0.981,0.323,-0.113,-0.940,2489.56,1.119,-0.224,0.224,-0.875,0.423,0.237,0.341,0.180,0.923,10.995,5.817,0.977,-2.000,0.568,0.273,0.777,10.016,-5.695,-4.137,-1.130,none
2.995862,0.421,-0.492,-0.762,2451.15,0.000,0.000,0.000,-0.491,0.298,0.819,0.536,-0.380,-0.754,2472.59,0.000,0.000,0.000,-0.282,0.639,0.716,-0.043,-0.554,-0.832,2497.66,0.000,0.000,0.000,-0.141,0.099,-0.985,0.323,-0.124,-0.938,2492.06,0.336,0.000,0.000,-0.879,0.424,0.220,0.342,0.181,0.922,10.990,5.802,0.397,-1.450,0.565,0.273,0.779,10.007,-5.130,-4.962,-2.107,none
3.021216,0.425,-0.493,-0.759,2446.59,0.000,0.000,0.000,-0.484,0.304,0.821,0.538,-0.381,-0.752,2465.06,0.000,0.000,0.000,-0.308,0.630,0.713,-0.044,-0.555,-0.831,2475.49,0.000,0.000,0.000,-0.163,0.111,-0.980,0.328,-0.113,-0.938,2483.43,-0.448,-0.112,0.000,-0.872,0.433,0.229,0.344,0.185,0.921,10.981,6.015,1.038,-1.878,0.569,0.280,0.774,10.025,-5.160,-4.214,-2.595,none
3.040294,0.430,-0.489,-0.759,2462.73,0.000,0.000,0.000,-0.474,0.281,0.835,0.547,-0.380,-0.746,2473.31,0.000,0.000,0.000,-0.302,0.604,0.737,-0.039,-0.559,-0.828,2508.37,0.000,0.000,0.000,-0.110,0.120,-0.987,0.333,-0.129,-0.934,2481.16,0.000,0.000,0.000,-0.896,0.395,0.204,0.340,0.189,0.921,10.989,5.817,0.031,-1.130,0.563,0.281,0.777,10.007,-4.733,-5.298,-1.893,none
3.061985,0.432,-0.491,-0.757,2455.91,0.000,0.000,0.000,-0.484,0.322,0.814,0.551,-0.376,-0.745,2475.77,0.000,0.000,0.000,-0.308,0.626,0.716,-0.036,-0.559,-0.829,2494.17,0.000,0.000,0.000,-0.138,0.130,-0.982,0.336,-0.125,-0.933,2483.23,0.000,0.000,0.000,-0.882,0.394,0.258,0.346,0.189,0.919,10.994,5.527,-0.351,-1.099,0.566,0.288,0.772,10.020,-5.237,-5.542,-0.519,none
3.084668,0.436,-0.487,-0.757,2455.36,0.000,0.000,0.000,-0.476,0.326,0.817,0.552,-0.372,-0.746,2472.03,0.000,0.000,0.000,-0.277,0.588,0.760,-0.036,-0.556,-0.830,2487.76,0.000,0.000,0.000,-0.116,0.156,-0.981,0.337,-0.109,-0.935,2478.67,0.000,0.000,0.000,-0.872,0.399,0.284,0.343,0.184,0.921,11.000,5.573,0.672,-2.137,0.568,0.281,0.774,10.015,-6.275,-3.786,0.168,none
3.108607,0.425,-0.493,-0.759,2446.59,0.000,0.000,0.000,-0.487,0.349,0.801,0.537,-0.385,-0.751,2469.65,0.000,0.000,0.000,-0.344,0.615,0.709,-0.044,-0.555,-0.831,2475.49,0.000,0.000,0.000,-0.120,0.123,-0.985,0.323,-0.117,-0.939,2490.71,0.000,0.000,0.000,-0.888,0.392,0.240,0.343,0.182,0.922,10.985,5.664,0.748,-1.985,0.569,0.272,0.776,10.034,-5.771,-4.214,-1.389,none
3.130275,0.421,-0.492,-0.762,2451.15,0.000,0.000,0.000,-0.475,0.334,0.814,0.538,-0.379,-0.752,2477.43,0.000,0.000,0.000,-0.297,0.640,0.708,-0.047,-0.553,-0.832,2484.26,0.000,0.000,0.000,-0.130,0.108,-0.986,0.323,-0.117,-0.939,2490.71,0.000,0.000,0.000,-0.870,0.395,0.295,0.343,0.181,0.922,10.984,5.832,0.718,-1.771,0.567,0.276,0.776,10.012,-5.344,-4.840,-2.366,none
3.151938,0.424,-0.491,-0.761,2454.95,0.000,0.000,0.000,-0.487,0.341,0.804,0.545,-0.381,-0.747,2467.85,0.000,0.000,0.000,-0.278,0.646,0.711,-0.043,-0.558,-0.828,2494.92,0.000,0.000,0.000,-0.155,0.103,-0.982,0.324,-0.125,-0.938,2482.68,0.000,0.000,0.000,-0.868,0.423,0.259,0.345,0.183,0.921,10.982,5.756,0.397,-1.664,0.567,0.281,0.774,10.021,-5.237,-5.023,-1.511,none
3.175496,0.428,-0.492,-0.758,2450.85,0.000,0.000,0.000,-0.497,0.304,0.812,0.547,-0.380,-0.746,2473.31,0.000,0.000,0.000,-0.353,0.619,0.701,-0.039,-0.553,-0.832,2483.39,0.000,0.000,0.000,-0.155,0.115,-0.981,0.333,-0.113,-0.936,2477.37,0.000,0.000,0.000,-0.882,0.394,0.260,0.344,0.185,0.921,10.961,5.817,0.901,-2.229,0.566,0.281,0.775,10.028,-5.802,-3.985,-0.733,none
3.199336,0.427,-0.490,-0.760,2459.20,0.000,0.000,0.000,-0.469,0.340,0.815,0.543,-0.380,-0.749,2475.33,0.000,0.000,0.000,-0.285,0.620,0.731,-0.039,-0.556,-0.830,2488.93,0.000,0.000,0.000,-0.138,0.116,-0.984,0.328,-0.125,-0.936,2485.94,0.000,0.000,0.000,-0.885,0.415,0.211,0.341,0.183,0.922,10.947,5.649,0.595,-1.817,0.563,0.279,0.778,10.007,-5.710,-4.397,-0.443,none
3.219882,0.425,-0.493,-0.759,2446.59,0.000,0.000,0.000,-0.456,0.331,0.826,0.540,-0.381,-0.751,2469.91,0.000,0.000,0.000,-0.313,0.623,0.717,-0.040,-0.558,-0.829,2479.80,0.000,0.000,0.000,-0.149,0.120,-0.982,0.329,-0.122,-0.936,2476.41,0.000,0.000,0.000,-0.876,0.444,0.190,0.340,0.184,0.922,10.999,5.466,-0.504,-0.962,0.559,0.278,0.781,10.028,-5.252,-5.893,-0.397,none
3.241684,0.428,-0.495,-0.757,2455.79,0.000,0.000,0.000,-0.455,0.317,0.832,0.543,-0.380,-0.749,2475.33,0.000,0.000,0.000,-0.277,0.684,0.675,-0.044,-0.552,-0.833,2469.12,0.000,0.000,0.000,-0.155,0.125,-0.980,0.327,-0.113,-0.938,2492.81,0.000,0.000,0.000,-0.883,0.424,0.202,0.342,0.186,0.921,10.975,5.756,0.611,-1.924,0.566,0.284,0.774,10.036,-5.573,-4.824,-1.252,none
3.263645,0.429,-0.489,-0.760,2445.95,0.000,0.000,0.000,-0.463,0.303,0.833,0.548,-0.376,-0.747,2470.27,0.000,0.000,0.000,-0.289,0.600,0.746,-0.036,-0.554,-0.832,2496.91,0.000,0.000,0.000,-0.131,0.089,-0.987,0.328,-0.121,-0.937,2484.84,0.000,0.000,0.000,-0.876,0.425,0.228,0.341,0.185,0.922,10.960,5.908,0.901,-2.046,0.563,0.278,0.778,10.036,-5.527,-4.489,-1.573,none
3.286175,0.425,-0.493,-0.759,2446.59,0.000,0.000,0.000,-0.462,0.343,0.818,0.543,-0.380,-0.749,2475.33,0.000,0.000,0.000,-0.282,0.639,0.716,-0.039,-0.560,-0.827,2486.22,0.000,0.000,0.000,-0.118,0.151,-0.982,0.328,-0.121,-0.937,2484.84,0.000,0.000,0.000,-0.851,0.451,0.270,0.340,0.183,0.922,10.953,5.817,0.611,-1.679,0.566,0.277,0.776,10.018,-5.298,-4.779,-1.573,none
3.308673,0.429,-0.489,-0.760,2445.95,0.000,0.000,0.000,-0.488,0.332,0.807,0.546,-0.383,-0.745,2477.87,0.000,0.000,0.000,-0.302,0.631,0.715,-0.036,-0.563,-0.825,2490.68,0.000,0.000,0.000,-0.131,0.149,-0.980,0.328,-0.137,-0.935,2481.45,0.000,0.000,0.000,-0.872,0.443,0.207,0.341,0.185,0.922,10.989,5.573,-0.336,-1.130,0.566,0.279,0.776,10.005,-5.237,-5.664,-0.565,none
3.330586,0.429,-0.489,-0.760,2445.95,0.000,0.000,0.000,-0.478,0.309,0.822,0.543,-0.380,-0.749,2475.33,0.000,0.000,0.000,-0.328,0.602,0.728,-0.039,-0.553,-0.832,2483.39,0.000,0.000,0.000,-0.138,0.116,-0.984,0.329,-0.118,-0.937,2474.27,0.000,0.000,0.000,-0.847,0.456,0.272,0.344,0.183,0.921,10.975,5.542,-0.260,-1.145,0.567,0.279,0.775,10.001,-5.359,-5.450,-0.489,none
3.351794,0.425,-0.493,-0.759,2446.59,0.000,0.000,0.000,-0.437,0.355,0.826,0.540,-0.381,-0.751,2469.91,0.000,0.000,0.000,-0.275,0.632,0.725,-0.043,-0.553,-0.832,2482.97,0.000,0.000,0.000,-0.108,0.127,-0.986,0.323,-0.113,-0.940,2489.56,0.000,0.000,0.000,-0.845,0.466,0.262,0.344,0.184,0.921,10.955,5.573,-0.092,-1.313,0.566,0.280,0.776,10.040,-5.405,-5.176,-0.748,none
3.374100,0.425,-0.493,-0.759,2446.59,0.000,0.000,0.000,-0.479,0.284,0.831,0.545,-0.381,-0.747,2467.85,0.000,0.000,0.000,-0.329,0.612,0.719,-0.044,-0.555,-0.831,2475.49,0.000,0.000,0.000,-0.156,0.140,-0.978,0.327,-0.113,-0.938,2492.81,0.000,0.000,0.000,-0.860,0.427,0.280,0.344,0.185,0.921,10.976,5.603,0.122,-1.466,0.567,0.282,0.774,10.001,-5.450,-5.145,-1.053,none
3.396678,0.428,-0.487,-0.762,2454.32,0.000,0.000,0.000,-0.500,0.348,0.793,0.545,-0.381,-0.747,2467.85,0.000,0.000,0.000,-0.276,0.641,0.717,-0.040,-0.558,-0.829,2479.80,0.000,0.000,0.000,-0.148,0.117,-0.982,0.324,-0.121,-0.938,2481.57,0.000,0.000,0.000,-0.856,0.452,0.250,0.343,0.185,0.921,10.972,5.695,0.260,-1.573,0.566,0.279,0.776,10.035,-5.313,-5.008,-1.176,none
3.426130,0.428,-0.492,-0.758,2450.85,0.000,0.000,0.000,-0.486,0.355,0.798,0.547,-0.380,-0.746,2473.31,0.000,0.000,0.000,-0.343,0.643,0.685,-0.040,-0.558,-0.829,2479.80,0.000,0.000,0.000,-0.167,0.142,-0.976,0.328,-0.117,-0.937,2484.58,0.000,0.000,0.000,-0.864,0.440,0.244,0.342,0.183,0.921,10.983,5.634,0.458,-1.710,0.565,0.277,0.777,10.055,-5.481,-4.718,-1.069,none
3.441966,0.426,-0.489,-0.762,2466.05,0.000,0.000,0.000,-0.460,0.335,0.823,0.543,-0.380,-0.749,2475.33,0.000,0.000,0.000,-0.334,0.629,0.701,-0.039,-0.559,-0.828,2493.67,0.000,0.000,0.000,-0.144,0.132,-0.981,0.328,-0.121,-0.937,2484.84,0.000,0.000,0.000,-0.858,0.427,0.286,0.340,0.183,0.922,10.973,5.618,0.229,-1.573,0.565,0.279,0.776,10.001,-5.557,-4.641,-0.611,none
3.465242,0.428,-0.492,-0.758,2450.85,0.000,0.000,0.000,-0.493,0.317,0.810,0.547,-0.380,-0.746,2473.31,0.000,0.000,0.000,-0.340,0.625,0.703,-0.039,-0.560,-0.827,2486.22,0.000,-0.224,0.224,-0.111,0.096,-0.989,0.324,-0.129,-0.937,2483.95,0.000,0.000,0.000,-0.847,0.428,0.316,0.343,0.185,0.921,10.906,5.557,-0.321,-0.992,0.567,0.279,0.775,9.967,-5.298,-5.344,-0.168,none
3.487949,0.427,-0.491,-0.759,2434.08,0.000,0.000,0.000,-0.470,0.314,0.825,0.540,-0.379,-0.752,2454.50,0.000,0.000,0.000,-0.292,0.615,0.732,-0.044,-0.556,-0.830,2453.32,-0.224,-0.448,0.000,-0.138,0.107,-0.985,0.326,-0.118,-0.938,2471.00,0.000,0.000,0.000,-0.866,0.450,0.217,0.344,0.184,0.921,10.977,6.031,0.305,-1.328,0.560,0.278,0.780,10.019,-4.947,-4.656,-1.160,none
3.510600,0.423,-0.494,-0.760,2459.88,0.000,0.000,0.000,-0.474,0.349,0.808,0.539,-0.392,-0.746,2474.38,0.000,0.000,0.000,-0.292,0.617,0.731,-0.037,-0.555,-0.831,2437.87,0.112,1.119,-0.783,-0.110,0.144,-0.984,0.323,-0.125,-0.938,2399.02,0.000,0.000,0.000,-0.879,0.412,0.240,0.346,0.185,0.920,10.947,5.847,0.260,-1.328,0.566,0.283,0.775,10.040,-5.252,-4.992,-1.267,none
3.532181,0.430,-0.497,-0.754,2465.79,0.448,-0.112,-0.560,-0.460,0.336,0.822,0.546,-0.388,-0.743,2498.10,0.000,0.000,0.000,-0.302,0.604,0.737,-0.039,-0.553,-0.832,2483.39,0.224,0.224,-0.783,-0.127,0.148,-0.981,0.330,-0.119,-0.936,2529.82,1.902,-0.336,1.790,-0.857,0.445,0.259,0.346,0.188,0.919,10.979,5.664,0.229,-1.786,0.567,0.284,0.773,10.039,-5.679,-4.672,-0.534,none
3.553500,0.432,-0.488,-0.758,2451.02,0.000,-0.224,0.224,-0.465,0.329,0.822,0.550,-0.363,-0.752,2480.02,0.000,0.000,0.000,-0.294,0.655,0.697,-0.036,-0.559,-0.829,2494.17,0.560,0.000,0.000,-0.128,0.126,-0.984,0.333,-0.128,-0.934,2504.11,2.350,-0.336,1.455,-0.874,0.407,0.265,0.342,0.185,0.922,10.987,5.191,-0.748,-1.298,0.566,0.283,0.774,10.057,-5.832,-5.664,0.580,none
3.575281,0.428,-0.487,-0.762,2454.32,-1.119,-1.007,0.112,-0.484,0.312,0.818,0.547,-0.380,-0.746,2473.31,0.000,0.000,0.000,-0.301,0.623,0.722,-0.039,-0.554,-0.832,2496.41,-1.567,-0.336,0.560,-0.154,0.133,-0.979,0.333,-0.120,-0.935,2510.17,0.671,0.448,0.783,-0.865,0.406,0.295,0.340,0.185,0.922,10.993,5.160,-0.763,-1.099,0.568,0.280,0.773,9.986,-5.771,-5.679,0.595,none
3.596381,0.424,-0.488,-0.763,2450.06,-0.560,-0.895,0.112,-0.458,0.334,0.824,0.544,-0.376,-0.750,2472.30,0.000,0.000,0.000,-0.302,0.604,0.737,-0.039,-0.560,-0.827,2486.22,-1.902,-0.224,0.560,-0.138,0.128,-0.982,0.329,-0.120,-0.937,2506.86,-0.671,0.000,0.448,-0.872,0.428,0.239,0.342,0.181,0.922,10.995,5.298,-0.687,-1.038,0.569,0.277,0.774,10.038,-5.588,-5.679,0.305,none
3.618985,0.423,-0.486,-0.764,2456.93,-0.560,-0.112,-0.224,-0.463,0.327,0.824,0.539,-0.376,-0.754,2474.41,0.000,0.000,0.000,-0.291,0.645,0.707,-0.043,-0.556,-0.830,2488.52,-2.014,-0.336,0.560,-0.164,0.144,-0.976,0.324,-0.129,-0.937,2483.95,0.336,-0.112,0.448,-0.893,0.401,0.205,0.342,0.180,0.922,10.982,5.405,-0.947,-0.687,0.567,0.275,0.777,9.998,-5.191,-6.046,0.015,none
3.641395,0.422,-0.489,-0.763,2461.81,-1.343,-0.783,-0.671,-0.470,0.314,0.825,0.538,-0.379,-0.752,2477.43,0.000,0.000,0.000,-0.325,0.642,0.694,-0.044,-0.557,-0.829,2481.05,-2.126,-0.224,-0.112,-0.131,0.110,-0.985,0.330,-0.114,-0.937,2473.12,-0.112,-0.224,-0.112,-0.876,0.414,0.249,0.348,0.180,0.920,10.989,5.420,-0.718,-0.779,0.569,0.276,0.775,10.017,-5.298,-6.046,-0.153,none
3.663622,0.423,-0.486,-0.764,2456.93,-0.783,-0.336,-0.560,-0.466,0.280,0.839,0.541,-0.377,-0.752,2466.88,0.000,0.000,0.000,-0.275,0.633,0.724,-0.040,-0.552,-0.833,2469.54,-2.014,0.224,-0.112,-0.125,0.131,-0.983,0.324,-0.117,-0.939,2481.32,-0.224,0.224,-0.112,-0.860,0.444,0.252,0.345,0.183,0.921,10.975,5.466,-0.489,-0.992,0.570,0.277,0.773,10.033,-5.191,-5.679,-0.550,none
3.685567,0.428,-0.487,-0.762,2454.32,-0.895,-0.448,-0.560,-0.466,0.345,0.815,0.544,-0.376,-0.750,2472.30,0.000,0.000,0.000,-0.272,0.657,0.703,-0.040,-0.552,-0.833,2469.54,-1.343,0.000,-0.112,-0.154,0.133,-0.979,0.328,-0.121,-0.937,2484.84,-1.231,0.336,-0.448,-0.868,0.419,0.265,0.342,0.185,0.921,10.966,5.481,-0.519,-0.901,0.568,0.279,0.774,10.003,-5.160,-5.557,-0.656,none
3.709001,0.432,-0.491,-0.757,2455.91,-0.560,-0.224,-0.224,-0.491,0.298,0.819,0.546,-0.379,-0.747,2480.77,0.000,0.000,0.000,-0.311,0.644,0.699,-0.036,-0.556,-0.830,2487.76,-1.902,0.224,-0.224,-0.165,0.115,-0.980,0.330,-0.134,-0.935,2471.68,-0.336,-0.112,-0.224,-0.888,0.404,0.221,0.349,0.185,0.919,10.957,5.298,-1.206,-0.580,0.570,0.286,0.770,10.023,-5.145,-6.397,-0.046,none
3.730758,0.435,-0.482,-0.760,2457.35,-1.679,-0.671,-1.119,-0.478,0.322,0.817,0.553,-0.369,-0.747,2467.58,0.000,0.000,0.000,-0.309,0.632,0.711,-0.032,-0.548,-0.836,2485.55,-3.021,-0.560,0.671,-0.131,0.110,-0.985,0.334,-0.122,-0.935,2472.24,-1.007,0.000,-0.671,-0.873,0.380,0.305,0.344,0.185,0.920,10.960,5.221,-1.405,-0.534,0.569,0.280,0.773,10.005,-5.466,-6.092,0.947,none
3.753905,0.428,-0.487,-0.762,2454.32,-0.895,-1.343,-0.336,-0.458,0.326,0.827,0.543,-0.380,-0.749,2475.33,0.000,0.000,0.000,-0.298,0.614,0.731,-0.040,-0.550,-0.834,2477.04,-3.245,-1.455,1.119,-0.166,0.139,-0.976,0.328,-0.113,-0.938,2483.43,-2.014,-0.112,-0.448,-0.864,0.401,0.304,0.350,0.181,0.919,10.984,5.359,-0.550,-1.115,0.573,0.278,0.771,10.025,-5.802,-5.115,0.443,none
3.775799,0.425,-0.485,-0.764,2445.20,0.224,-0.671,0.112,-0.461,0.319,0.828,0.540,-0.372,-0.755,2470.66,0.000,0.000,0.000,-0.321,0.587,0.743,-0.048,-0.544,-0.837,2468.35,-1.679,-1.119,0.783,-0.168,0.104,-0.980,0.325,-0.109,-0.939,2478.11,-0.224,0.000,0.112,-0.891,0.400,0.212,0.346,0.177,0.921,11.024,5.450,0.534,-1.939,0.573,0.275,0.772,9.997,-6.061,-4.305,-0.366,none
3.799113,0.420,-0.483,-0.769,2455.96,0.448,-0.224,0.671,-0.478,0.336,0.812,0.539,-0.376,-0.754,2474.41,0.000,0.000,0.000,-0.307,0.661,0.685,-0.048,-0.544,-0.837,2468.35,1.790,0.224,0.000,-0.159,0.132,-0.978,0.320,-0.109,-0.941,2484.61,1.790,-0.336,1.343,-0.887,0.418,0.194,0.347,0.179,0.921,10.984,6.046,1.878,-2.809,0.572,0.272,0.774,10.028,-5.908,-3.298,-1.985,none
3.821282,0.420,-0.487,-0.766,2453.13,1.790,1.231,0.560,-0.461,0.300,0.835,0.539,-0.376,-0.754,2474.41,0.000,0.000,0.000,-0.311,0.638,0.704,-0.043,-0.553,-0.832,2482.97,4.141,0.895,-0.671,-0.145,0.135,-0.980,0.323,-0.117,-0.939,2490.71,2.014,0.000,0.783,-0.884,0.406,0.232,0.342,0.178,0.923,10.998,6.214,1.908,-2.443,0.568,0.273,0.776,10.007,-5.496,-3.145,-2.702,none
3.843570,0.424,-0.491,-0.761,2454.95,2.126,1.455,0.224,-0.450,0.346,0.823,0.542,-0.382,-0.749,2462.42,0.000,0.000,0.000,-0.341,0.579,0.741,-0.043,-0.561,-0.827,2500.51,3.245,0.448,-0.671,-0.118,0.104,-0.987,0.322,-0.140,-0.936,2497.35,0.560,-0.783,-0.336,-0.867,0.410,0.284,0.346,0.182,0.921,10.961,5.924,0.229,-1.008,0.570,0.278,0.773,10.023,-4.702,-5.374,-2.214,none
3.866470,0.430,-0.485,-0.761,2441.08,-0.783,0.895,-1.119,-0.450,0.337,0.827,0.547,-0.372,-0.750,2474.01,0.000,0.000,0.000,-0.317,0.634,0.705,-0.036,-0.551,-0.834,2491.38,-0.560,0.448,-0.783,-0.144,0.121,-0.982,0.332,-0.117,-0.936,2486.94,-2.238,0.224,-1.902,-0.892,0.412,0.184,0.346,0.186,0.920,10.965,5.863,0.611,-1.420,0.569,0.284,0.772,10.016,-5.160,-4.733,-1.511,none
3.888031,0.431,-0.486,-0.760,2457.85,-0.224,0.448,-0.112,-0.484,0.312,0.818,0.546,-0.375,-0.749,2477.75,0.000,0.000,0.000,-0.334,0.639,0.693,-0.036,-0.551,-0.834,2491.38,-1.119,-0.560,0.224,-0.128,0.114,-0.985,0.337,-0.109,-0.935,2478.67,-3.693,0.895,-2.014,-0.896,0.418,0.152,0.346,0.186,0.920,11.012,5.771,0.397,-1.527,0.566,0.284,0.774,10.015,-5.496,-4.687,-0.977,none
3.909734,0.429,-0.489,-0.760,2445.95,-0.448,0.000,0.336,-0.517,0.310,0.798,0.546,-0.375,-0.749,2477.75,0.000,0.000,0.000,-0.314,0.635,0.706,-0.040,-0.550,-0.834,2477.04,-0.783,-0.336,0.448,-0.141,0.110,-0.984,0.327,-0.117,-0.938,2493.96,-1.679,0.224,-1.455,-0.885,0.423,0.194,0.345,0.184,0.920,10.985,5.740,0.656,-1.863,0.569,0.280,0.773,10.019,-5.679,-4.366,-1.206,none
3.931902,0.428,-0.492,-0.758,2450.85,0.224,0.336,0.112,-0.440,0.324,0.838,0.546,-0.375,-0.749,2477.75,0.000,0.000,0.000,-0.335,0.601,0.725,-0.036,-0.555,-0.831,2474.73,0.671,0.112,-0.224,-0.148,0.137,-0.979,0.328,-0.117,-0.937,2484.58,0.560,-0.671,-0.112,-0.868,0.427,0.252,0.343,0.181,0.922,10.960,5.679,0.412,-1.725,0.566,0.281,0.775,10.020,-5.466,-4.794,-1.267,none
3.954715,0.427,-0.490,-0.760,2459.20,0.224,0.448,-0.224,-0.485,0.340,0.805,0.544,-0.376,-0.750,2472.30,0.000,0.000,0.000,-0.314,0.627,0.713,-0.036,-0.556,-0.830,2487.76,1.007,0.448,-0.336,-0.170,0.122,-0.978,0.329,-0.125,-0.936,2477.52,0.336,-0.336,0.224,-0.896,0.410,0.170,0.345,0.181,0.921,10.981,5.496,-0.046,-1.466,0.568,0.280,0.774,10.032,-5.634,-5.053,-0.397,none
3.976557,0.428,-0.487,-0.762,2454.32,0.000,-0.448,-0.112,-0.483,0.320,0.815,0.544,-0.376,-0.750,2472.30,0.000,0.000,0.000,-0.331,0.584,0.741,-0.039,-0.556,-0.830,2488.93,-0.336,0.000,0.112,-0.128,0.118,-0.985,0.324,-0.117,-0.939,2481.32,-0.783,0.336,-0.448,-0.890,0.385,0.242,0.346,0.181,0.921,10.952,5.466,0.061,-1.618,0.569,0.276,0.775,10.016,-5.878,-4.565,0.397,none
3.998484,0.426,-0.489,-0.762,2466.05,0.112,-0.783,0.671,-0.512,0.337,0.790,0.539,-0.384,-0.750,2474.49,0.000,0.000,0.000,-0.278,0.648,0.709,-0.043,-0.551,-0.833,2492.13,-1.790,-1.007,0.895,-0.131,0.120,-0.984,0.324,-0.121,-0.938,2481.57,-0.671,0.560,-0.336,-0.889,0.415,0.193,0.345,0.181,0.921,10.971,5.420,-0.198,-1.252,0.569,0.276,0.775,9.994,-5.664,-4.977,0.382,none
4.019800,0.424,-0.488,-0.763,2450.06,-0.112,-0.895,0.336,-0.467,0.312,0.827,0.538,-0.379,-0.752,2477.43,0.000,0.000,0.000,-0.321,0.587,0.743,-0.048,-0.550,-0.834,2477.91,-1.567,-0.671,0.560,-0.138,0.106,-0.985,0.324,-0.117,-0.939,2481.32,0.224,-0.112,0.000,-0.880,0.435,0.191,0.347,0.179,0.921,10.999,5.588,0.092,-1.389,0.571,0.276,0.773,10.019,-5.527,-4.855,-0.427,none
4.042981,0.424,-0.488,-0.763,2450.06,-0.448,-0.224,-0.112,-0.476,0.326,0.817,0.539,-0.376,-0.754,2474.41,0.000,0.000,0.000,-0.309,0.618,0.723,-0.044,-0.550,-0.834,2478.29,0.000,0.000,-0.112,-0.110,0.120,-0.987,0.325,-0.113,-0.939,2480.17,-0.336,0.224,0.112,-0.880,0.427,0.210,0.344,0.182,0.921,10.988,5.802,0.580,-1.771,0.570,0.279,0.773,9.994,-5.481,-4.565,-1.328,none
4.066432,0.428,-0.487,-0.762,2454.32,0.224,0.560,-0.224,-0.462,0.309,0.831,0.544,-0.376,-0.750,2472.30,0.000,0.000,0.000,-0.312,0.610,0.728,-0.039,-0.553,-0.832,2483.39,1.231,0.448,-0.448,-0.135,0.100,-0.986,0.329,-0.118,-0.937,2474.27,0.000,-0.112,0.224,-0.882,0.399,0.250,0.344,0.186,0.920,10.978,5.817,0.611,-1.664,0.567,0.282,0.774,10.011,-5.405,-4.519,-1.481,none
4.089495,0.429,-0.489,-0.760,2445.95,0.560,0.448,0.000,-0.490,0.342,0.802,0.548,-0.376,-0.747,2470.27,0.000,0.000,0.000,-0.287,0.660,0.694,-0.036,-0.557,-0.830,2501.63,0.336,0.224,-0.336,-0.120,0.144,-0.982,0.329,-0.129,-0.936,2478.79,1.119,-0.448,0.000,-0.888,0.401,0.224,0.343,0.183,0.921,10.967,5.618,0.076,-1.221,0.569,0.280,0.774,9.988,-5.267,-5.069,-0.977,none
4.113558,0.429,-0.489,-0.760,2445.95,-0.224,0.000,-0.112,-0.465,0.329,0.822,0.545,-0.381,-0.747,2467.85,0.000,0.000,0.000,-0.313,0.648,0.695,-0.039,-0.559,-0.828,2493.67,-1.119,-0.224,-0.112,-0.109,0.115,-0.987,0.328,-0.133,-0.935,2488.52,-0.895,-0.112,-0.783,-0.868,0.433,0.243,0.347,0.185,0.920,10.979,5.496,-0.595,-0.809,0.571,0.283,0.770,10.021,-5.191,-5.740,-0.198,none
4.134761,0.431,-0.483,-0.762,2436.73,-0.895,-0.448,-0.560,-0.473,0.281,0.835,0.547,-0.372,-0.750,2474.01,0.000,0.000,0.000,-0.281,0.664,0.693,-0.036,-0.548,-0.836,2471.21,-1.902,-0.224,0.112,-0.131,0.120,-0.984,0.333,-0.113,-0.936,2477.37,-1.902,0.560,-0.671,-0.872,0.419,0.254,0.345,0.182,0.921,10.990,5.557,-0.137,-1.466,0.570,0.280,0.773,10.020,-5.603,-4.947,0.122,none
4.154908,0.426,-0.489,-0.761,2441.68,0.000,-0.560,0.224,-0.467,0.312,0.827,0.542,-0.375,-0.752,2479.81,0.000,0.000,0.000,-0.296,0.607,0.738,-0.043,-0.553,-0.832,2482.97,-0.783,-0.336,0.448,-0.148,0.137,-0.979,0.330,-0.114,-0.937,2473.12,0.336,0.112,0.336,-0.893,0.409,0.186,0.347,0.183,0.920,11.001,5.573,0.351,-1.924,0.570,0.278,0.773,10.030,-6.031,-4.366,-0.031,none
4.178174,0.426,-0.489,-0.761,2441.68,0.224,-0.448,0.560,-0.497,0.328,0.803,0.543,-0.380,-0.749,2475.33,0.000,0.000,0.000,-0.326,0.559,0.762,-0.039,-0.553,-0.832,2483.39,-0.448,-0.448,0.448,-0.165,0.147,-0.975,0.328,-0.121,-0.937,2484.84,1.790,-0.336,1.119,-0.896,0.395,0.204,0.342,0.182,0.922,10.981,5.496,0.229,-1.695,0.568,0.276,0.775,9.996,-5.786,-4.626,-0.305,none
4.199740,0.425,-0.493,-0.759,2446.59,0.783,-0.224,0.448,-0.446,0.327,0.833,0.545,-0.381,-0.747,2467.85,0.000,0.000,0.000,-0.343,0.640,0.688,-0.039,-0.553,-0.832,2483.39,0.224,0.112,0.112,-0.159,0.132,-0.978,0.325,-0.129,-0.937,2475.52,1.119,-0.671,0.783,-0.878,0.409,0.247,0.345,0.182,0.921,10.994,5.374,-0.519,-1.053,0.570,0.276,0.774,10.020,-5.420,-5.573,-0.244,none
4.220266,0.429,-0.484,-0.763,2449.47,-0.783,-0.336,-0.448,-0.463,0.345,0.816,0.544,-0.376,-0.750,2472.30,0.000,0.000,0.000,-0.303,0.670,0.678,-0.039,-0.551,-0.833,2490.89,-1.343,-0.224,-0.112,-0.149,0.130,-0.980,0.324,-0.121,-0.938,2481.57,-1.007,0.448,-0.448,-0.863,0.413,0.291,0.347,0.179,0.921,10.994,5.405,-0.412,-1.084,0.573,0.277,0.772,10.038,-5.466,-5.481,-0.092,none
4.240761,0.424,-0.488,-0.763,2450.06,-0.783,-0.448,-0.112,-0.446,0.352,0.823,0.544,-0.376,-0.750,2472.30,0.000,0.000,0.000,-0.303,0.668,0.680,-0.043,-0.547,-0.836,2493.32,-1.343,-0.448,0.448,-0.141,0.135,-0.981,0.327,-0.113,-0.938,2492.81,-0.783,0.448,-0.336,-0.871,0.376,0.316,0.347,0.180,0.920,10.986,5.557,0.015,-1.389,0.574,0.278,0.770,10.009,-5.618,-4.931,-0.183,none
4.262833,0.424,-0.483,-0.766,2452.08,-0.112,-0.336,0.224,-0.450,0.314,0.836,0.544,-0.376,-0.750,2472.30,0.000,0.000,0.000,-0.292,0.651,0.701,-0.044,-0.545,-0.837,2481.17,-0.783,-0.448,0.448,-0.118,0.116,-0.986,0.323,-0.117,-0.939,2490.71,0.560,0.000,0.112,-0.884,0.420,0.203,0.347,0.178,0.921,10.958,5.817,0.580,-1.664,0.572,0.273,0.773,10.011,-5.481,-4.382,-1.099,none
4.286853,0.420,-0.483,-0.769,2455.96,0.000,0.224,0.112,-0.441,0.314,0.841,0.537,-0.377,-0.755,2469.56,0.000,0.000,0.000,-0.287,0.626,0.725,-0.048,-0.545,-0.837,2480.79,0.560,0.000,0.000,-0.137,0.102,-0.985,0.323,-0.117,-0.939,2490.71,0.783,-0.224,0.336,-0.865,0.421,0.271,0.346,0.181,0.921,10.999,5.969,0.672,-1.679,0.571,0.277,0.773,10.009,-5.008,-4.794,-2.672,none
4.308056,0.424,-0.488,-0.763,2450.06,-0.448,1.007,-1.007,-0.484,0.339,0.807,0.544,-0.373,-0.751,2468.55,0.000,0.000,0.000,-0.343,0.609,0.715,-0.039,-0.547,-0.836,2492.07,3.133,1.343,-1.790,-0.148,0.137,-0.979,0.329,-0.122,-0.936,2476.41,-0.112,-0.224,0.224,-0.860,0.452,0.235,0.342,0.182,0.922,10.983,5.969,0.840,-1.756,0.567,0.281,0.774,10.001,-4.870,-4.702,-3.053,none
4.329678,0.428,-0.487,-0.762,2454.32,-0.224,1.231,-0.783,-0.466,0.320,0.825,0.545,-0.374,-0.750,2485.24,0.000,0.000,0.000,-0.298,0.614,0.731,-0.036,-0.556,-0.830,2487.76,2.238,1.231,-1.679,-0.120,0.131,-0.984,0.329,-0.125,-0.936,2477.52,-0.112,-0.224,-0.224,-0.855,0.408,0.322,0.342,0.184,0.921,10.986,5.771,0.183,-1.252,0.567,0.279,0.775,10.001,-4.947,-5.328,-2.321,none
4.351272,0.431,-0.486,-0.760,2457.85,-1.119,0.560,-1.007,-0.442,0.285,0.851,0.548,-0.376,-0.747,2470.27,0.000,0.000,0.000,-0.289,0.601,0.745,-0.036,-0.556,-0.830,2487.76,-0.112,0.671,-1.007,-0.142,0.090,-0.986,0.331,-0.124,-0.935,2490.17,-0.671,-0.112,-0.560,-0.854,0.415,0.314,0.347,0.183,0.920,10.995,5.573,-0.305,-1.160,0.571,0.285,0.770,10.020,-5.191,-5.405,-0.794,none
4.372506,0.432,-0.483,-0.762,2453.01,-0.560,-0.448,-0.224,-0.478,0.309,0.822,0.553,-0.369,-0.747,2467.58,0.000,0.000,0.000,-0.308,0.593,0.744,-0.036,-0.556,-0.830,2487.76,-1.902,-0.224,0.448,-0.128,0.166,-0.978,0.333,-0.117,-0.936,2478.52,-1.567,0.336,-0.895,-0.888,0.409,0.211,0.345,0.181,0.921,10.977,5.542,-0.351,-1.298,0.568,0.277,0.775,10.040,-5.664,-4.947,0.534,none
4.394514,0.425,-0.493,-0.759,2446.59,0.224,-0.783,0.671,-0.448,0.329,0.831,0.543,-0.381,-0.748,2492.80,0.000,0.000,0.000,-0.321,0.624,0.712,-0.043,-0.553,-0.832,2482.97,-2.126,-1.119,1.455,-0.111,0.107,-0.988,0.323,-0.121,-0.939,2490.96,-1.567,0.000,-0.671,-0.869,0.439,0.226,0.349,0.180,0.920,11.008,5.466,-0.137,-1.618,0.574,0.277,0.770,10.035,-5.924,-4.718,0.595,none
4.415563,0.425,-0.480,-0.767,2447.75,0.448,-0.671,0.448,-0.478,0.309,0.822,0.540,-0.372,-0.755,2470.66,0.000,0.000,0.000,-0.287,0.657,0.697,-0.044,-0.545,-0.837,2467.05,-1.679,-0.783,1.119,-0.125,0.108,-0.986,0.325,-0.105,-0.940,2477.04,1.231,0.000,0.336,-0.892,0.398,0.214,0.346,0.182,0.920,10.989,5.588,0.504,-2.000,0.573,0.276,0.771,10.009,-6.092,-4.229,0.214,none
4.438505,0.424,-0.483,-0.766,2452.08,1.119,-0.671,0.895,-0.489,0.323,0.810,0.539,-0.376,-0.754,2474.41,0.000,0.000,0.000,-0.345,0.650,0.677,-0.040,-0.546,-0.837,2479.92,0.448,0.000,0.448,-0.138,0.114,-0.984,0.327,-0.117,-0.938,2493.96,1.455,0.112,0.671,-0.882,0.441,0.168,0.345,0.183,0.921,10.977,5.557,0.275,-1.679,0.572,0.279,0.771,10.003,-5.756,-4.748,-0.321,none
4.460391,0.428,-0.487,-0.762,2454.32,0.224,-0.224,0.336,-0.480,0.352,0.804,0.547,-0.372,-0.750,2474.01,0.000,0.000,0.000,-0.325,0.642,0.694,-0.039,-0.548,-0.835,2486.22,-0.336,-0.224,0.224,-0.131,0.074,-0.989,0.331,-0.121,-0.936,2489.07,0.000,0.224,0.000,-0.880,0.421,0.221,0.347,0.184,0.920,10.999,5.603,0.183,-1.450,0.571,0.282,0.771,9.996,-5.466,-4.962,-0.641,none
4.484164,0.430,-0.485,-0.761,2441.08,0.000,0.224,0.112,-0.450,0.314,0.836,0.546,-0.375,-0.749,2477.75,0.000,0.000,0.000,-0.307,0.648,0.697,-0.036,-0.552,-0.833,2468.36,-0.448,-0.336,0.112,-0.144,0.121,-0.982,0.328,-0.121,-0.937,2484.84,-0.895,0.224,-0.448,-0.867,0.430,0.253,0.347,0.183,0.920,10.979,5.588,0.046,-1.237,0.570,0.281,0.772,10.029,-5.344,-5.099,-1.145,none
4.503432,0.429,-0.484,-0.763,2449.47,-0.671,0.112,-0.560,-0.512,0.312,0.800,0.541,-0.377,-0.752,2466.88,0.000,0.000,0.000,-0.309,0.566,0.765,-0.044,-0.547,-0.836,2471.97,-0.560,0.112,-0.224,-0.144,0.132,-0.981,0.328,-0.113,-0.938,2483.43,-0.671,-0.224,-0.560,-0.860,0.443,0.255,0.344,0.183,0.921,10.991,5.756,0.321,-1.344,0.569,0.279,0.773,10.013,-5.130,-5.038,-2.000,none
4.523642,0.424,-0.491,-0.761,2454.95,-0.560,0.448,-0.895,-0.484,0.304,0.821,0.544,-0.376,-0.750,2472.30,0.000,0.000,0.000,-0.305,0.584,0.752,-0.043,-0.551,-0.833,2492.13,1.119,0.560,-0.783,-0.128,0.131,-0.983,0.328,-0.113,-0.938,2483.43,0.000,-0.448,0.000,-0.875,0.423,0.237,0.347,0.179,0.921,10.981,5.832,0.748,-1.679,0.573,0.277,0.771,10.021,-5.252,-4.672,-2.229,none
4.545983,0.423,-0.486,-0.764,2456.93,0.112,0.560,-0.448,-0.480,0.345,0.807,0.541,-0.379,-0.751,2482.83,0.000,0.000,0.000,-0.303,0.606,0.736,-0.039,-0.556,-0.830,2488.93,2.014,0.895,-1.007,-0.121,0.096,-0.988,0.329,-0.125,-0.936,2477.52,0.224,0.000,0.000,-0.892,0.404,0.205,0.345,0.179,0.921,10.980,5.664,0.244,-1.374,0.570,0.276,0.773,9.989,-5.374,-4.870,-1.282,none
4.568090,0.426,-0.489,-0.762,2466.05,0.112,0.224,0.000,-0.486,0.329,0.810,0.543,-0.380,-0.749,2475.33,0.000,0.000,0.000,-0.291,0.645,0.707,-0.039,-0.556,-0.830,2488.93,-0.783,-0.224,0.112,-0.111,0.096,-0.989,0.324,-0.121,-0.938,2481.57,-0.560,0.000,-0.448,-0.879,0.418,0.230,0.347,0.179,0.921,11.010,5.618,-0.031,-1.298,0.572,0.277,0.772,10.007,-5.435,-5.008,-0.122,none
4.589712,0.423,-0.486,-0.764,2456.93,0.000,-0.671,0.112,-0.477,0.317,0.820,0.542,-0.374,-0.753,2463.12,0.000,0.000,0.000,-0.297,0.639,0.709,-0.043,-0.548,-0.835,2485.80,-1.790,-1.007,0.783,-0.121,0.100,-0.988,0.326,-0.114,-0.939,2469.84,-0.560,0.336,-0.783,-0.900,0.398,0.179,0.347,0.180,0.921,10.985,5.603,-0.244,-1.344,0.570,0.277,0.773,10.025,-5.542,-4.962,0.229,none
4.613355,0.428,-0.487,-0.762,2454.32,-0.336,-0.671,0.112,-0.432,0.362,0.826,0.542,-0.375,-0.752,2479.81,0.000,0.000,0.000,-0.346,0.595,0.726,-0.040,-0.547,-0.836,2472.39,-1.679,-0.671,0.671,-0.104,0.047,-0.993,0.328,-0.109,-0.938,2481.38,-0.112,0.224,0.000,-0.852,0.443,0.278,0.345,0.184,0.920,10.981,5.588,0.061,-1.557,0.569,0.280,0.773,10.020,-5.679,-4.656,0.092,none
4.637274,0.432,-0.483,-0.762,2453.01,0.224,-0.671,0.336,-0.440,0.324,0.838,0.548,-0.376,-0.747,2470.27,0.000,0.000,0.000,-0.297,0.640,0.708,-0.040,-0.547,-0.836,2472.39,-1.007,-0.560,0.448,-0.131,0.099,-0.986,0.335,-0.109,-0.936,2488.96,1.119,-0.224,0.448,-0.861,0.453,0.232,0.347,0.185,0.919,10.967,5.420,0.214,-1.740,0.571,0.281,0.771,10.010,-6.031,-4.534,0.229,none
4.659869,0.431,-0.486,-0.760,2457.85,0.671,-0.783,0.560,-0.446,0.352,0.823,0.548,-0.376,-0.747,2470.27,0.000,0.000,0.000,-0.282,0.639,0.716,-0.036,-0.550,-0.835,2497.22,0.448,-0.336,0.560,-0.118,0.151,-0.982,0.331,-0.121,-0.936,2489.07,1.119,0.000,0.671,-0.869,0.407,0.282,0.348,0.185,0.919,10.974,5.435,0.198,-1.649,0.570,0.281,0.772,10.028,-6.061,-4.534,0.351,none
4.682856,0.432,-0.483,-0.762,2453.01,0.560,-0.560,0.895,-0.469,0.308,0.828,0.544,-0.373,-0.751,2468.55,1.007,-0.448,0.112,-0.315,0.598,0.737,-0.036,-0.548,-0.835,2485.05,0.000,-0.783,0.895,-0.130,0.143,-0.981,0.329,-0.122,-0.936,2476.41,0.448,-0.112,0.224,-0.881,0.423,0.212,0.348,0.183,0.920,10.985,5.435,-0.229,-1.221,0.570,0.277,0.773,10.017,-5.679,-5.237,0.107,none
4.707615,0.422,-0.485,-0.766,2441.38,-0.224,-0.448,0.000,-0.476,0.306,0.824,0.539,-0.376,-0.754,2474.41,-0.224,-0.560,-0.224,-0.292,0.617,0.731,-0.044,-0.545,-0.837,2481.17,-0.895,-0.560,0.560,-0.130,0.156,-0.979,0.324,-0.109,-0.940,2487.51,0.112,-0.224,0.224,-0.874,0.414,0.256,0.347,0.180,0.921,10.980,5.740,0.641,-1.832,0.570,0.275,0.774,10.054,-5.756,-4.198,-0.809,none
4.730653,0.421,-0.489,-0.764,2446.25,0.448,0.000,0.224,-0.457,0.324,0.828,0.538,-0.378,-0.753,2462.02,0.671,0.224,0.560,-0.312,0.610,0.728,-0.044,-0.547,-0.836,2471.97,0.895,0.112,0.112,-0.152,0.088,-0.984,0.325,-0.113,-0.939,2480.17,0.560,0.448,0.336,-0.872,0.411,0.267,0.343,0.178,0.922,10.971,5.924,1.328,-2.244,0.570,0.269,0.777,10.016,-5.664,-3.679,-1.863,none
4.751253,0.421,-0.489,-0.764,2446.25,0.671,0.448,0.448,-0.442,0.315,0.839,0.539,-0.384,-0.750,2474.49,0.560,0.560,0.895,-0.308,0.593,0.744,-0.047,-0.551,-0.833,2491.75,2.462,0.671,-0.671,-0.127,0.150,-0.980,0.323,-0.128,-0.938,2493.32,1.007,-0.448,0.448,-0.866,0.416,0.276,0.345,0.179,0.921,10.987,5.802,0.595,-1.695,0.571,0.275,0.774,10.008,-5.130,-4.901,-2.443,none
4.773114,0.423,-0.486,-0.764,2456.93,-0.112,1.231,-0.783,-0.478,0.320,0.818,0.540,-0.381,-0.751,2469.91,-1.679,0.671,0.112,-0.265,0.628,0.732,-0.039,-0.553,-0.832,2483.39,1.567,0.895,-1.343,-0.148,0.127,-0.981,0.324,-0.121,-0.938,2481.57,0.671,-0.560,0.112,-0.867,0.398,0.301,0.347,0.180,0.921,10.978,5.878,0.595,-1.557,0.569,0.279,0.774,10.012,-5.099,-4.931,-2.229,none
4.800493,0.428,-0.487,-0.762,2454.32,-0.224,0.895,-0.336,-0.432,0.319,0.844,0.542,-0.375,-0.752,2479.81,-0.783,0.112,0.000,-0.322,0.598,0.734,-0.039,-0.554,-0.832,2496.41,0.895,0.671,-0.783,-0.158,0.093,-0.983,0.331,-0.124,-0.935,2490.17,-1.455,0.560,-0.895,-0.879,0.424,0.220,0.346,0.183,0.920,10.991,5.725,-0.061,-1.130,0.569,0.281,0.773,10.000,-4.977,-5.435,-1.282,none
4.818510,0.431,-0.486,-0.760,2457.85,-0.112,0.224,-0.448,-0.459,0.342,0.820,0.549,-0.373,-0.748,2466.52,-0.895,-0.112,-0.224,-0.320,0.652,0.687,-0.036,-0.554,-0.832,2496.91,-2.014,-0.336,0.000,-0.110,0.134,-0.985,0.333,-0.113,-0.936,2477.37,-2.798,0.000,-1.679,-0.839,0.438,0.322,0.346,0.184,0.920,10.949,5.710,-0.153,-1.008,0.570,0.279,0.773,10.011,-5.206,-5.282,-0.763,none
4.840664,0.429,-0.484,-0.763,2449.47,-0.783,-0.112,-0.448,-0.432,0.346,0.833,0.543,-0.372,-0.753,2476.08,0.000,-0.224,-0.448,-0.313,0.653,0.690,-0.039,-0.550,-0.835,2498.39,-1.790,-0.336,0.112,-0.131,0.135,-0.982,0.330,-0.114,-0.937,2473.12,-0.783,-0.112,-0.783,-0.891,0.395,0.223,0.348,0.183,0.919,10.969,5.679,0.092,-1.618,0.572,0.281,0.771,10.037,-5.618,-4.656,-0.260,none
4.867882,0.429,-0.484,-0.763,2449.47,0.448,-0.224,0.448,-0.432,0.328,0.840,0.544,-0.376,-0.750,2472.30,1.007,-0.224,0.000,-0.302,0.595,0.745,-0.040,-0.550,-0.834,2477.04,-1.119,-0.336,0.560,-0.121,0.121,-0.985,0.328,-0.113,-0.938,2483.43,-0.336,0.336,-0.448,-0.869,0.438,0.229,0.347,0.183,0.920,10.989,5.603,0.214,-1.725,0.570,0.277,0.773,10.018,-5.802,-4.534,-0.137,none
4.886764,0.428,-0.487,-0.762,2454.32,0.560,-0.336,0.448,-0.478,0.309,0.822,0.544,-0.376,-0.750,2472.30,0.783,-0.224,0.000,-0.292,0.651,0.701,-0.044,-0.545,-0.837,2481.17,-0.112,-0.336,0.336,-0.121,0.085,-0.989,0.328,-0.113,-0.938,2483.43,0.560,-0.112,0.224,-0.867,0.430,0.253,0.346,0.181,0.920,10.969,5.511,0.183,-1.618,0.569,0.277,0.774,10.015,-5.740,-4.763,-0.366,none
4.909630,0.429,-0.484,-0.763,2449.47,0.560,0.000,0.336,-0.447,0.379,0.810,0.544,-0.376,-0.750,2472.30,0.000,-0.112,0.000,-0.325,0.623,0.712,-0.039,-0.548,-0.835,2486.22,0.560,0.000,0.000,-0.128,0.140,-0.982,0.328,-0.117,-0.937,2484.58,1.007,0.000,0.448,-0.862,0.430,0.269,0.346,0.180,0.921,10.976,5.710,0.641,-1.924,0.572,0.277,0.772,10.077,-5.908,-4.122,-0.458,none
4.930579,0.424,-0.488,-0.763,2450.06,0.671,0.000,0.336,-0.450,0.314,0.836,0.543,-0.380,-0.749,2475.33,0.783,0.000,0.448,-0.302,0.604,0.737,-0.039,-0.553,-0.832,2483.39,0.448,-0.336,0.560,-0.120,0.131,-0.984,0.328,-0.121,-0.937,2484.84,0.000,0.000,0.000,-0.880,0.420,0.221,0.346,0.182,0.920,10.975,5.618,0.183,-1.557,0.571,0.275,0.774,10.040,-5.603,-4.687,-0.382,none
4.950914,0.424,-0.488,-0.763,2450.06,-0.448,-0.112,0.000,-0.454,0.323,0.830,0.540,-0.381,-0.751,2469.91,0.000,-0.224,-0.224,-0.312,0.582,0.751,-0.044,-0.547,-0.836,2471.97,-0.560,-0.448,0.112,-0.151,0.119,-0.981,0.325,-0.109,-0.939,2478.11,0.000,0.000,0.000,-0.867,0.404,0.293,0.346,0.181,0.921,10.949,5.725,0.580,-1.695,0.570,0.278,0.773,10.033,-5.634,-4.412,-0.824,none
4.971441,0.424,-0.488,-0.763,2450.06,0.224,0.448,0.224,-0.453,0.339,0.825,0.544,-0.376,-0.750,2472.30,0.112,0.000,0.336,-0.265,0.652,0.710,-0.043,-0.548,-0.835,2485.80,0.671,0.000,-0.112,-0.128,0.141,-0.982,0.323,-0.117,-0.939,2490.71,0.000,0.000,0.000,-0.871,0.405,0.278,0.345,0.181,0.921,10.954,5.802,0.794,-1.878,0.569,0.276,0.774,9.978,-5.588,-4.336,-1.405,none
4.992877,0.426,-0.489,-0.761,2441.68,0.336,0.448,0.000,-0.467,0.312,0.827,0.542,-0.382,-0.749,2462.42,-0.224,0.448,0.448,-0.335,0.593,0.732,-0.044,-0.550,-0.834,2478.29,2.014,0.336,-0.448,-0.145,0.102,-0.984,0.324,-0.121,-0.938,2481.57,0.000,0.000,0.000,-0.881,0.393,0.263,0.345,0.179,0.921,10.975,5.725,0.397,-1.389,0.568,0.279,0.774,10.031,-5.145,-5.160,-2.092,none
5.026889,0.427,-0.482,-0.765,2456.34,-0.560,0.448,-0.895,-0.488,0.332,0.807,0.544,-0.373,-0.751,2468.55,-2.350,0.448,-0.224,-0.275,0.634,0.723,-0.039,-0.553,-0.832,2483.39,1.231,1.007,-1.231,-0.110,0.133,-0.985,0.328,-0.117,-0.937,2484.58,0.000,0.000,0.000,-0.883,0.412,0.222,0.346,0.182,0.920,11.001,5.832,0.473,-1.420,0.571,0.280,0.772,10.017,-4.962,-4.962,-2.351,none
5.037870,0.430,-0.485,-0.761,2441.08,-0.448,1.007,-0.783,-0.478,0.309,0.822,0.544,-0.376,-0.750,2472.30,-1.679,0.336,0.112,-0.328,0.604,0.726,-0.036,-0.553,-0.832,2482.22,1.231,0.783,-1.231,-0.125,0.152,-0.980,0.331,-0.121,-0.936,2489.07,0.000,0.000,0.000,-0.869,0.428,0.248,0.347,0.183,0.920,10.970,5.863,0.336,-1.542,0.570,0.283,0.772,10.034,-5.176,-4.931,-1.435,none
5.060196,0.432,-0.483,-0.762,2453.01,-0.671,0.112,-0.336,-0.493,0.324,0.807,0.549,-0.373,-0.748,2466.52,-0.783,-0.112,0.000,-0.348,0.624,0.700,-0.036,-0.551,-0.834,2491.38,-0.448,-0.112,0.000,-0.121,0.106,-0.987,0.333,-0.117,-0.936,2478.52,0.000,0.000,0.000,-0.884,0.405,0.231,0.346,0.184,0.920,11.000,5.695,0.031,-1.374,0.570,0.281,0.772,10.018,-5.542,-4.916,-0.397,none
5.082169,0.428,-0.487,-0.762,2454.32,-0.224,-0.336,0.112,-0.438,0.322,0.839,0.544,-0.376,-0.750,2472.30,0.336,-0.448,-0.224,-0.280,0.667,0.690,-0.039,-0.548,-0.835,2486.22,-1.455,-0.112,0.560,-0.138,0.126,-0.982,0.328,-0.117,-0.937,2484.58,0.000,0.000,0.000,-0.869,0.438,0.229,0.346,0.183,0.920,11.000,5.542,-0.183,-1.374,0.571,0.282,0.771,10.009,-5.496,-5.221,-0.260,none
5.103207,0.429,-0.489,-0.760,2445.95,-0.671,-0.448,-0.224,-0.462,0.328,0.824,0.544,-0.376,-0.750,2472.30,-0.224,-0.224,-0.336,-0.281,0.652,0.704,-0.036,-0.550,-0.834,2477.53,-0.671,0.112,0.112,-0.135,0.135,-0.982,0.330,-0.110,-0.938,2472.94,0.000,0.000,0.000,-0.897,0.412,0.163,0.346,0.184,0.920,10.966,5.542,0.397,-1.893,0.569,0.281,0.773,10.026,-5.954,-4.351,0.000,none
5.125241,0.428,-0.487,-0.762,2454.32,0.783,-0.671,0.783,-0.491,0.298,0.819,0.544,-0.376,-0.750,2472.30,1.231,0.000,0.560,-0.321,0.633,0.705,-0.039,-0.553,-0.832,2483.39,-0.224,-0.336,0.671,-0.138,0.136,-0.981,0.328,-0.121,-0.937,2484.84,0.000,0.000,0.000,-0.896,0.393,0.209,0.345,0.181,0.921,10.979,5.466,0.198,-1.725,0.567,0.280,0.774,10.005,-5.847,-4.626,-0.076,none
5.155983,0.428,-0.487,-0.762,2454.32,0.448,-0.224,0.448,-0.487,0.314,0.815,0.545,-0.377,-0.749,2464.80,0.336,-0.112,0.112,-0.295,0.634,0.715,-0.039,-0.548,-0.835,2486.22,-0.112,-0.224,0.671,-0.118,0.093,-0.989,0.328,-0.117,-0.937,2484.58,0.000,0.000,0.000,-0.890,0.385,0.242,0.345,0.183,0.921,10.975,5.573,0.137,-1.542,0.570,0.278,0.773,10.022,-5.618,-4.748,-0.260,none
5.171361,0.429,-0.489,-0.760,2445.95,0.224,-0.224,0.224,-0.449,0.319,0.835,0.543,-0.380,-0.749,2475.33,0.671,-0.224,0.112,-0.321,0.640,0.697,-0.039,-0.551,-0.833,2490.89,-0.448,-0.336,0.224,-0.121,0.106,-0.987,0.328,-0.125,-0.936,2485.94,0.000,0.000,0.000,-0.873,0.415,0.258,0.346,0.182,0.921,10.983,5.496,-0.092,-1.313,0.572,0.281,0.771,10.020,-5.557,-5.008,-0.031,none
5.189939,0.429,-0.484,-0.763,2449.47,-0.560,-0.448,-0.112,-0.493,0.324,0.807,0.544,-0.373,-0.751,2468.55,0.112,-0.560,-0.448,-0.308,0.620,0.721,-0.040,-0.550,-0.834,2477.04,-1.007,-0.336,0.671,-0.130,0.096,-0.987,0.332,-0.113,-0.937,2485.79,0.000,0.000,0.000,-0.875,0.427,0.228,0.347,0.182,0.920,10.959,5.450,-0.092,-1.389,0.572,0.279,0.772,10.004,-5.893,-4.962,0.351,none
5.210269,0.424,-0.488,-0.763,2450.06,0.112,-0.895,0.448,-0.478,0.320,0.818,0.543,-0.380,-0.749,2475.33,0.895,-0.448,0.000,-0.292,0.617,0.731,-0.044,-0.549,-0.835,2464.45,-0.895,-0.671,0.783,-0.109,0.117,-0.987,0.323,-0.113,-0.940,2489.56,0.000,0.000,0.000,-0.875,0.433,0.218,0.349,0.182,0.919,10.953,5.695,0.336,-1.695,0.574,0.276,0.771,10.019,-5.817,-4.550,-0.305,none
5.233018,0.423,-0.486,-0.764,2456.93,0.336,0.112,0.336,-0.439,0.315,0.841,0.542,-0.375,-0.752,2479.81,0.448,0.112,0.336,-0.272,0.624,0.733,-0.044,-0.547,-0.836,2471.97,0.560,0.000,0.112,-0.130,0.108,-0.986,0.323,-0.113,-0.940,2489.56,0.000,0.000,0.000,-0.870,0.431,0.238,0.346,0.181,0.921,10.978,5.786,0.763,-2.000,0.570,0.276,0.774,10.053,-5.756,-4.122,-1.053,none
5.267646,0.423,-0.486,-0.764,2456.93,0.560,0.336,0.448,-0.469,0.330,0.819,0.539,-0.376,-0.754,2474.41,0.000,0.112,0.560,-0.273,0.623,0.733,-0.047,-0.551,-0.833,2491.75,1.679,0.224,0.000,-0.149,0.109,-0.983,0.324,-0.117,-0.939,2481.32,0.000,0.000,0.000,-0.892,0.412,0.187,0.341,0.180,0.922,10.958,5.893,0.809,-1.740,0.568,0.272,0.777,9.997,-5.374,-4.443,-1.924,none
5.278315,0.421,-0.492,-0.762,2451.15,0.448,0.895,-0.224,-0.486,0.329,0.810,0.540,-0.381,-0.751,2469.91,-0.895,0.560,0.000,-0.302,0.595,0.745,-0.043,-0.556,-0.830,2488.52,1.902,0.448,-0.783,-0.165,0.137,-0.977,0.324,-0.121,-0.938,2481.57,0.000,0.000,0.000,-0.892,0.398,0.214,0.347,0.181,0.920,10.982,5.847,0.290,-1.313,0.571,0.278,0.772,10.004,-4.885,-5.344,-2.565,none
5.299770,0.429,-0.484,-0.763,2449.47,-1.119,0.895,-1.343,-0.438,0.331,0.836,0.544,-0.376,-0.750,2472.30,-2.574,0.671,-0.336,-0.319,0.617,0.720,-0.039,-0.551,-0.833,2490.89,1.679,1.119,-1.455,-0.159,0.119,-0.980,0.330,-0.122,-0.936,2467.98,0.000,0.000,0.000,-0.883,0.403,0.241,0.345,0.182,0.921,11.001,5.863,0.458,-1.481,0.569,0.280,0.773,10.032,-5.069,-5.069,-1.939,none
5.324371,0.429,-0.484,-0.763,2449.47,-0.336,0.783,-0.783,-0.432,0.337,0.837,0.546,-0.375,-0.749,2477.75,-0.448,0.112,0.000,-0.276,0.676,0.683,-0.039,-0.556,-0.830,2488.93,0.560,0.336,-0.448,-0.145,0.125,-0.981,0.333,-0.121,-0.935,2478.78,0.000,0.000,0.000,-0.865,0.421,0.271,0.345,0.185,0.920,10.943,5.679,-0.107,-1.267,0.570,0.283,0.771,10.025,-5.267,-5.328,-0.748,none
5.351079,0.429,-0.484,-0.763,2449.47,-0.671,-0.336,-0.336,-0.470,0.314,0.825,0.545,-0.369,-0.752,2464.09,0.000,-0.448,-0.336,-0.325,0.577,0.749,-0.039,-0.548,-0.835,2486.22,-1.231,-0.224,0.224,-0.131,0.099,-0.986,0.332,-0.113,-0.937,2485.79,0.000,0.000,0.000,-0.878,0.409,0.247,0.345,0.184,0.920,10.991,5.618,0.260,-1.802,0.570,0.281,0.772,10.018,-5.771,-4.473,-0.015,none
5.369044,0.428,-0.487,-0.762,2454.32,0.783,-0.336,0.671,-0.464,0.311,0.829,0.544,-0.376,-0.750,2472.30,1.455,-0.112,0.336,-0.281,0.703,0.653,-0.036,-0.550,-0.834,2477.53,-0.671,-0.560,0.783,-0.148,0.115,-0.982,0.332,-0.117,-0.936,2486.94,0.000,0.000,0.000,-0.863,0.418,0.282,0.345,0.182,0.921,10.974,5.481,0.137,-1.649,0.570,0.278,0.773,10.002,-5.832,-4.687,0.153,none
5.392089,0.424,-0.488,-0.763,2450.06,0.671,-0.671,0.448,-0.438,0.331,0.836,0.540,-0.381,-0.751,2469.91,1.343,-0.112,0.112,-0.313,0.648,0.695,-0.039,-0.548,-0.835,2486.22,-1.231,-0.448,0.671,-0.134,0.090,-0.987,0.328,-0.113,-0.938,2483.43,0.000,0.000,0.000,-0.871,0.405,0.278,0.348,0.182,0.920,10.941,5.634,0.290,-1.664,0.571,0.276,0.773,10.011,-5.725,-4.534,-0.214,none
5.414291,0.423,-0.486,-0.764,2456.93,0.448,-0.336,0.112,-0.468,0.321,0.823,0.538,-0.379,-0.752,2477.43,0.671,0.000,-0.112,-0.309,0.602,0.737,-0.047,-0.548,-0.835,2487.09,0.224,-0.224,0.224,-0.127,0.170,-0.977,0.328,-0.121,-0.937,2484.84,0.000,0.000,0.000,-0.859,0.421,0.291,0.348,0.180,0.920,11.001,5.679,0.351,-1.679,0.572,0.278,0.772,10.007,-5.603,-4.656,-0.779,none
5.437698,0.424,-0.488,-0.763,2450.06,0.112,0.000,0.000,-0.488,0.307,0.817,0.541,-0.377,-0.752,2466.88,0.224,-0.112,0.112,-0.325,0.623,0.712,-0.039,-0.551,-0.833,2490.89,0.560,0.112,-0.112,-0.145,0.133,-0.980,0.324,-0.125,-0.938,2482.68,0.000,0.000,0.000,-0.890,0.417,0.185,0.345,0.182,0.921,10.998,5.618,0.214,-1.618,0.571,0.278,0.773,10.022,-5.557,-4.809,-0.702,none
5.458559,0.423,-0.486,-0.764,2456.93,-0.224,-0.336,0.112,-0.478,0.301,0.825,0.544,-0.376,-0.750,2472.30,0.000,-0.112,-0.112,-0.301,0.623,0.722,-0.039,-0.551,-0.833,2490.89,0.000,-0.224,0.112,-0.144,0.132,-0.981,0.328,-0.117,-0.937,2484.58,0.000,0.000,0.000,-0.893,0.396,0.214,0.345,0.183,0.921,10.996,5.634,0.351,-1.695,0.569,0.280,0.773,10.034,-5.740,-4.641,-0.351,none
5.490167,0.429,-0.489,-0.760,2445.95,0.224,-0.112,0.448,-0.483,0.295,0.824,0.544,-0.376,-0.750,2472.30,0.671,-0.112,0.336,-0.287,0.654,0.700,-0.044,-0.550,-0.834,2478.29,0.000,0.000,0.000,-0.134,0.116,-0.984,0.329,-0.122,-0.936,2476.41,0.000,0.000,0.000,-0.860,0.409,0.305,0.346,0.181,0.921,10.961,5.664,0.565,-1.847,0.569,0.277,0.774,10.008,-5.878,-4.214,-0.336,none
5.508021,0.424,-0.491,-0.761,2454.95,0.783,-0.448,0.895,-0.489,0.323,0.810,0.539,-0.384,-0.750,2474.49,1.455,0.000,0.560,-0.276,0.641,0.717,-0.044,-0.552,-0.833,2469.12,0.000,0.000,0.000,-0.149,0.132,-0.980,0.324,-0.121,-0.938,2481.57,0.000,0.000,0.000,-0.855,0.442,0.272,0.345,0.181,0.921,10.982,5.725,0.458,-1.649,0.572,0.271,0.774,10.035,-5.557,-4.641,-1.145,none
5.539191,0.420,-0.487,-0.766,2453.13,0.336,0.224,-0.224,-0.446,0.352,0.823,0.537,-0.377,-0.755,2469.56,-0.336,0.112,0.112,-0.344,0.615,0.709,-0.044,-0.550,-0.834,2478.29,0.000,0.000,0.000,-0.158,0.105,-0.982,0.325,-0.113,-0.939,2480.17,0.000,0.000,0.000,-0.862,0.438,0.253,0.346,0.180,0.921,10.968,5.908,0.824,-1.756,0.570,0.274,0.775,10.019,-5.282,-4.489,-2.107,none
5.553979,0.421,-0.489,-0.764,2446.25,0.224,0.895,-0.448,-0.447,0.311,0.839,0.541,-0.377,-0.752,2466.88,-1.119,0.671,0.224,-0.308,0.593,0.744,-0.043,-0.553,-0.832,2482.97,0.000,0.000,0.000,-0.148,0.105,-0.983,0.324,-0.121,-0.938,2481.57,0.000,0.000,0.000,-0.889,0.376,0.261,0.347,0.181,0.920,10.971,6.046,0.855,-1.603,0.569,0.280,0.773,10.012,-5.008,-4.611,-2.733,none
5.570911,0.429,-0.484,-0.763,2449.47,-0.336,1.119,-0.783,-0.479,0.325,0.815,0.549,-0.373,-0.748,2466.52,-1.790,0.560,0.336,-0.294,0.663,0.689,-0.036,-0.554,-0.832,2496.91,0.000,0.000,0.000,-0.128,0.106,-0.986,0.334,-0.125,-0.934,2473.35,0.000,0.000,0.000,-0.884,0.411,0.222,0.345,0.183,0.921,10.976,5.863,0.290,-1.176,0.568,0.284,0.773,10.046,-4.916,-5.084,-1.679,none
5.592490,0.431,-0.486,-0.760,2457.85,-0.560,0.448,-0.560,-0.478,0.315,0.820,0.546,-0.375,-0.749,2477.75,-0.783,0.336,0.000,-0.321,0.624,0.712,-0.036,-0.554,-0.832,2496.91,0.000,0.000,0.000,-0.127,0.148,-0.981,0.333,-0.121,-0.935,2478.78,0.000,0.000,0.000,-0.841,0.414,0.348,0.344,0.185,0.920,10.975,5.588,-0.153,-1.130,0.567,0.284,0.773,10.012,-5.313,-5.313,-0.473,none
5.615231,0.432,-0.488,-0.758,2451.02,-0.224,-0.336,0.112,-0.470,0.314,0.825,0.547,-0.372,-0.750,2474.01,0.224,-0.448,-0.336,-0.290,0.610,0.738,-0.036,-0.551,-0.834,2491.38,0.000,0.000,0.000,-0.128,0.114,-0.985,0.332,-0.109,-0.937,2485.62,0.000,0.000,0.000,-0.875,0.423,0.237,0.345,0.186,0.920,10.986,5.542,0.000,-1.634,0.569,0.283,0.772,10.014,-5.786,-4.641,0.153,none
5.638459,0.429,-0.489,-0.760,2445.95,0.112,-0.671,0.783,-0.448,0.329,0.831,0.544,-0.376,-0.750,2472.30,1.343,-0.448,0.224,-0.296,0.678,0.673,-0.044,-0.547,-0.836,2471.97,0.000,0.000,0.000,-0.138,0.106,-0.985,0.328,-0.109,-0.938,2481.38,0.000,0.000,0.000,-0.894,0.407,0.189,0.346,0.182,0.921,10.997,5.511,0.397,-1.908,0.571,0.279,0.772,10.002,-6.000,-4.397,0.015,none
5.666454,0.423,-0.486,-0.764,2456.93,0.671,-0.336,0.783,-0.490,0.342,0.802,0.541,-0.377,-0.752,2466.88,1.007,0.112,0.000,-0.321,0.624,0.712,-0.039,-0.553,-0.832,2483.39,0.000,0.000,0.000,-0.145,0.133,-0.980,0.326,-0.114,-0.939,2469.84,0.000,0.000,0.000,-0.859,0.417,0.298,0.344,0.179,0.922,10.971,5.588,0.687,-2.076,0.569,0.277,0.774,9.992,-6.061,-4.183,-0.198,none
5.681657,0.425,-0.493,-0.759,2446.59,1.343,-0.224,0.783,-0.493,0.333,0.804,0.540,-0.381,-0.751,2469.91,0.000,0.000,0.000,-0.299,0.616,0.729,-0.039,-0.551,-0.833,2490.89,0.000,0.000,0.000,-0.142,0.111,-0.984,0.323,-0.124,-0.938,2492.06,0.000,0.000,0.000,-0.868,0.391,0.306,0.344,0.180,0.921,10.929,5.618,0.397,-1.634,0.570,0.275,0.774,10.011,-5.573,-4.611,-0.733,none
5.705133,0.424,-0.491,-0.761,2454.95,0.448,-0.112,0.000,-0.484,0.312,0.818,0.543,-0.380,-0.749,2475.33,0.000,0.000,0.000,-0.335,0.613,0.716,-0.043,-0.551,-0.833,2492.13,0.000,0.000,0.000,-0.128,0.128,-0.983,0.327,-0.117,-0.938,2493.96,0.000,0.000,0.000,-0.871,0.416,0.263,0.346,0.183,0.920,11.022,5.664,0.198,-1.328,0.571,0.279,0.772,10.037,-5.313,-4.947,-0.992,none
5.727175,0.425,-0.485,-0.764,2445.20,-0.783,-0.112,-0.448,-0.481,0.302,0.823,0.541,-0.377,-0.752,2466.88,0.000,0.000,0.000,-0.309,0.602,0.737,-0.039,-0.553,-0.832,2483.39,0.000,0.000,0.000,-0.138,0.114,-0.984,0.330,-0.110,-0.938,2472.94,0.000,0.000,0.000,-0.839,0.438,0.322,0.344,0.183,0.921,10.979,5.710,0.565,-1.649,0.570,0.276,0.773,10.002,-5.496,-4.656,-1.191,none
5.749859,0.428,-0.492,-0.758,2450.85,0.448,0.336,0.112,-0.465,0.310,0.829,0.544,-0.376,-0.750,2472.30,0.000,0.000,0.000,-0.316,0.670,0.672,-0.039,-0.551,-0.833,2490.89,0.000,0.000,0.000,-0.142,0.099,-0.985,0.331,-0.113,-0.937,2495.16,0.000,0.000,0.000,-0.879,0.418,0.230,0.346,0.183,0.920,10.967,5.832,0.962,-2.031,0.571,0.277,0.773,10.012,-5.618,-4.153,-1.954,none
5.773940,0.425,-0.485,-0.764,2445.20,0.224,0.448,0.000,-0.438,0.322,0.839,0.542,-0.378,-0.750,2459.37,0.000,0.000,0.000,-0.295,0.600,0.743,-0.043,-0.556,-0.830,2488.52,0.000,0.000,0.000,-0.110,0.123,-0.986,0.324,-0.121,-0.938,2481.57,0.000,0.000,0.000,-0.877,0.399,0.269,0.345,0.181,0.921,10.971,5.893,0.504,-1.527,0.568,0.275,0.775,10.041,-4.947,-5.053,-2.748,none
5.796015,0.424,-0.483,-0.766,2452.08,-1.007,0.783,-1.119,-0.456,0.306,0.836,0.539,-0.376,-0.754,2474.41,0.000,0.000,0.000,-0.348,0.541,0.766,-0.039,-0.551,-0.833,2490.89,0.000,0.000,0.000,-0.128,0.126,-0.984,0.327,-0.117,-0.938,2493.96,0.000,0.000,0.000,-0.873,0.421,0.248,0.346,0.181,0.921,10.988,5.954,0.779,-1.710,0.571,0.279,0.772,10.028,-4.947,-4.748,-2.519,none
5.820485,0.424,-0.488,-0.763,2450.06,-0.224,1.007,-0.448,-0.462,0.318,0.828,0.546,-0.375,-0.749,2477.75,0.000,0.000,0.000,-0.330,0.676,0.659,-0.039,-0.554,-0.832,2496.41,0.000,0.000,0.000,-0.128,0.114,-0.985,0.328,-0.121,-0.937,2484.84,0.000,0.000,0.000,-0.860,0.436,0.263,0.345,0.183,0.921,10.966,5.740,0.198,-1.389,0.567,0.281,0.775,10.021,-5.176,-4.962,-1.145,none
5.843107,0.429,-0.489,-0.760,2445.95,-0.560,0.224,-0.336,-0.492,0.344,0.800,0.546,-0.375,-0.749,2477.75,0.000,0.000,0.000,-0.321,0.624,0.712,-0.036,-0.551,-0.834,2491.38,0.000,0.000,0.000,-0.131,0.122,-0.984,0.328,-0.121,-0.937,2484.84,0.000,0.000,0.000,-0.877,0.405,0.258,0.346,0.180,0.921,10.960,5.542,-0.168,-1.328,0.571,0.281,0.772,10.013,-5.618,-4.885,0.290,none
5.863644,0.424,-0.488,-0.763,2450.06,0.112,-0.671,0.448,-0.442,0.307,0.843,0.540,-0.381,-0.751,2469.91,0.000,0.000,0.000,-0.321,0.604,0.729,-0.043,-0.553,-0.832,2482.97,0.000,0.000,0.000,-0.111,0.076,-0.991,0.328,-0.113,-0.938,2483.43,0.000,0.000,0.000,-0.896,0.384,0.225,0.347,0.184,0.920,10.965,5.542,0.015,-1.511,0.570,0.280,0.772,10.028,-5.756,-4.840,0.275,none
5.888356,0.428,-0.487,-0.762,2454.32,-0.112,-0.783,0.336,-0.484,0.304,0.821,0.541,-0.377,-0.752,2466.88,0.000,0.000,0.000,-0.281,0.664,0.693,-0.040,-0.547,-0.836,2472.39,0.000,0.000,0.000,-0.158,0.093,-0.983,0.330,-0.114,-0.937,2473.12,0.000,0.000,0.000,-0.907,0.387,0.166,0.344,0.185,0.920,10.954,5.649,0.687,-2.015,0.568,0.282,0.773,10.011,-5.939,-4.260,-0.504,none
5.911077,0.428,-0.487,-0.762,2454.32,1.119,0.336,0.783,-0.466,0.320,0.825,0.545,-0.377,-0.749,2464.80,0.000,0.000,0.000,-0.320,0.660,0.680,-0.040,-0.555,-0.831,2474.24,0.000,0.000,0.000,-0.128,0.153,-0.980,0.329,-0.122,-0.936,2476.41,0.000,0.000,0.000,-0.858,0.428,0.283,0.343,0.182,0.921,10.984,5.618,0.336,-1.771,0.568,0.280,0.774,10.015,-5.740,-4.595,-0.595,none
5.932390,0.428,-0.492,-0.758,2450.85,0.336,-0.224,0.336,-0.459,0.352,0.816,0.545,-0.381,-0.747,2467.85,0.000,0.000,0.000,-0.336,0.609,0.718,-0.039,-0.551,-0.833,2490.89,0.000,0.000,0.000,-0.138,0.130,-0.982,0.327,-0.121,-0.937,2494.21,0.000,0.000,0.000,-0.852,0.460,0.251,0.345,0.184,0.921,10.958,5.649,0.290,-1.557,0.570,0.280,0.772,10.002,-5.588,-4.763,-0.626,none
5.955414,0.427,-0.490,-0.760,2459.20,0.000,-0.224,0.224,-0.449,0.320,0.834,0.545,-0.381,-0.747,2467.85,0.000,0.000,0.000,-0.288,0.627,0.724,-0.040,-0.550,-0.834,2477.04,0.000,0.000,0.000,-0.135,0.112,-0.985,0.327,-0.121,-0.937,2494.21,0.000,0.000,0.000,-0.905,0.387,0.177,0.344,0.182,0.921,10.969,5.664,0.214,-1.450,0.568,0.277,0.775,9.982,-5.450,-4.916,-0.947,none
5.978276,0.424,-0.488,-0.763,2450.06,-0.448,-0.112,-0.448,-0.491,0.328,0.807,0.540,-0.381,-0.751,2469.91,0.000,0.000,0.000,-0.324,0.594,0.736,-0.040,-0.550,-0.834,2477.04,0.000,0.000,0.000,-0.138,0.104,-0.985,0.328,-0.113,-0.938,2483.43,0.000,0.000,0.000,-0.880,0.427,0.210,0.343,0.184,0.921,10.948,5.847,0.779,-1.802,0.569,0.278,0.774,10.030,-5.389,-4.366,-1.817,none
5.999831,0.424,-0.488,-0.763,2450.06,-0.112,0.671,-0.224,-0.462,0.318,0.828,0.545,-0.381,-0.747,2467.85,0.000,0.000,0.000,-0.276,0.605,0.747,-0.040,-0.550,-0.834,2477.04,0.000,0.000,0.000,-0.120,0.133,-0.984,0.328,-0.121,-0.937,2484.84,0.000,0.000,0.000,-0.896,0.384,0.225,0.344,0.184,0.921,10.986,5.802,0.641,-1.649,0.568,0.278,0.775,10.018,-5.160,-4.901,-2.183,none
6.024567,0.428,-0.487,-0.762,2454.32,0.000,0.671,-0.448,-0.463,0.327,0.824,0.544,-0.376,-0.750,2472.30,0.000,0.000,0.000,-0.289,0.669,0.685,-0.039,-0.551,-0.833,2490.89,0.000,0.000,0.000,-0.142,0.111,-0.984,0.328,-0.121,-0.937,2484.84,0.000,0.000,0.000,-0.840,0.465,0.279,0.345,0.183,0.920,10.975,5.863,0.595,-1.695,0.570,0.282,0.772,10.017,-5.221,-4.992,-1.802,none
6.046364,0.428,-0.487,-0.762,2454.32,-0.560,0.560,-0.336,-0.477,0.277,0.834,0.545,-0.377,-0.749,2464.80,0.000,0.000,0.000,-0.325,0.578,0.748,-0.039,-0.556,-0.830,2488.93,0.000,0.000,0.000,-0.154,0.123,-0.980,0.333,-0.121,-0.935,2478.78,0.000,0.000,0.000,-0.888,0.404,0.221,0.345,0.182,0.921,10.943,5.588,-0.076,-1.282,0.568,0.281,0.774,9.992,-5.313,-5.282,-0.626,none
6.069007,0.426,-0.489,-0.761,2441.68,-0.560,-0.224,-0.224,-0.472,0.331,0.817,0.544,-0.376,-0.750,2472.30,0.000,0.000,0.000,-0.287,0.664,0.690,-0.039,-0.553,-0.832,2483.39,0.000,0.000,0.000,-0.135,0.110,-0.985,0.326,-0.118,-0.938,2471.00,0.000,0.000,0.000,-0.838,0.451,0.307,0.347,0.183,0.920,11.010,5.435,-0.229,-1.282,0.569,0.280,0.773,10.020,-5.511,-5.053,-0.107,none
6.090885,0.428,-0.487,-0.762,2454.32,-0.112,-0.671,0.000,-0.482,0.329,0.812,0.544,-0.376,-0.750,2472.30,0.000,0.000,0.000,-0.324,0.634,0.702,-0.039,-0.553,-0.832,2483.39,0.000,0.000,0.000,-0.138,0.130,-0.982,0.330,-0.114,-0.937,2473.12,0.000,0.000,0.000,-0.868,0.413,0.277,0.345,0.181,0.921,10.977,5.527,-0.015,-1.511,0.568,0.277,0.775,10.015,-5.649,-4.779,-0.092,none
6.113752,0.424,-0.491,-0.761,2454.95,-0.224,-0.560,0.448,-0.443,0.334,0.832,0.540,-0.381,-0.751,2469.91,0.000,0.000,0.000,-0.318,0.645,0.696,-0.043,-0.553,-0.832,2482.97,0.000,0.000,0.000,-0.142,0.099,-0.985,0.327,-0.113,-0.938,2492.81,0.000,0.000,0.000,-0.862,0.438,0.253,0.346,0.182,0.921,10.978,5.527,0.382,-1.878,0.568,0.281,0.773,10.038,-5.802,-4.351,-0.183,none
6.137266,0.427,-0.486,-0.763,2461.18,0.671,-0.224,0.560,-0.453,0.314,0.834,0.543,-0.380,-0.749,2475.33,0.000,0.000,0.000,-0.305,0.613,0.729,-0.039,-0.553,-0.832,2483.39,0.000,0.000,0.000,-0.126,0.110,-0.986,0.328,-0.117,-0.937,2484.58,0.000,0.000,0.000,-0.884,0.415,0.213,0.344,0.183,0.921,10.974,5.573,0.458,-1.817,0.569,0.279,0.774,10.006,-5.924,-4.366,-0.244,none
6.158937,0.427,-0.490,-0.760,2459.20,1.119,-0.224,0.560,-0.485,0.340,0.805,0.545,-0.374,-0.750,2485.24,0.000,0.000,0.000,-0.329,0.595,0.734,-0.039,-0.554,-0.832,2496.41,0.000,0.000,0.000,-0.159,0.117,-0.980,0.329,-0.122,-0.936,2476.41,0.000,0.000,0.000,-0.868,0.433,0.243,0.342,0.181,0.922,10.987,5.496,0.076,-1.420,0.570,0.281,0.772,9.992,-5.649,-4.809,-0.168,none
6.182840,0.424,-0.491,-0.761,2454.95,0.448,-0.336,0.448,-0.473,0.349,0.809,0.540,-0.381,-0.751,2469.91,0.000,0.000,0.000,-0.347,0.581,0.736,-0.043,-0.553,-0.832,2482.97,0.000,0.000,0.000,-0.110,0.110,-0.988,0.328,-0.117,-0.937,2484.58,0.000,0.000,0.000,-0.879,0.417,0.230,0.346,0.181,0.920,10.935,5.603,0.000,-1.237,0.569,0.278,0.774,10.023,-5.466,-4.992,-0.580,none
6.203933,0.424,-0.488,-0.763,2450.06,-0.448,-0.336,-0.224,-0.456,0.297,0.839,0.542,-0.382,-0.749,2462.42,0.000,0.000,0.000,-0.309,0.602,0.737,-0.044,-0.547,-0.836,2471.97,0.000,0.000,0.000,-0.145,0.135,-0.980,0.328,-0.109,-0.938,2481.38,0.000,0.000,0.000,-0.875,0.418,0.245,0.344,0.182,0.921,10.971,5.740,0.626,-1.634,0.570,0.277,0.773,9.990,-5.374,-4.595,-1.466,none
6.225592,0.424,-0.488,-0.763,2450.06,-0.336,0.448,-0.336,-0.478,0.302,0.825,0.540,-0.381,-0.751,2469.91,0.000,0.000,0.000,-0.241,0.656,0.715,-0.044,-0.550,-0.834,2478.29,0.000,0.000,0.000,-0.139,0.120,-0.983,0.324,-0.117,-0.939,2481.32,0.000,0.000,0.000,-0.888,0.409,0.211,0.344,0.181,0.922,11.005,5.908,0.534,-1.588,0.570,0.276,0.774,10.004,-5.099,-4.916,-2.260,none
6.247825,0.423,-0.486,-0.764,2456.93,-0.671,0.671,-0.560,-0.457,0.299,0.838,0.544,-0.376,-0.750,2472.30,0.000,0.000,0.000,-0.318,0.645,0.696,-0.039,-0.548,-0.835,2486.22,0.000,0.000,0.000,-0.135,0.133,-0.982,0.326,-0.118,-0.938,2471.00,0.000,0.000,0.000,-0.869,0.428,0.248,0.345,0.182,0.921,11.002,5.832,0.321,-1.420,0.569,0.280,0.774,10.028,-5.023,-5.252,-2.000,none
6.271645,0.428,-0.487,-0.762,2454.32,-0.336,0.783,-0.783,-0.459,0.306,0.834,0.549,-0.373,-0.748,2466.52,0.000,0.000,0.000,-0.312,0.610,0.728,-0.036,-0.554,-0.832,2496.91,0.000,0.000,0.000,-0.138,0.118,-0.983,0.332,-0.113,-0.937,2485.79,0.000,0.000,0.000,-0.832,0.450,0.324,0.345,0.184,0.920,10.984,5.710,0.107,-1.298,0.568,0.281,0.774,9.999,-5.191,-5.099,-0.977,none
6.304546,0.428,-0.487,-0.762,2454.32,0.224,0.336,-0.112,-0.444,0.325,0.835,0.546,-0.375,-0.749,2477.75,0.000,0.000,0.000,-0.296,0.608,0.736,-0.039,-0.551,-0.833,2490.89,0.000,0.000,0.000,-0.131,0.135,-0.982,0.328,-0.117,-0.937,2484.58,0.000,0.000,0.000,-0.892,0.392,0.223,0.347,0.183,0.920,10.959,5.511,-0.290,-1.252,0.570,0.280,0.772,10.022,-5.450,-5.282,-0.244,none
6.320051,0.430,-0.485,-0.761,2441.08,-0.448,-0.448,0.112,-0.428,0.327,0.842,0.544,-0.376,-0.750,2472.30,0.000,0.000,0.000,-0.322,0.598,0.734,-0.039,-0.548,-0.835,2486.22,0.000,0.000,0.000,-0.128,0.106,-0.986,0.328,-0.113,-0.938,2483.43,0.000,0.000,0.000,-0.881,0.400,0.251,0.346,0.182,0.920,10.956,5.527,0.076,-1.710,0.568,0.282,0.773,10.013,-5.817,-4.550,0.137,none
6.339463,0.428,-0.487,-0.762,2454.32,0.000,-0.336,0.560,-0.499,0.322,0.805,0.545,-0.377,-0.749,2464.80,0.000,0.000,0.000,-0.325,0.642,0.694,-0.039,-0.553,-0.832,2483.39,0.000,0.000,0.000,-0.125,0.143,-0.982,0.328,-0.113,-0.938,2483.43,0.000,0.000,0.000,-0.853,0.442,0.276,0.346,0.184,0.920,10.941,5.603,0.275,-1.771,0.570,0.280,0.772,10.014,-5.847,-4.504,-0.107,none
6.360501,0.428,-0.492,-0.758,2450.85,0.560,0.000,0.560,-0.471,0.304,0.828,0.544,-0.376,-0.750,2472.30,0.000,0.000,0.000,-0.311,0.647,0.697,-0.036,-0.550,-0.834,2477.53,0.000,0.000,0.000,-0.121,0.100,-0.988,0.328,-0.121,-0.937,2484.84,0.000,0.000,0.000,-0.864,0.444,0.237,0.344,0.182,0.921,10.951,5.573,-0.076,-1.450,0.567,0.279,0.776,10.015,-5.557,-5.038,-0.260,none
6.383161,0.426,-0.489,-0.761,2441.68,0.224,-0.112,0.224,-0.482,0.329,0.812,0.543,-0.380,-0.749,2475.33,0.000,0.000,0.000,-0.301,0.623,0.722,-0.040,-0.550,-0.834,2477.04,0.000,0.000,0.000,-0.121,0.112,-0.986,0.328,-0.117,-0.937,2484.58,0.000,0.000,0.000,-0.863,0.447,0.235,0.346,0.183,0.920,10.950,5.527,-0.229,-1.206,0.570,0.278,0.773,10.008,-5.496,-5.237,-0.214,none
6.405506,0.428,-0.492,-0.758,2450.85,-0.448,-0.560,-0.336,-0.426,0.291,0.857,0.541,-0.379,-0.751,2482.83,0.000,0.000,0.000,-0.318,0.597,0.736,-0.039,-0.551,-0.833,2490.89,0.000,0.000,0.000,-0.138,0.104,-0.985,0.328,-0.117,-0.937,2484.58,0.000,0.000,0.000,-0.876,0.425,0.228,0.345,0.183,0.921,10.972,5.481,-0.031,-1.359,0.571,0.278,0.773,10.031,-5.649,-5.008,0.031,none
6.428116,0.428,-0.487,-0.762,2454.32,-0.448,-0.560,0.336,-0.421,0.330,0.845,0.542,-0.374,-0.753,2463.12,0.000,0.000,0.000,-0.320,0.660,0.680,-0.043,-0.548,-0.835,2485.80,0.000,0.000,0.000,-0.145,0.102,-0.984,0.330,-0.114,-0.937,2466.56,0.000,0.000,0.000,-0.882,0.400,0.249,0.344,0.182,0.921,10.963,5.618,-0.061,-1.328,0.569,0.278,0.774,9.980,-5.603,-4.855,-0.260,none
6.450551,0.421,-0.489,-0.764,2446.25,0.000,-0.448,0.224,-0.456,0.315,0.832,0.539,-0.384,-0.750,2474.49,0.000,0.000,0.000,-0.285,0.649,0.706,-0.048,-0.552,-0.833,2470.41,0.000,0.000,0.000,-0.121,0.121,-0.985,0.324,-0.121,-0.938,2481.57,0.000,0.000,0.000,-0.850,0.458,0.261,0.348,0.183,0.920,10.965,5.573,-0.015,-1.313,0.570,0.279,0.773,10.032,-5.481,-5.115,-0.595,none
6.474542,0.424,-0.483,-0.766,2452.08,-0.560,-0.671,-0.560,-0.480,0.318,0.818,0.544,-0.376,-0.750,2472.30,0.000,0.000,0.000,-0.312,0.610,0.728,-0.044,-0.550,-0.834,2478.29,0.000,0.000,0.000,-0.141,0.135,-0.981,0.324,-0.117,-0.939,2481.32,0.000,0.000,0.000,-0.866,0.450,0.217,0.346,0.183,0.920,10.989,5.573,0.076,-1.344,0.569,0.278,0.774,10.014,-5.389,-5.405,-1.023,none
6.497348,0.424,-0.488,-0.763,2450.06,-0.560,0.000,-0.895,-0.462,0.293,0.837,0.541,-0.377,-0.752,2466.88,0.000,0.000,0.000,-0.288,0.638,0.714,-0.040,-0.550,-0.834,2477.04,0.000,0.000,0.000,-0.138,0.092,-0.986,0.329,-0.118,-0.937,2474.27,0.000,0.000,0.000,-0.888,0.407,0.212,0.345,0.182,0.921,10.965,5.588,-0.137,-1.115,0.567,0.277,0.776,10.009,-5.176,-5.664,-1.466,none
6.518681,0.428,-0.487,-0.762,2454.32,-0.671,0.224,-0.783,-0.474,0.324,0.819,0.544,-0.376,-0.750,2472.30,0.000,0.000,0.000,-0.300,0.660,0.689,-0.043,-0.551,-0.833,2492.13,0.000,0.000,0.000,-0.118,0.103,-0.988,0.328,-0.121,-0.937,2484.84,0.000,0.000,0.000,-0.848,0.413,0.331,0.347,0.183,0.920,10.978,5.664,0.046,-1.237,0.573,0.277,0.772,10.044,-5.145,-5.481,-1.466,none
6.540708,0.427,-0.482,-0.765,2456.34,-1.007,0.448,-0.895,-0.491,0.325,0.808,0.546,-0.374,-0.750,2461.05,0.000,0.000,0.000,-0.295,0.628,0.720,-0.036,-0.551,-0.834,2491.38,0.000,0.000,0.000,-0.149,0.122,-0.981,0.331,-0.121,-0.936,2489.07,0.000,0.000,0.000,-0.857,0.418,0.302,0.347,0.184,0.920,10.990,5.664,-0.290,-1.145,0.568,0.281,0.773,10.039,-5.176,-5.618,-0.962,none
6.562686,0.429,-0.489,-0.760,2445.95,-0.783,0.000,-0.783,-0.451,0.355,0.819,0.547,-0.372,-0.750,2474.01,0.000,0.000,0.000,-0.289,0.600,0.746,-0.036,-0.553,-0.832,2482.22,0.000,0.000,0.000,-0.145,0.104,-0.984,0.332,-0.109,-0.937,2485.62,0.000,0.000,0.000,-0.880,0.435,0.191,0.347,0.182,0.920,10.992,5.710,0.214,-1.786,0.570,0.281,0.772,10.015,-5.817,-4.443,-0.198,none
6.584200,0.425,-0.485,-0.764,2445.20,0.783,-0.224,0.895,-0.477,0.301,0.826,0.544,-0.376,-0.750,2472.30,0.000,0.000,0.000,-0.295,0.633,0.716,-0.039,-0.556,-0.830,2488.93,0.000,0.000,0.000,-0.155,0.113,-0.981,0.327,-0.117,-0.938,2493.96,0.000,0.000,0.000,-0.863,0.435,0.257,0.347,0.180,0.921,10.972,5.496,0.046,-1.573,0.572,0.279,0.771,10.014,-5.847,-4.656,0.244,none
6.606557,0.425,-0.485,-0.764,2445.20,0.448,-0.671,0.560,-0.450,0.322,0.833,0.542,-0.375,-0.752,2479.81,0.000,0.000,0.000,-0.332,0.619,0.712,-0.039,-0.551,-0.833,2490.89,0.000,0.000,0.000,-0.174,0.104,-0.979,0.328,-0.113,-0.938,2483.43,0.000,0.000,0.000,-0.889,0.412,0.202,0.345,0.184,0.920,10.942,5.511,-0.031,-1.481,0.569,0.278,0.774,10.021,-5.710,-4.855,-0.198,none
6.628121,0.423,-0.486,-0.764,2456.93,0.448,-0.336,0.448,-0.474,0.308,0.825,0.540,-0.381,-0.751,2469.91,0.000,0.000,0.000,-0.311,0.644,0.699,-0.044,-0.550,-0.834,2478.29,0.000,0.000,0.000,-0.138,0.106,-0.985,0.324,-0.121,-0.938,2481.57,0.000,0.000,0.000,-0.868,0.423,0.259,0.346,0.180,0.921,10.985,5.496,-0.229,-1.176,0.571,0.278,0.773,10.010,-5.298,-5.542,-0.733,none
6.649298,0.427,-0.486,-0.762,2436.80,-0.560,0.224,-0.448,-0.493,0.317,0.810,0.541,-0.377,-0.752,2466.88,0.000,0.000,0.000,-0.309,0.632,0.711,-0.044,-0.545,-0.837,2481.17,0.000,0.000,0.000,-0.141,0.075,-0.987,0.330,-0.114,-0.937,2466.56,0.000,0.000,0.000,-0.849,0.431,0.307,0.346,0.182,0.920,10.981,5.618,0.015,-1.221,0.570,0.278,0.773,9.999,-5.145,-5.221,-1.084,none
6.672609,0.427,-0.490,-0.760,2459.20,-0.224,0.112,-0.336,-0.456,0.331,0.826,0.541,-0.379,-0.751,2482.83,0.000,0.000,0.000,-0.317,0.608,0.728,-0.040,-0.550,-0.834,2477.04,0.000,0.000,0.000,-0.131,0.125,-0.984,0.332,-0.113,-0.937,2485.79,0.000,0.000,0.000,-0.869,0.407,0.282,0.348,0.181,0.920,10.985,5.695,0.061,-1.267,0.572,0.281,0.771,10.027,-5.191,-5.206,-1.176,none
6.697651,0.429,-0.484,-0.763,2449.47,-0.448,0.224,-0.336,-0.493,0.317,0.810,0.549,-0.373,-0.748,2466.52,0.000,0.000,0.000,-0.321,0.587,0.743,-0.039,-0.551,-0.833,2490.89,0.000,0.000,0.000,-0.141,0.110,-0.984,0.332,-0.113,-0.937,2485.79,0.000,0.000,0.000,-0.866,0.416,0.276,0.346,0.183,0.920,10.978,5.695,0.229,-1.695,0.572,0.282,0.770,10.013,-5.679,-4.595,-0.550,none
6.719575,0.429,-0.484,-0.763,2449.47,0.448,-0.224,0.336,-0.478,0.309,0.822,0.546,-0.371,-0.752,2481.52,0.000,0.000,0.000,-0.272,0.686,0.675,-0.039,-0.551,-0.833,2490.89,-0.336,-0.671,0.448,-0.118,0.138,-0.983,0.333,-0.117,-0.936,2478.52,0.000,0.000,0.000,-0.874,0.402,0.274,0.345,0.180,0.921,10.964,5.511,-0.061,-1.450,0.568,0.279,0.774,10.025,-5.725,-4.947,-0.061,none
6.742499,0.423,-0.486,-0.764,2456.93,0.448,-0.448,0.448,-0.485,0.312,0.817,0.544,-0.373,-0.751,2468.55,0.000,0.000,0.000,-0.307,0.655,0.691,-0.043,-0.551,-0.833,2492.13,-0.671,-0.448,0.336,-0.130,0.096,-0.987,0.327,-0.109,-0.939,2490.76,-0.112,0.112,-0.112,-0.857,0.406,0.317,0.346,0.179,0.921,10.957,5.603,0.351,-1.771,0.571,0.279,0.772,10.015,-5.786,-4.550,-0.427,none
6.762885,0.424,-0.488,-0.763,2450.06,0.336,-0.336,0.336,-0.493,0.343,0.800,0.544,-0.376,-0.750,2472.30,0.000,0.000,0.000,-0.331,0.584,0.741,-0.039,-0.548,-0.835,2486.22,0.336,0.000,0.112,-0.110,0.108,-0.988,0.327,-0.117,-0.938,2493.96,0.000,0.224,0.112,-0.882,0.422,0.211,0.346,0.180,0.921,10.977,5.573,0.153,-1.511,0.571,0.278,0.773,10.001,-5.542,-4.885,-0.763,none
6.785125,0.423,-0.486,-0.764,2456.93,-0.224,0.224,-0.112,-0.497,0.265,0.826,0.542,-0.375,-0.752,2479.81,0.000,0.000,0.000,-0.276,0.631,0.725,-0.044,-0.550,-0.834,2478.29,0.000,0.224,-0.112,-0.128,0.094,-0.987,0.328,-0.121,-0.937,2484.84,0.336,-0.112,0.224,-0.891,0.404,0.207,0.346,0.180,0.921,10.979,5.679,0.076,-1.237,0.570,0.278,0.773,9.985,-5.282,-5.282,-0.992,none
6.806681,0.424,-0.483,-0.766,2452.08,-0.560,-0.112,-0.671,-0.453,0.314,0.834,0.541,-0.377,-0.752,2466.88,0.000,0.000,0.000,-0.369,0.598,0.712,-0.040,-0.546,-0.837,2479.92,-0.336,0.560,-0.336,-0.138,0.116,-0.984,0.328,-0.113,-0.938,2483.43,0.000,-0.336,0.000,-0.857,0.444,0.261,0.345,0.181,0.921,10.976,5.664,0.061,-1.252,0.569,0.277,0.774,10.010,-5.115,-5.160,-1.298,none
6.828874,0.424,-0.488,-0.763,2450.06,0.112,0.560,-0.448,-0.462,0.293,0.837,0.543,-0.380,-0.749,2475.33,0.000,0.000,0.000,-0.348,0.596,0.724,-0.043,-0.553,-0.832,2482.97,-0.224,0.336,-0.448,-0.120,0.123,-0.985,0.328,-0.113,-0.938,2483.43,-0.783,0.000,-0.336,-0.873,0.415,0.258,0.350,0.184,0.919,10.997,5.740,0.122,-1.359,0.570,0.279,0.773,10.029,-5.130,-5.237,-1.481,none
6.849971,0.429,-0.484,-0.763,2449.47,-0.671,0.336,-0.783,-0.467,0.302,0.831,0.548,-0.368,-0.751,2469.56,0.000,0.000,0.000,-0.358,0.577,0.734,-0.036,-0.545,-0.837,2480.42,0.895,0.112,-0.448,-0.118,0.128,-0.985,0.330,-0.114,-0.937,2473.12,-0.224,0.224,-0.112,-0.857,0.406,0.317,0.347,0.183,0.920,10.987,5.756,0.443,-1.664,0.570,0.280,0.772,10.034,-5.435,-4.687,-1.191,none
6.872990,0.427,-0.486,-0.763,2461.18,0.000,0.224,0.112,-0.483,0.295,0.824,0.546,-0.371,-0.752,2481.52,0.000,0.000,0.000,-0.291,0.646,0.706,-0.039,-0.551,-0.833,2490.89,0.448,0.112,-0.112,-0.131,0.120,-0.984,0.328,-0.121,-0.937,2484.84,0.112,0.000,0.112,-0.900,0.410,0.150,0.346,0.184,0.920,10.976,5.695,0.366,-1.649,0.569,0.280,0.773,10.040,-5.542,-4.611,-0.809,none
6.894266,0.427,-0.482,-0.765,2456.34,0.112,-0.112,0.224,-0.457,0.357,0.814,0.546,-0.375,-0.749,2477.75,0.000,0.000,0.000,-0.309,0.602,0.737,-0.036,-0.551,-0.834,2491.38,-0.336,-0.224,0.112,-0.138,0.096,-0.986,0.328,-0.117,-0.937,2484.58,0.000,-0.112,-0.224,-0.877,0.421,0.230,0.348,0.183,0.920,10.957,5.634,-0.137,-1.282,0.571,0.279,0.772,10.047,-5.389,-5.191,-0.397,none
6.916965,0.429,-0.484,-0.763,2449.47,-0.112,-0.336,-0.112,-0.444,0.325,0.835,0.543,-0.372,-0.753,2476.08,0.000,0.000,0.000,-0.297,0.644,0.705,-0.039,-0.550,-0.835,2498.39,-1.231,-0.336,0.224,-0.139,0.120,-0.983,0.332,-0.109,-0.937,2485.62,-0.560,0.000,-0.224,-0.884,0.411,0.222,0.348,0.182,0.920,10.954,5.618,-0.122,-1.420,0.573,0.279,0.771,10.011,-5.557,-5.099,-0.321,none
6.941490,0.428,-0.487,-0.762,2454.32,-0.112,-0.112,0.224,-0.510,0.335,0.792,0.543,-0.372,-0.753,2476.08,0.000,0.000,0.000,-0.321,0.624,0.712,-0.040,-0.550,-0.834,2477.04,-1.007,-0.112,0.112,-0.145,0.102,-0.984,0.332,-0.109,-0.937,2485.62,-0.560,0.448,-0.112,-0.860,0.443,0.255,0.344,0.183,0.921,10.953,5.542,-0.076,-1.466,0.571,0.278,0.773,10.016,-5.664,-4.885,-0.137,none
6.960320,0.423,-0.486,-0.764,2456.93,0.000,-0.671,0.112,-0.469,0.330,0.819,0.541,-0.377,-0.752,2466.88,0.000,0.000,0.000,-0.283,0.638,0.717,-0.040,-0.550,-0.834,2477.04,-1.119,-0.336,0.448,-0.166,0.115,-0.980,0.328,-0.113,-0.938,2483.43,0.448,0.000,0.112,-0.861,0.415,0.293,0.347,0.182,0.920,10.933,5.481,0.015,-1.542,0.571,0.278,0.772,10.032,-5.679,-4.916,-0.290,none
6.981423,0.428,-0.487,-0.762,2454.32,-0.112,-0.224,0.112,-0.467,0.312,0.827,0.541,-0.377,-0.752,2466.88,0.000,0.000,0.000,-0.279,0.647,0.710,-0.044,-0.547,-0.836,2471.97,0.000,-0.112,0.112,-0.120,0.143,-0.982,0.324,-0.117,-0.939,2481.32,0.224,0.000,0.224,-0.880,0.426,0.211,0.347,0.179,0.921,10.993,5.664,0.107,-1.496,0.570,0.278,0.773,10.027,-5.588,-4.809,-0.580,none
7.003313,0.424,-0.488,-0.763,2450.06,0.112,0.000,0.224,-0.468,0.296,0.833,0.542,-0.375,-0.752,2479.81,0.000,0.000,0.000,-0.310,0.575,0.757,-0.043,-0.550,-0.834,2497.97,0.336,-0.112,0.000,-0.149,0.122,-0.981,0.328,-0.113,-0.938,2483.43,-0.336,-0.112,0.224,-0.861,0.460,0.215,0.347,0.182,0.920,10.996,5.710,0.397,-1.664,0.573,0.278,0.771,10.031,-5.649,-4.397,-0.626,none
7.026397,0.424,-0.483,-0.766,2452.08,0.448,-0.112,0.224,-0.447,0.335,0.829,0.546,-0.375,-0.749,2477.75,0.000,0.000,0.000,-0.324,0.605,0.727,-0.043,-0.551,-0.833,2492.13,0.336,-0.448,0.112,-0.128,0.104,-0.986,0.328,-0.113,-0.938,2483.43,0.336,0.000,0.112,-0.875,0.423,0.237,0.348,0.179,0.920,10.981,5.802,0.534,-1.802,0.573,0.277,0.771,10.026,-5.786,-4.229,-0.626,none
7.049261,0.424,-0.483,-0.766,2452.08,0.448,0.112,0.336,-0.446,0.327,0.833,0.538,-0.378,-0.753,2462.02,0.000,0.000,0.000,-0.276,0.641,0.717,-0.043,-0.548,-0.835,2485.80,0.224,-0.336,0.448,-0.101,0.109,-0.989,0.323,-0.117,-0.939,2490.71,0.671,-0.112,0.000,-0.855,0.383,0.351,0.348,0.180,0.920,10.974,5.679,0.427,-1.496,0.573,0.279,0.771,10.028,-5.435,-4.885,-1.313,none
7.072056,0.427,-0.482,-0.765,2456.34,-0.448,0.224,-0.448,-0.454,0.338,0.824,0.540,-0.372,-0.755,2470.66,0.000,0.000,0.000,-0.292,0.651,0.701,-0.039,-0.548,-0.835,2486.22,0.783,0.336,-0.671,-0.141,0.110,-0.984,0.332,-0.113,-0.937,2485.79,0.000,0.000,0.000,-0.863,0.412,0.293,0.346,0.181,0.921,10.939,5.786,0.580,-1.542,0.573,0.276,0.772,9.997,-5.282,-4.763,-1.908,none
7.094306,0.423,-0.486,-0.764,2456.93,0.000,0.895,-0.448,-0.459,0.342,0.820,0.544,-0.376,-0.750,2472.30,0.000,0.000,0.000,-0.315,0.573,0.756,-0.039,-0.551,-0.833,2490.89,1.455,0.671,-1.007,-0.128,0.131,-0.983,0.328,-0.125,-0.936,2485.94,-0.224,-0.224,0.112,-0.896,0.398,0.194,0.348,0.181,0.920,10.968,5.756,0.198,-1.328,0.572,0.279,0.771,10.033,-4.992,-5.450,-2.275,none
7.116567,0.428,-0.480,-0.766,2452.01,-0.671,1.119,-1.119,-0.444,0.325,0.835,0.545,-0.369,-0.752,2464.09,0.000,0.000,0.000,-0.294,0.655,0.697,-0.036,-0.545,-0.837,2480.42,0.783,1.007,-1.231,-0.130,0.108,-0.986,0.328,-0.117,-0.937,2484.58,-0.671,0.000,0.000,-0.900,0.389,0.196,0.348,0.182,0.920,10.999,5.817,0.534,-1.634,0.573,0.282,0.770,10.050,-5.237,-4.824,-2.046,none
7.138266,0.429,-0.484,-0.763,2449.47,-0.448,0.671,-0.336,-0.477,0.292,0.829,0.549,-0.373,-0.748,2466.52,0.000,0.000,0.000,-0.302,0.595,0.745,-0.036,-0.551,-0.834,2491.38,1.231,0.671,-0.783,-0.138,0.130,-0.982,0.335,-0.113,-0.935,2489.13,-0.336,0.112,-0.112,-0.860,0.443,0.255,0.346,0.183,0.920,11.002,5.771,0.427,-1.649,0.571,0.281,0.771,10.017,-5.450,-4.489,-0.977,none
7.159132,0.428,-0.487,-0.762,2454.32,0.448,0.336,0.224,-0.496,0.273,0.825,0.546,-0.375,-0.749,2477.75,0.000,0.000,0.000,-0.320,0.660,0.680,-0.039,-0.554,-0.832,2496.41,-1.007,-0.671,0.448,-0.149,0.132,-0.980,0.328,-0.121,-0.937,2484.84,0.336,0.000,-0.448,-0.874,0.414,0.256,0.348,0.181,0.920,10.964,5.618,-0.015,-1.466,0.571,0.277,0.773,10.018,-5.588,-4.687,-0.061,none
7.182159,0.428,-0.487,-0.762,2454.32,0.112,-0.336,0.448,-0.522,0.309,0.795,0.542,-0.375,-0.752,2479.81,0.000,0.000,0.000,-0.291,0.645,0.707,-0.043,-0.548,-0.835,2485.80,-1.007,-0.783,0.671,-0.138,0.126,-0.982,0.324,-0.117,-0.939,2481.32,-0.112,0.112,-0.224,-0.877,0.419,0.237,0.348,0.180,0.920,10.974,5.573,0.046,-1.573,0.572,0.277,0.772,10.026,-5.679,-4.626,-0.153,none
