time,s1_X,s1_Y,s1_Z,s1_gyro_x,s1_gyro_y,s1_gyro_z,s1_mag_x,s1_mag_y,s1_mag_z,s2_X,s2_Y,s2_Z,s2_gyro_x,s2_gyro_y,s2_gyro_z,s3_X,s3_Y,s3_Z,s3_gyro_x,s3_gyro_y,s3_gyro_z,s4_X,s4_Y,s4_Z,s4_gyro_x,s4_gyro_y,s4_gyro_z,s5_X,s5_Y,s5_Z,s5_gyro_x,s5_gyro_y,s5_gyro_z,s6_X,s6_Y,s6_Z,s6_gyro_x,s6_gyro_y,s6_gyro_z,label
24.015732,0.533,0.479,-0.697,0.614,0.436,-0.658,-0.432,-0.03,0.902,0.308,-0.433,0.847,0.301,-0.375,0.877,0.218,-0.673,0.707,0.046,-0.709,0.704,0.0,0.0,0.0,0.0,0.0,0.0,0.371,-0.279,0.886,0.315,-0.191,0.93,0.298,-0.698,0.651,0.167,-0.623,0.764,rock
42.515781,0.766,0.505,-0.398,-0.796,0.239,0.557,-0.658,-0.646,0.388,0.529,-0.049,0.848,0.174,-0.0,-0.985,-0.224,-0.573,0.789,-0.338,0.878,-0.338,0.0,0.0,0.0,0.0,0.0,0.0,0.432,0.17,0.886,0.076,0.152,-0.986,0.24,-0.285,0.928,-0.076,0.841,-0.535,scissors
3.848861,0.356,0.473,-0.806,-0.022,0.994,-0.108,-0.347,0.094,0.933,0.287,-0.748,0.599,0.852,-0.522,0.027,0.527,-0.422,0.738,0.074,0.213,0.974,0.0,0.0,0.0,0.0,0.0,0.0,0.526,-0.539,0.658,0.956,-0.123,0.265,0.561,-0.737,0.377,0.863,-0.086,0.498,paper
37.277661,0.427,0.434,-0.793,-0.256,0.654,-0.711,-0.524,-0.464,0.715,0.273,-0.501,0.821,0.383,-0.912,0.147,0.31,-0.643,0.7,0.552,-0.103,0.828,0.0,0.0,0.0,0.0,0.0,0.0,0.381,-0.374,0.846,0.738,-0.615,0.277,0.332,-0.746,0.577,0.757,-0.62,0.207,paper
9.788267,0.527,0.575,-0.626,-0.688,0.688,-0.229,-0.119,-0.262,0.958,0.397,-0.461,0.793,0.302,-0.302,-0.905,0.213,-0.575,0.79,-0.781,0.625,0.0,0.0,0.0,0.0,0.0,0.0,0.0,0.467,-0.247,0.849,0.535,0.267,-0.802,0.401,-0.628,0.667,-0.243,0.97,0.0,scissors
19.868748,0.571,0.399,-0.717,0.511,0.549,-0.662,-0.244,-0.514,0.822,0.246,-0.445,0.861,0.36,-0.54,0.76,0.241,-0.698,0.675,0.097,-0.622,0.777,0.0,0.0,0.0,0.0,0.0,0.0,0.319,-0.315,0.894,0.427,-0.297,0.854,0.247,-0.736,0.63,0.268,-0.652,0.709,rock
54.225206,0.512,0.456,-0.728,-0.68,0.733,-0.0,-0.061,-0.025,0.998,0.349,-0.386,0.854,0.304,-0.456,-0.836,0.194,-0.649,0.735,-0.099,0.99,0.099,0.0,0.0,0.0,0.0,0.0,0.0,0.425,-0.238,0.874,0.552,-0.092,-0.829,0.345,-0.641,0.686,0.359,0.717,-0.598,paper
23.763522,0.632,0.453,-0.628,0.711,0.536,-0.455,-0.295,-0.088,0.952,0.32,-0.39,0.863,0.549,-0.258,0.795,0.156,-0.673,0.723,-0.172,-0.537,0.826,0.0,0.0,0.0,0.0,0.0,0.0,0.363,-0.233,0.902,0.477,0.021,0.879,0.27,-0.662,0.699,0.257,-0.375,0.89,scissors
12.581289,-0.102,0.717,0.69,0.254,0.966,-0.051,0.713,-0.178,-0.678,0.822,-0.468,0.325,0.277,-0.484,0.83,0.981,-0.115,0.153,0.385,-0.275,0.881,0.884,0.036,0.467,0.734,-0.677,0.056,0.877,0.054,0.478,0.68,-0.68,0.272,0.032,0.884,0.467,0.523,0.719,0.458,scissors
61.519778,0.393,0.425,-0.815,-0.877,0.195,0.439,0.192,0.345,0.919,0.227,-0.535,0.814,0.141,-0.094,-0.986,0.367,-0.655,0.661,-0.101,0.962,-0.253,0.0,0.0,0.0,0.0,0.0,0.0,0.363,-0.438,0.822,0.267,0.053,-0.962,0.334,-0.784,0.524,0.262,0.682,-0.682,scissors
10.625876,-0.085,0.984,0.159,-0.157,-0.987,0.039,-0.624,-0.78,0.044,0.685,-0.565,0.459,-0.635,0.389,-0.667,0.727,-0.305,0.615,-0.594,0.195,-0.781,0.766,-0.338,0.547,-0.681,0.133,-0.72,0.859,-0.105,0.501,-0.742,-0.095,-0.663,0.756,0.544,0.364,-0.901,-0.303,-0.311,rock
32.711744,0.586,0.369,-0.722,0.521,0.329,-0.788,-0.229,-0.188,0.955,0.224,-0.392,0.892,0.151,-0.439,0.886,0.186,-0.743,0.643,0.149,-0.77,0.621,0.0,0.0,0.0,0.0,0.0,0.0,0.266,-0.281,0.922,0.225,-0.324,0.919,0.176,-0.728,0.662,0.109,-0.73,0.675,paper
15.032197,0.603,0.509,-0.615,-0.51,-0.646,0.568,-0.344,-0.648,0.68,0.367,-0.361,0.857,-0.451,0.457,-0.766,0.121,-0.662,0.739,-0.148,0.529,-0.836,0.0,0.0,0.0,0.0,0.0,0.0,0.383,-0.183,0.905,-0.511,0.222,-0.831,0.275,-0.626,0.73,-0.412,0.568,-0.712,scissors
5.761479,0.753,0.368,-0.546,0.661,0.681,-0.314,-0.556,-0.355,0.751,0.288,-0.316,0.904,0.614,-0.265,0.743,0.077,-0.746,0.661,-0.169,-0.484,0.858,0.0,0.0,0.0,0.0,0.0,0.0,0.258,-0.172,0.951,0.526,0.043,0.85,0.134,-0.653,0.745,0.317,-0.339,0.885,scissors
1.826405,-0.201,0.933,0.299,-0.123,0.915,0.384,-0.399,-0.907,0.134,0.642,-0.751,0.153,0.678,-0.718,0.157,0.894,-0.344,0.286,0.91,-0.28,0.305,0.938,0.277,0.209,0.904,0.261,0.338,0.813,0.367,0.451,0.715,0.343,0.609,0.243,0.957,0.16,0.169,0.956,0.241,scissors
60.617236,0.362,0.398,-0.843,-0.196,-0.0,0.981,0.147,0.356,0.923,0.202,-0.573,0.794,0.147,0.442,-0.885,0.409,-0.639,0.651,-0.847,0.376,-0.376,0.0,0.0,0.0,0.0,0.0,0.0,0.367,-0.478,0.798,-0.298,0.745,-0.596,0.35,-0.803,0.482,-0.6,0.8,0.0,rock
4.609569,0.436,0.698,-0.568,-0.318,-0.272,0.908,-0.35,-0.029,0.936,0.47,-0.506,0.723,-0.014,0.67,-0.742,0.253,-0.493,0.833,-0.553,0.623,-0.553,0.0,0.0,0.0,0.0,0.0,0.0,0.549,-0.26,0.794,-0.24,0.564,-0.79,0.489,-0.597,0.636,-0.29,0.869,-0.4,rock
7.786635,0.004,0.989,0.146,-0.101,-0.974,0.202,-0.387,-0.804,0.451,0.733,-0.493,0.469,-0.565,0.418,-0.712,0.733,-0.208,0.647,-0.549,0.257,-0.795,0.811,-0.237,0.535,-0.627,0.168,-0.761,0.885,0.005,0.465,-0.701,-0.034,-0.712,0.778,0.456,0.431,-0.913,-0.33,-0.242,rock
58.400776,0.276,0.401,-0.874,0.192,-0.962,-0.192,-0.045,0.445,0.895,0.131,-0.644,0.753,-0.964,0.249,0.093,0.5,-0.627,0.597,-0.116,-0.524,-0.844,0.0,0.0,0.0,0.0,0.0,0.0,0.327,-0.583,0.744,-0.987,-0.159,0.0,0.341,-0.86,0.379,-0.931,-0.175,-0.32,rock
40.365806,0.549,0.396,-0.736,0.061,-0.811,0.581,-0.41,-0.549,0.729,0.273,-0.243,0.931,-0.744,0.609,-0.277,0.059,-0.78,0.623,-0.266,-0.061,-0.962,0.0,0.0,0.0,0.0,0.0,0.0,0.206,-0.125,0.97,-0.908,0.175,-0.381,0.071,-0.64,0.765,-0.859,0.239,-0.453,scissors
11.310871,0.557,0.565,-0.608,-0.796,0.597,0.1,-0.142,-0.272,0.952,0.426,-0.423,0.8,0.477,-0.191,-0.858,0.166,-0.57,0.805,-0.635,0.762,0.127,0.0,0.0,0.0,0.0,0.0,0.0,0.479,-0.194,0.856,0.625,0.0,-0.781,0.399,-0.587,0.705,0.0,0.97,-0.243,rock
25.764899,0.452,0.524,-0.722,0.565,0.315,-0.762,-0.756,-0.402,0.516,0.338,-0.513,0.789,0.163,-0.436,0.885,0.306,-0.588,0.748,0.094,-0.78,0.619,0.0,0.0,0.0,0.0,0.0,0.0,0.443,-0.343,0.829,0.226,-0.292,0.929,0.406,-0.706,0.581,0.068,-0.699,0.712,scissors
1.529548,0.634,0.268,-0.726,-0.659,0.061,0.75,-0.233,-0.277,0.932,0.107,-0.458,0.883,0.199,0.365,-0.91,0.265,-0.794,0.548,-0.288,0.909,-0.301,0.0,0.0,0.0,0.0,0.0,0.0,0.163,-0.348,0.923,0.12,0.414,-0.902,0.078,-0.802,0.592,0.159,0.861,-0.482,paper
12.344845,0.677,0.279,-0.681,0.577,-0.793,-0.198,-0.269,-0.28,0.922,0.145,-0.327,0.934,-0.761,0.535,0.366,0.15,-0.812,0.564,-0.386,-0.628,-0.676,0.0,0.0,0.0,0.0,0.0,0.0,0.159,-0.259,0.953,-0.935,0.104,0.338,0.057,-0.746,0.664,-0.985,-0.144,0.096,rock
45.902455,0.392,0.5,-0.772,-0.286,-0.429,0.857,-0.198,-0.512,0.836,0.353,-0.514,0.782,-0.28,0.466,-0.839,0.312,-0.568,0.761,-0.69,0.383,-0.614,0.0,0.0,0.0,0.0,0.0,0.0,0.484,-0.35,0.802,-0.527,0.422,-0.738,0.431,-0.697,0.573,-0.709,0.63,-0.315,paper
48.97086,0.448,0.59,-0.672,0.626,0.532,-0.57,-0.356,-0.075,0.931,0.417,-0.421,0.806,0.504,-0.37,0.78,0.211,-0.571,0.793,-0.015,-0.517,0.856,0.0,0.0,0.0,0.0,0.0,0.0,0.502,-0.245,0.83,0.548,-0.11,0.829,0.417,-0.615,0.669,0.375,-0.446,0.813,scissors
1.004893,-0.073,0.986,0.149,0.178,0.98,-0.089,0.338,-0.933,0.121,0.858,-0.198,-0.473,0.605,-0.173,-0.777,0.619,0.528,0.581,0.598,0.359,0.717,0.843,0.187,0.504,0.985,-0.123,0.123,0.79,0.178,0.587,0.408,0.408,0.816,0.778,0.176,0.604,0.802,0.267,0.535,paper
57.668963,0.565,0.427,-0.706,0.067,-0.94,0.336,-0.379,0.265,0.887,0.302,-0.393,0.869,-0.393,0.917,-0.066,0.184,-0.675,0.715,-0.794,-0.234,-0.561,0.0,0.0,0.0,0.0,0.0,0.0,0.372,-0.268,0.889,-0.816,0.565,0.125,0.283,-0.668,0.688,-0.921,0.339,0.194,scissors
33.135897,0.43,0.568,-0.702,0.295,0.619,-0.728,-0.433,-0.096,0.896,0.367,-0.537,0.76,0.436,-0.633,0.639,0.321,-0.546,0.773,0.269,-0.44,0.856,0.0,0.0,0.0,0.0,0.0,0.0,0.498,-0.354,0.792,0.586,-0.362,0.725,0.46,-0.687,0.563,0.511,-0.617,0.598,rock
34.061992,0.038,0.823,0.567,-0.0,-0.894,-0.447,0.189,-0.948,-0.255,0.725,-0.344,0.597,-0.381,0.254,-0.889,0.817,-0.195,0.543,-0.937,0.312,-0.156,0.853,-0.192,0.486,-0.566,0.424,-0.707,0.996,-0.02,-0.09,-0.909,0.404,-0.101,0.185,0.917,0.355,-0.873,-0.218,-0.436,rock
55.4233,0.496,0.449,-0.743,0.476,0.336,-0.812,-0.047,0.011,0.999,0.331,-0.419,0.845,0.227,-0.487,0.844,0.235,-0.646,0.726,0.032,-0.738,0.674,0.0,0.0,0.0,0.0,0.0,0.0,0.422,-0.284,0.861,0.299,-0.329,0.896,0.348,-0.672,0.654,0.064,-0.673,0.737,scissors
34.571832,0.162,0.821,0.547,0.079,0.946,0.315,0.207,-0.948,-0.241,0.729,-0.263,0.633,0.424,-0.707,0.566,0.794,-0.122,0.595,0.199,-0.398,0.896,0.861,-0.099,0.498,0.635,-0.127,0.762,0.995,0.07,-0.071,0.745,0.298,0.596,0.2,0.873,0.446,-0.0,0.995,-0.1,rock
40.627759,0.375,0.278,-0.884,0.28,-0.935,0.218,-0.174,-0.341,0.924,0.13,-0.57,0.811,-0.716,0.684,0.14,0.429,-0.681,0.594,-0.435,-0.412,-0.801,0.0,0.0,0.0,0.0,0.0,0.0,0.287,-0.52,0.804,-0.96,0.279,0.039,0.273,-0.858,0.434,-0.989,0.129,-0.068,scissors
59.538163,0.506,0.437,-0.743,-0.765,0.598,0.237,-0.256,0.222,0.941,0.336,-0.294,0.895,0.456,-0.415,-0.788,0.061,-0.702,0.71,0.293,0.923,0.249,0.0,0.0,0.0,0.0,0.0,0.0,0.355,-0.082,0.931,0.649,-0.118,-0.752,0.222,-0.528,0.82,0.777,0.356,-0.518,rock
17.708611,-0.183,0.745,0.642,0.181,0.984,0.0,0.858,-0.334,-0.39,0.78,-0.545,0.31,0.266,-0.466,0.844,0.963,-0.217,0.162,0.466,-0.318,0.826,0.924,0.055,0.378,0.727,-0.684,0.064,0.912,0.103,0.397,0.757,-0.643,0.115,0.08,0.919,0.386,0.662,0.594,0.457,scissors
46.999628,0.577,0.335,-0.744,-0.386,-0.405,0.829,-0.471,-0.537,0.7,0.26,-0.382,0.887,-0.222,0.615,-0.756,0.191,-0.716,0.671,-0.436,0.578,-0.69,0.0,0.0,0.0,0.0,0.0,0.0,0.317,-0.282,0.905,-0.427,0.49,-0.76,0.218,-0.715,0.664,-0.423,0.771,-0.476,scissors
8.692682,0.462,0.529,-0.712,0.077,0.996,0.038,0.009,-0.225,0.974,0.332,-0.556,0.762,0.922,-0.384,0.038,0.323,-0.566,0.759,-0.275,0.196,0.941,0.0,0.0,0.0,0.0,0.0,0.0,0.454,-0.365,0.813,0.942,0.118,0.314,0.421,-0.707,0.568,0.722,0.127,0.68,paper
29.234463,0.602,0.546,-0.582,-0.523,-0.445,0.727,-0.559,-0.7,0.445,0.424,-0.325,0.845,-0.256,0.457,-0.852,0.081,-0.627,0.775,-0.226,0.671,-0.706,0.0,0.0,0.0,0.0,0.0,0.0,0.418,-0.12,0.9,-0.347,0.299,-0.889,0.315,-0.563,0.764,-0.281,0.696,-0.661,scissors
54.634421,0.483,0.452,-0.75,0.487,0.324,-0.811,-0.056,-0.005,0.998,0.32,-0.435,0.842,0.408,-0.816,0.408,0.256,-0.644,0.721,-0.811,-0.487,0.324,0.0,0.0,0.0,0.0,0.0,0.0,0.421,-0.305,0.854,0.236,-0.236,0.943,0.355,-0.688,0.633,-0.617,-0.154,0.772,paper
3.203276,0.173,0.981,0.082,0.096,0.824,-0.558,-0.146,-0.315,0.938,0.834,-0.141,0.533,0.449,-0.549,0.705,-0.282,-0.139,0.949,0.156,-0.514,0.844,0.0,0.0,0.0,0.0,0.0,0.0,0.743,0.318,0.588,0.505,-0.262,0.823,0.567,0.099,0.818,0.375,-0.582,0.721,paper
52.143899,0.449,0.356,-0.82,-0.376,0.376,-0.847,0.073,0.064,0.995,0.216,-0.466,0.858,0.178,-0.98,-0.089,0.295,-0.705,0.645,0.447,-0.0,0.894,0.0,0.0,0.0,0.0,0.0,0.0,0.325,-0.356,0.876,0.527,-0.843,0.105,0.274,-0.756,0.595,0.371,-0.928,0.0,scissors
34.182067,0.501,0.455,-0.736,0.542,0.547,-0.638,-0.792,-0.176,0.585,0.392,-0.447,0.804,0.434,-0.299,0.85,0.225,-0.579,0.784,-0.05,-0.61,0.791,0.0,0.0,0.0,0.0,0.0,0.0,0.494,-0.263,0.829,0.434,-0.059,0.899,0.416,-0.642,0.644,0.249,-0.48,0.841,rock
4.477553,0.568,0.618,-0.544,-0.091,0.454,0.886,-0.366,-0.021,0.93,0.485,-0.383,0.786,0.26,0.781,-0.568,0.096,-0.549,0.83,-0.801,0.512,-0.311,0.0,0.0,0.0,0.0,0.0,0.0,0.499,-0.119,0.858,-0.124,0.844,-0.521,0.393,-0.517,0.76,-0.296,0.955,-0.0,paper
61.949862,0.361,0.516,-0.777,-0.934,-0.311,-0.178,0.184,0.236,0.954,0.336,-0.548,0.766,-0.426,-0.596,-0.681,0.354,-0.556,0.752,0.64,0.492,-0.59,0.0,0.0,0.0,0.0,0.0,0.0,0.488,-0.395,0.778,-0.131,-0.656,-0.743,0.457,-0.704,0.543,-0.0,-0.095,-0.995,scissors
8.32686,0.396,0.596,-0.698,0.39,0.0,-0.921,0.028,-0.194,0.981,0.376,-0.569,0.732,-0.088,-0.704,0.704,0.337,-0.522,0.784,0.274,-0.869,0.412,0.0,0.0,0.0,0.0,0.0,0.0,0.503,-0.36,0.785,0.082,-0.618,0.782,0.478,-0.683,0.552,-0.091,-0.908,0.409,paper
19.494747,0.508,0.489,-0.709,-0.768,-0.384,0.512,-0.208,-0.499,0.841,0.327,-0.485,0.811,-0.192,0.192,-0.962,0.265,-0.614,0.743,-0.545,0.545,-0.636,0.0,0.0,0.0,0.0,0.0,0.0,0.425,-0.311,0.85,-0.381,0.254,-0.889,0.369,-0.696,0.617,-0.609,0.609,-0.508,scissors
23.152678,0.542,0.578,-0.61,-0.553,-0.829,0.083,-0.353,-0.199,0.914,0.422,-0.416,0.806,-0.779,0.107,-0.618,0.168,-0.575,0.801,0.142,0.227,-0.964,0.0,0.0,0.0,0.0,0.0,0.0,0.481,-0.205,0.853,-0.69,-0.221,-0.69,0.399,-0.597,0.695,-0.568,0.135,-0.812,paper
9.899848,-0.351,0.835,0.423,-0.251,0.665,0.703,-0.32,-0.941,0.107,0.702,-0.711,-0.034,0.797,-0.527,-0.297,0.948,-0.298,0.107,0.984,-0.112,-0.141,0.83,0.525,0.188,0.675,0.702,0.229,0.678,0.581,0.451,0.404,0.74,0.538,0.048,0.991,0.128,-0.35,0.929,0.121,scissors
29.987346,0.615,0.437,-0.657,0.349,0.399,-0.848,-0.671,-0.595,0.442,0.334,-0.365,0.869,0.127,-0.635,0.762,0.144,-0.669,0.729,-0.0,-0.793,0.61,0.0,0.0,0.0,0.0,0.0,0.0,0.365,-0.207,0.908,0.223,-0.391,0.893,0.275,-0.645,0.713,-0.0,-0.735,0.678,rock
39.099293,0.502,0.499,-0.707,-0.554,-0.619,0.557,-0.586,-0.238,0.775,0.407,-0.442,0.8,-0.556,0.359,-0.749,0.214,-0.59,0.779,-0.03,0.475,-0.879,0.0,0.0,0.0,0.0,0.0,0.0,0.477,-0.27,0.836,-0.561,0.097,-0.822,0.397,-0.65,0.647,-0.424,0.454,-0.784,rock
45.560164,0.417,0.49,-0.766,0.447,-0.894,0.0,-0.17,-0.429,0.887,0.34,-0.493,0.801,-0.688,0.229,-0.688,0.295,-0.594,0.748,-0.824,-0.137,-0.549,0.0,0.0,0.0,0.0,0.0,0.0,0.457,-0.341,0.822,-1.0,0.0,-0.0,0.398,-0.702,0.59,-0.962,0.275,0.0,paper
28.664434,0.462,0.598,-0.655,-0.515,-0.615,0.597,-0.312,-0.588,0.746,0.446,-0.405,0.798,-0.454,0.416,-0.788,0.159,-0.57,0.806,-0.12,0.53,-0.839,0.0,0.0,0.0,0.0,0.0,0.0,0.486,-0.177,0.856,-0.504,0.168,-0.847,0.406,-0.576,0.71,-0.411,0.532,-0.74,rock
44.37883,0.432,0.464,-0.773,-0.688,0.688,0.229,-0.205,-0.467,0.86,0.329,-0.484,0.811,0.136,-0.272,-0.953,0.29,-0.605,0.741,-0.7,0.7,-0.14,0.0,0.0,0.0,0.0,0.0,0.0,0.446,-0.337,0.829,0.243,0.0,-0.97,0.385,-0.704,0.597,-0.408,0.816,-0.408,scissors
38.131893,0.201,0.62,-0.758,-0.793,-0.412,0.449,-0.572,-0.561,0.598,0.409,-0.615,0.674,-0.385,0.079,-0.92,0.414,-0.449,0.792,0.171,0.685,-0.708,0.0,0.0,0.0,0.0,0.0,0.0,0.578,-0.405,0.709,-0.274,-0.069,-0.959,0.565,-0.671,0.479,-0.1,0.417,-0.903,scissors
5.177266,0.72,0.446,-0.532,-0.694,-0.591,-0.411,-0.48,-0.252,0.84,0.343,-0.294,0.892,-0.636,-0.212,-0.742,0.035,-0.702,0.711,0.474,0.316,-0.822,0.0,0.0,0.0,0.0,0.0,0.0,0.319,-0.109,0.942,-0.427,-0.508,-0.748,0.188,-0.58,0.793,-0.307,-0.084,-0.948,rock
43.133853,0.532,0.481,-0.697,0.623,-0.612,-0.487,-0.42,-0.549,0.722,0.338,-0.426,0.839,-0.64,0.178,0.747,0.234,-0.633,0.738,-0.124,-0.937,-0.327,0.0,0.0,0.0,0.0,0.0,0.0,0.42,-0.301,0.856,-0.716,-0.153,0.681,0.34,-0.69,0.638,-0.801,-0.526,0.286,scissors
23.861572,0.012,0.808,0.589,0.022,0.685,0.728,0.534,-0.722,-0.44,0.738,-0.367,0.566,0.854,-0.362,0.374,0.839,-0.205,0.504,0.916,-0.137,0.378,0.864,-0.225,0.451,0.924,-0.228,0.308,0.99,-0.049,-0.135,0.969,-0.012,-0.245,0.134,0.936,0.325,-0.143,0.944,0.296,rock
3.97047,0.028,0.819,0.573,0.302,-0.302,-0.905,0.539,-0.785,-0.305,0.722,-0.36,0.591,-0.14,0.7,-0.7,0.823,-0.209,0.529,-0.686,0.514,0.514,0.854,-0.209,0.476,-0.365,0.913,-0.183,0.994,-0.037,-0.107,-0.702,0.702,0.117,0.164,0.927,0.337,-0.688,-0.688,-0.229,rock
58.400776,0.276,0.401,-0.874,0.192,-0.962,-0.192,-0.045,0.445,0.895,0.131,-0.644,0.753,-0.964,0.249,0.093,0.5,-0.627,0.597,-0.116,-0.524,-0.844,0.0,0.0,0.0,0.0,0.0,0.0,0.327,-0.583,0.744,-0.987,-0.159,0.0,0.341,-0.86,0.379,-0.931,-0.175,-0.32,paper
10.371388,0.53,0.593,-0.606,0.136,0.953,-0.272,-0.141,-0.257,0.956,0.419,-0.446,0.791,0.617,-0.154,-0.772,0.194,-0.566,0.801,-0.857,0.429,0.286,0.0,0.0,0.0,0.0,0.0,0.0,0.481,-0.223,0.848,0.802,0.267,-0.535,0.409,-0.608,0.681,-0.218,0.873,0.436,rock
30.246902,0.643,0.398,-0.654,0.504,0.717,-0.482,-0.658,-0.603,0.451,0.305,-0.337,0.89,0.605,-0.388,0.696,0.12,-0.705,0.699,-0.045,-0.424,0.904,0.0,0.0,0.0,0.0,0.0,0.0,0.317,-0.197,0.928,0.595,-0.065,0.801,0.218,-0.653,0.725,0.423,-0.401,0.813,rock
4.340318,-0.093,0.826,0.556,0.248,0.91,0.331,-0.381,-0.644,-0.664,0.82,-0.543,0.183,0.953,-0.272,-0.136,0.95,-0.064,0.307,0.512,0.384,0.768,0.643,0.37,0.67,0.457,0.457,0.762,0.407,0.487,0.773,-0.204,0.543,0.815,0.156,0.967,0.2,-0.444,0.889,0.111,scissors
3.052392,-0.236,0.852,0.468,0.062,0.782,0.62,-0.515,-0.766,-0.385,0.735,-0.669,0.108,0.871,-0.461,0.168,0.964,-0.202,0.17,0.945,0.033,0.326,0.728,0.486,0.484,0.559,0.306,0.771,0.545,0.642,0.539,0.332,0.439,0.835,0.057,0.998,0.035,0.096,0.945,0.314,scissors
0.414988,-0.088,0.951,0.295,0.707,0.707,0.0,0.743,-0.66,0.109,0.862,0.1,-0.497,0.831,-0.147,-0.537,0.737,0.233,0.634,0.627,-0.289,0.723,0.854,0.066,0.516,0.725,-0.229,0.649,0.965,-0.099,0.244,0.982,0.103,0.155,0.856,-0.156,0.493,0.106,0.035,-0.994,paper
13.099488,0.615,0.444,-0.652,-0.15,0.852,0.501,-0.211,-0.118,0.97,0.301,-0.377,0.876,0.684,-0.0,-0.73,0.166,-0.689,0.706,-0.443,0.841,0.31,0.0,0.0,0.0,0.0,0.0,0.0,0.351,-0.225,0.909,0.702,0.451,-0.551,0.264,-0.667,0.697,0.447,0.893,0.05,paper
48.430535,0.623,0.357,-0.697,0.681,0.513,-0.522,-0.386,-0.514,0.766,0.319,-0.276,0.907,0.454,-0.199,0.869,0.045,-0.725,0.687,-0.152,-0.614,0.775,0.0,0.0,0.0,0.0,0.0,0.0,0.323,-0.154,0.934,0.41,0.0,0.912,0.188,-0.61,0.769,0.208,-0.399,0.893,scissors
1.956784,0.189,0.498,-0.846,0.853,-0.442,-0.278,-0.221,-0.369,0.903,0.11,-0.737,0.667,-0.586,0.36,0.726,0.635,-0.541,0.551,-0.231,-0.849,-0.475,0.0,0.0,0.0,0.0,0.0,0.0,0.324,-0.671,0.667,-0.806,0.088,0.586,0.401,-0.892,0.21,-0.935,-0.302,0.184,scissors
20.226891,0.031,0.684,0.729,0.082,0.752,0.654,0.493,-0.754,-0.434,0.869,-0.339,0.36,0.842,-0.421,0.337,0.973,0.009,0.229,0.959,-0.069,0.274,0.818,-0.01,0.574,0.846,-0.114,0.521,0.809,0.012,0.588,0.785,-0.033,0.618,0.013,0.808,0.589,-0.033,0.851,0.524,scissors
61.691945,0.416,0.463,-0.783,-0.993,0.114,-0.028,0.155,0.277,0.948,0.304,-0.5,0.811,-0.085,-0.566,-0.82,0.308,-0.616,0.725,0.593,0.767,-0.244,0.0,0.0,0.0,0.0,0.0,0.0,0.429,-0.361,0.828,0.209,-0.508,-0.836,0.386,-0.713,0.586,0.394,0.033,-0.919,paper
41.460585,0.417,0.412,-0.81,-0.489,0.872,-0.035,-0.334,-0.465,0.82,0.299,-0.458,0.837,0.716,-0.576,-0.395,0.275,-0.638,0.719,0.324,0.64,0.697,0.0,0.0,0.0,0.0,0.0,0.0,0.422,-0.314,0.85,0.932,-0.245,-0.265,0.363,-0.708,0.605,0.996,0.058,-0.065,scissors
8.984819,0.457,0.619,-0.639,-0.404,0.538,-0.74,-0.108,-0.253,0.961,0.433,-0.51,0.743,0.276,-0.897,-0.345,0.253,-0.506,0.825,0.549,0.329,0.768,0.0,0.0,0.0,0.0,0.0,0.0,0.534,-0.272,0.801,0.705,-0.705,-0.078,0.484,-0.61,0.627,0.762,-0.635,-0.127,scissors
1.594306,-0.114,0.955,0.272,0.236,-0.943,0.236,0.733,-0.661,0.161,0.838,0.11,-0.535,0.707,0.0,-0.707,0.736,0.284,0.614,-0.371,0.0,0.928,0.856,0.115,0.504,0.236,0.236,0.943,0.961,-0.024,0.275,0.196,0.588,0.784,0.906,0.248,0.342,-0.86,-0.43,0.276,paper
29.165691,0.517,0.588,-0.622,-0.49,-0.341,0.802,-0.565,-0.689,0.453,0.467,-0.4,0.788,-0.171,0.487,-0.857,0.146,-0.544,0.826,-0.281,0.712,-0.644,0.0,0.0,0.0,0.0,0.0,0.0,0.51,-0.161,0.845,-0.285,0.375,-0.882,0.428,-0.553,0.715,-0.233,0.764,-0.601,paper
28.902704,0.601,0.324,-0.73,-0.568,-0.526,0.633,-0.434,-0.716,0.547,0.326,-0.388,0.862,-0.386,0.452,-0.804,0.142,-0.669,0.729,-0.184,0.586,-0.789,0.0,0.0,0.0,0.0,0.0,0.0,0.369,-0.212,0.905,-0.46,0.247,-0.853,0.28,-0.64,0.716,-0.381,0.619,-0.687,scissors
35.211753,0.494,0.499,-0.711,0.379,0.801,-0.464,-0.65,-0.561,0.513,0.336,-0.446,0.83,0.655,-0.534,0.534,0.242,-0.628,0.74,-0.024,-0.33,0.944,0.0,0.0,0.0,0.0,0.0,0.0,0.412,-0.293,0.862,0.695,-0.185,0.695,0.339,-0.689,0.64,0.505,-0.433,0.746,rock
56.499437,0.505,0.456,-0.733,-0.411,0.523,-0.747,-0.234,0.316,0.919,0.332,-0.406,0.852,0.0,-0.986,0.164,0.198,-0.648,0.736,0.707,-0.0,0.707,0.0,0.0,0.0,0.0,0.0,0.0,0.417,-0.271,0.868,0.27,-0.757,0.595,0.336,-0.66,0.672,0.358,-0.894,0.268,paper
17.223174,0.502,0.54,-0.676,0.493,0.187,-0.85,-0.281,-0.49,0.825,0.36,-0.472,0.805,0.113,-0.567,0.816,0.252,-0.59,0.767,0.202,-0.786,0.584,0.0,0.0,0.0,0.0,0.0,0.0,0.459,-0.285,0.841,0.216,-0.454,0.864,0.4,-0.665,0.63,0.069,-0.801,0.595,rock
56.344833,0.544,0.415,-0.729,0.633,0.481,-0.607,-0.143,0.293,0.945,0.296,-0.382,0.876,0.379,-0.204,0.903,0.192,-0.691,0.697,-0.247,-0.657,0.712,0.0,0.0,0.0,0.0,0.0,0.0,0.367,-0.266,0.891,0.285,-0.026,0.958,0.278,-0.676,0.683,0.027,-0.357,0.934,scissors
11.667249,0.054,0.992,0.11,-0.121,-0.99,-0.07,-0.196,-0.892,0.407,0.703,-0.473,0.531,-0.666,0.423,-0.615,0.687,-0.227,0.69,-0.631,0.202,-0.749,0.771,-0.229,0.594,-0.707,0.164,-0.688,0.845,0.016,0.534,-0.772,-0.064,-0.632,0.823,0.436,0.365,-0.871,-0.353,-0.341,rock
28.399778,0.425,0.575,-0.699,-0.424,-0.589,0.688,-0.185,-0.562,0.806,0.405,-0.523,0.75,-0.388,0.562,-0.73,0.284,-0.532,0.798,-0.29,0.508,-0.811,0.0,0.0,0.0,0.0,0.0,0.0,0.512,-0.318,0.798,-0.514,0.339,-0.788,0.465,-0.659,0.592,-0.462,0.647,-0.607,scissors
3.700035,0.589,0.608,-0.532,0.941,-0.176,-0.289,-0.404,0.034,0.914,0.577,-0.346,0.74,-0.071,0.119,0.99,-0.002,-0.464,0.886,-0.3,-0.928,0.219,0.0,0.0,0.0,0.0,0.0,0.0,0.566,-0.035,0.824,-0.296,0.114,0.948,0.437,-0.409,0.801,-0.484,-0.462,0.743,rock
23.67773,0.647,0.46,-0.608,0.689,0.496,-0.528,-0.317,-0.226,0.921,0.353,-0.349,0.868,0.442,-0.239,0.865,0.104,-0.666,0.739,-0.21,-0.646,0.734,0.0,0.0,0.0,0.0,0.0,0.0,0.375,-0.174,0.911,0.342,0.0,0.94,0.267,-0.614,0.743,0.103,-0.431,0.896,paper
6.968777,-0.134,0.726,0.674,-0.079,0.743,0.664,0.359,-0.832,-0.423,0.792,-0.526,0.31,0.8,-0.533,0.276,0.976,-0.177,0.124,0.973,-0.18,0.144,0.911,0.061,0.409,0.898,0.018,0.44,0.903,0.078,0.422,0.861,0.045,0.507,0.032,0.906,0.422,-0.035,0.909,0.415,scissors
14.98771,0.616,0.595,-0.516,-0.536,-0.511,0.672,-0.286,-0.622,0.729,0.42,-0.303,0.856,-0.32,0.483,-0.815,0.038,-0.64,0.767,-0.221,0.613,-0.758,0.0,0.0,0.0,0.0,0.0,0.0,0.407,-0.092,0.909,-0.422,0.298,-0.856,0.274,-0.542,0.794,-0.345,0.664,-0.664,scissors
9.014712,-0.123,0.781,0.612,0.138,-0.368,-0.92,-0.331,-0.705,-0.627,0.757,-0.531,0.38,-0.869,0.391,-0.304,0.959,-0.198,0.2,-0.994,-0.079,0.079,0.918,-0.004,0.396,-0.722,-0.127,-0.68,0.917,0.018,0.398,-0.845,-0.0,-0.534,0.11,0.892,0.438,0.047,-0.793,-0.607,scissors
62.143521,0.377,0.492,-0.785,-0.332,0.48,0.812,0.187,0.171,0.967,0.309,-0.544,0.78,0.535,0.267,-0.802,0.351,-0.586,0.731,-0.499,0.866,0.033,0.0,0.0,0.0,0.0,0.0,0.0,0.45,-0.402,0.798,0.414,0.564,-0.715,0.416,-0.726,0.547,0.257,0.955,-0.147,paper
37.777223,0.454,0.523,-0.721,-0.426,-0.609,0.669,-0.556,-0.599,0.576,0.38,-0.454,0.806,-0.246,0.394,-0.886,0.23,-0.588,0.775,-0.451,0.551,-0.702,0.0,0.0,0.0,0.0,0.0,0.0,0.46,-0.274,0.845,-0.444,0.333,-0.832,0.393,-0.65,0.65,-0.521,0.677,-0.521,scissors
38.812766,0.5,0.541,-0.677,-0.544,-0.635,0.549,-0.782,-0.219,0.583,0.407,-0.439,0.801,-0.52,0.325,-0.79,0.219,-0.589,0.778,-0.005,0.517,-0.856,0.0,0.0,0.0,0.0,0.0,0.0,0.472,-0.275,0.838,-0.511,0.074,-0.856,0.398,-0.656,0.641,-0.376,0.452,-0.809,scissors
55.904714,0.488,0.452,-0.747,0.523,0.505,-0.686,-0.094,0.148,0.984,0.334,-0.414,0.847,0.418,-0.399,0.816,0.229,-0.648,0.727,-0.0,-0.629,0.777,0.0,0.0,0.0,0.0,0.0,0.0,0.421,-0.277,0.864,0.433,-0.18,0.883,0.347,-0.67,0.656,0.243,-0.542,0.804,rock
24.997857,0.573,0.413,-0.708,0.485,0.594,-0.642,-0.839,-0.124,0.529,0.277,-0.413,0.868,0.466,-0.502,0.729,0.201,-0.699,0.686,0.083,-0.533,0.842,0.0,0.0,0.0,0.0,0.0,0.0,0.32,-0.268,0.909,0.503,-0.228,0.834,0.243,-0.704,0.667,0.357,-0.559,0.749,scissors
13.866326,0.447,0.645,-0.62,-0.332,-0.166,-0.929,-0.153,-0.342,0.927,0.436,-0.472,0.766,-0.879,-0.426,0.213,0.25,-0.529,0.811,0.567,-0.597,-0.567,0.0,0.0,0.0,0.0,0.0,0.0,0.522,-0.262,0.811,-0.66,-0.743,0.11,0.466,-0.619,0.632,-0.539,-0.709,-0.454,rock
30.488923,0.042,0.878,0.478,-0.199,-0.708,-0.677,-0.561,-0.747,-0.356,0.634,-0.407,0.657,-0.811,0.232,-0.537,0.755,-0.303,0.582,-0.883,0.056,-0.467,0.78,-0.248,0.574,-0.904,0.111,-0.414,0.995,-0.095,0.006,-0.99,-0.064,0.128,0.278,0.926,0.255,-0.047,-0.879,-0.474,rock
17.636084,0.551,0.461,-0.696,0.101,0.404,0.909,-0.296,-0.485,0.823,0.311,-0.457,0.834,0.315,0.63,-0.709,0.24,-0.641,0.729,-0.878,0.439,-0.188,0.0,0.0,0.0,0.0,0.0,0.0,0.397,-0.292,0.87,-0.0,0.857,-0.514,0.332,-0.694,0.639,-0.415,0.899,0.138,paper
61.777876,0.416,0.449,-0.79,-0.992,-0.088,0.088,0.156,0.262,0.952,0.283,-0.507,0.814,-0.275,-0.549,-0.789,0.314,-0.63,0.71,0.611,0.652,-0.448,0.0,0.0,0.0,0.0,0.0,0.0,0.409,-0.377,0.831,0.0,-0.611,-0.791,0.362,-0.73,0.58,0.158,-0.039,-0.987,scissors
3.972498,0.046,0.833,0.552,0.254,-0.381,-0.889,0.499,-0.809,-0.312,0.709,-0.349,0.613,-0.667,0.477,-0.572,0.808,-0.21,0.551,-0.953,0.286,0.095,0.843,-0.2,0.498,-0.697,0.597,-0.398,0.996,-0.034,-0.081,-0.867,0.473,0.158,0.186,0.922,0.338,-0.512,-0.768,-0.384,rock
37.121921,0.091,0.809,0.581,0.183,0.913,-0.365,0.165,-0.946,-0.278,0.746,-0.302,0.594,-0.707,-0.0,-0.707,0.821,-0.15,0.551,-0.696,-0.174,0.696,0.867,-0.152,0.474,-0.667,0.667,0.333,0.995,0.02,-0.1,-0.743,0.557,0.371,0.167,0.901,0.399,-0.557,0.371,-0.743,rock
25.306775,0.477,0.554,-0.682,0.507,0.484,-0.714,-0.821,-0.254,0.511,0.375,-0.464,0.802,0.317,-0.493,0.81,0.244,-0.592,0.769,0.127,-0.66,0.741,0.0,0.0,0.0,0.0,0.0,0.0,0.453,-0.275,0.848,0.376,-0.296,0.878,0.399,-0.659,0.638,0.248,-0.661,0.708,scissors
33.964706,0.456,0.426,-0.781,0.52,0.551,-0.653,-0.705,-0.02,0.709,0.26,-0.524,0.811,0.361,-0.419,0.833,0.343,-0.63,0.697,0.1,-0.623,0.776,0.0,0.0,0.0,0.0,0.0,0.0,0.414,-0.409,0.813,0.448,-0.206,0.87,0.357,-0.773,0.525,0.304,-0.598,0.742,scissors
21.065864,0.382,0.502,-0.776,0.553,0.612,-0.565,-0.162,0.002,0.987,0.27,-0.594,0.758,0.544,-0.408,0.734,0.412,-0.576,0.706,-0.053,-0.504,0.862,0.0,0.0,0.0,0.0,0.0,0.0,0.433,-0.437,0.788,0.539,-0.108,0.835,0.422,-0.764,0.489,0.347,-0.458,0.819,paper
15.615083,0.7,0.28,-0.657,0.862,0.492,0.123,-0.589,-0.545,0.596,0.181,-0.306,0.935,0.903,0.169,0.395,0.117,-0.802,0.586,-0.76,-0.179,0.625,0.0,0.0,0.0,0.0,0.0,0.0,0.173,-0.221,0.96,0.521,0.521,0.677,0.057,-0.709,0.703,0.049,0.148,0.988,scissors
59.367862,0.413,0.45,-0.792,-0.546,0.833,0.086,-0.029,0.389,0.921,0.198,-0.598,0.776,0.661,-0.588,-0.465,0.431,-0.619,0.657,0.272,0.68,0.68,0.0,0.0,0.0,0.0,0.0,0.0,0.373,-0.522,0.767,0.921,-0.194,-0.339,0.358,-0.814,0.457,0.982,0.155,-0.103,scissors
21.822416,0.028,0.799,0.6,0.094,-0.795,-0.599,0.588,-0.629,-0.509,0.761,-0.349,0.547,-0.648,0.511,-0.565,0.853,-0.186,0.487,-0.828,0.377,-0.414,0.88,-0.219,0.422,-0.765,0.382,-0.519,0.985,-0.04,-0.166,-0.972,0.234,0.009,0.1,0.937,0.335,-0.176,-0.961,-0.213,rock
11.508623,-0.041,0.954,0.297,-0.168,0.673,0.721,0.234,-0.944,0.232,0.859,-0.04,-0.511,0.904,0.325,-0.278,0.76,0.163,0.629,0.306,0.517,0.799,0.836,-0.004,0.549,0.516,0.393,0.761,0.925,-0.122,0.359,0.603,0.337,0.723,0.886,0.043,0.461,0.44,0.357,0.824,paper
19.583321,0.513,0.494,-0.702,-0.814,0.581,0.0,-0.245,-0.543,0.803,0.314,-0.477,0.821,0.276,-0.276,-0.921,0.263,-0.63,0.731,-0.351,0.936,0.0,0.0,0.0,0.0,0.0,0.0,0.0,0.407,-0.31,0.859,0.549,-0.137,-0.824,0.347,-0.703,0.621,0.218,0.873,-0.436,paper
30.541874,0.604,0.419,-0.678,0.547,0.543,-0.637,-0.589,-0.666,0.458,0.292,-0.335,0.896,0.415,-0.424,0.805,0.125,-0.731,0.671,0.075,-0.599,0.797,0.0,0.0,0.0,0.0,0.0,0.0,0.297,-0.198,0.934,0.443,-0.191,0.876,0.194,-0.668,0.719,0.311,-0.575,0.757,rock
3.912384,-0.126,0.762,0.635,0.707,0.707,0.0,0.75,-0.599,-0.28,0.755,-0.543,0.366,-0.302,0.302,-0.905,0.967,-0.191,0.171,-0.873,0.436,0.218,0.915,0.005,0.403,-1.0,0.0,0.0,0.916,0.028,0.4,-0.68,0.272,0.68,0.087,0.893,0.442,-0.986,0.0,-0.164,scissors
59.603489,0.596,0.295,-0.747,0.521,-0.839,-0.159,-0.23,0.206,0.951,0.453,-0.226,0.863,-0.919,0.334,0.209,-0.097,-0.583,0.807,-0.159,-0.557,-0.815,0.0,0.0,0.0,0.0,0.0,0.0,0.469,0.061,0.881,-0.985,-0.038,0.17,0.321,-0.317,0.892,-0.973,-0.195,-0.124,scissors
3.853852,-0.026,0.948,0.316,-0.186,-0.983,-0.007,-0.65,-0.76,-0.011,0.781,-0.543,0.308,-0.677,0.373,-0.635,0.841,-0.209,0.499,-0.622,0.154,-0.768,0.869,-0.32,0.377,-0.712,0.115,-0.692,0.946,-0.089,0.313,-0.767,-0.115,-0.631,0.639,0.55,0.538,-0.885,-0.302,-0.355,rock
50.328333,0.515,0.349,-0.783,0.331,-0.745,-0.579,-0.005,0.077,0.997,0.174,-0.43,0.886,-0.926,-0.337,0.168,0.267,-0.73,0.629,0.142,-0.924,-0.355,0.0,0.0,0.0,0.0,0.0,0.0,0.264,-0.363,0.894,-0.943,-0.314,-0.105,0.189,-0.78,0.597,-0.845,-0.507,-0.169,scissors
1.330232,-0.15,0.75,0.644,0.371,0.557,0.743,0.75,-0.56,-0.352,0.755,-0.564,0.334,0.943,0.236,-0.236,0.967,-0.203,0.154,0.196,0.784,0.588,0.912,0.032,0.408,0.436,-0.218,0.873,0.916,0.056,0.396,-0.124,0.0,0.992,0.072,0.898,0.434,-0.816,0.408,0.408,scissors
24.371752,0.012,0.719,0.695,-0.171,0.941,0.291,0.42,-0.8,-0.429,0.812,-0.35,0.466,0.469,-0.625,0.625,0.901,-0.153,0.407,0.601,-0.526,0.601,0.913,-0.233,0.336,0.609,-0.4,0.685,0.967,-0.04,-0.252,0.938,-0.265,0.224,0.009,0.942,0.334,0.26,0.966,-0.0,rock
3.553337,-0.183,0.956,0.23,-0.174,0.979,0.11,-0.346,-0.858,-0.38,0.841,-0.074,-0.536,0.757,-0.25,-0.603,0.528,0.688,0.497,0.685,0.544,0.484,0.781,0.413,0.468,0.883,0.18,0.434,0.71,0.404,0.576,0.79,0.192,0.583,0.659,0.315,0.683,0.799,0.288,0.528,paper
4.073197,0.503,0.613,-0.609,0.618,-0.683,0.39,-0.426,0.079,0.901,0.405,-0.519,0.753,-0.76,0.611,-0.222,0.269,-0.54,0.798,-0.315,-0.088,-0.945,0.0,0.0,0.0,0.0,0.0,0.0,0.494,-0.302,0.816,-0.912,0.219,-0.347,0.444,-0.652,0.615,-0.877,0.263,-0.403,paper
25.216113,0.521,0.525,-0.673,0.436,0.445,-0.782,-0.816,-0.245,0.523,0.381,-0.447,0.81,0.27,-0.55,0.79,0.22,-0.593,0.774,0.198,-0.663,0.722,0.0,0.0,0.0,0.0,0.0,0.0,0.456,-0.255,0.853,0.371,-0.352,0.859,0.399,-0.642,0.655,0.253,-0.709,0.658,scissors
2.063503,0.146,0.958,0.248,-0.302,-0.302,0.905,-0.102,-0.984,0.144,0.926,-0.175,-0.333,-0.662,0.53,-0.53,0.654,0.163,0.739,-0.514,0.514,0.686,0.752,0.116,0.649,0.267,0.802,0.535,0.609,0.175,0.774,-0.456,0.684,0.57,0.775,-0.2,0.599,-0.937,0.312,-0.156,paper
2.95322,0.044,0.818,0.574,0.123,0.985,0.123,0.54,-0.781,-0.314,0.72,-0.354,0.596,0.667,-0.333,0.667,0.818,-0.206,0.538,0.0,-0.124,0.992,0.853,-0.2,0.482,0.557,0.371,0.743,0.995,-0.031,-0.098,0.371,0.743,0.557,0.164,0.923,0.348,-0.192,0.962,-0.192,rock
3.560081,-0.138,0.88,0.455,0.154,0.864,0.479,-0.468,-0.711,-0.524,0.769,-0.611,0.187,0.82,-0.493,0.292,0.949,-0.156,0.273,0.898,-0.052,0.437,0.723,0.368,0.585,0.652,0.164,0.74,0.583,0.472,0.661,0.371,0.354,0.858,0.16,0.982,0.096,0.239,0.937,0.256,scissors
25.81356,0.437,0.497,-0.75,0.556,0.366,-0.746,-0.713,-0.43,0.553,0.304,-0.531,0.791,0.291,-0.479,0.828,0.333,-0.604,0.724,0.101,-0.681,0.725,0.0,0.0,0.0,0.0,0.0,0.0,0.42,-0.371,0.829,0.337,-0.281,0.899,0.387,-0.734,0.558,0.19,-0.657,0.73,scissors
51.446438,0.468,0.352,-0.811,0.512,-0.768,-0.384,0.066,0.026,0.997,0.188,-0.45,0.873,-0.97,0.0,-0.243,0.284,-0.734,0.617,-0.318,-0.424,-0.848,0.0,0.0,0.0,0.0,0.0,0.0,0.286,-0.354,0.89,-0.97,-0.216,-0.108,0.232,-0.77,0.594,-0.98,0.089,-0.178,scissors
40.651012,0.368,0.258,-0.893,0.28,-0.935,0.218,-0.107,-0.354,0.929,0.117,-0.608,0.785,-0.671,0.722,0.17,0.468,-0.658,0.591,-0.486,-0.42,-0.766,0.0,0.0,0.0,0.0,0.0,0.0,0.297,-0.558,0.775,-0.942,0.326,0.077,0.295,-0.869,0.397,-0.989,0.148,-0.008,rock
3.933093,-0.106,0.952,0.289,-0.656,0.094,0.749,0.723,-0.68,0.121,0.856,0.066,-0.513,0.566,0.808,-0.162,0.732,0.249,0.634,-0.267,0.802,0.535,0.84,0.089,0.535,0.08,0.875,0.477,0.945,-0.035,0.325,0.121,0.787,0.605,0.887,0.105,0.449,-0.347,0.78,0.52,paper
16.940028,0.607,0.413,-0.679,0.47,0.448,-0.761,-0.388,-0.532,0.752,0.281,-0.394,0.875,0.275,-0.601,0.751,0.18,-0.701,0.69,0.147,-0.662,0.735,0.0,0.0,0.0,0.0,0.0,0.0,0.327,-0.248,0.912,0.369,-0.369,0.853,0.241,-0.688,0.684,0.194,-0.729,0.656,scissors
5.070583,0.699,0.319,-0.64,-0.703,-0.647,0.295,-0.487,-0.295,0.822,0.149,-0.433,0.889,-0.526,0.217,-0.823,0.244,-0.776,0.581,0.084,0.539,-0.838,0.0,0.0,0.0,0.0,0.0,0.0,0.19,-0.345,0.919,-0.464,-0.093,-0.881,0.116,-0.79,0.601,-0.319,0.344,-0.883,scissors
27.939014,0.41,0.768,-0.492,-0.574,-0.653,0.495,-0.199,-0.424,0.883,0.608,-0.412,0.678,-0.536,0.33,-0.777,0.135,-0.379,0.915,-0.036,0.486,-0.873,0.0,0.0,0.0,0.0,0.0,0.0,0.663,-0.112,0.741,-0.535,0.07,-0.842,0.592,-0.429,0.682,-0.424,0.45,-0.786,rock
1.162793,-0.149,0.755,0.639,0.64,0.426,0.64,0.81,-0.495,-0.315,0.754,-0.565,0.335,0.743,0.371,-0.557,0.968,-0.201,0.153,0.236,0.943,0.236,0.915,0.025,0.403,0.192,0.192,0.962,0.919,0.049,0.391,-0.212,0.212,0.954,0.072,0.899,0.433,-0.912,0.342,0.228,scissors
59.38938,0.392,0.465,-0.794,-0.546,0.833,0.086,-0.029,0.389,0.921,0.213,-0.593,0.776,0.709,-0.483,-0.513,0.425,-0.612,0.667,0.226,0.758,0.613,0.0,0.0,0.0,0.0,0.0,0.0,0.385,-0.509,0.77,0.902,-0.09,-0.421,0.371,-0.804,0.466,0.956,0.266,-0.125,paper
15.681142,0.679,0.342,-0.649,0.095,0.534,-0.84,-0.589,-0.545,0.596,0.196,-0.334,0.922,0.307,-0.826,0.472,0.139,-0.784,0.605,0.42,-0.445,0.791,0.0,0.0,0.0,0.0,0.0,0.0,0.202,-0.239,0.95,0.546,-0.569,0.615,0.098,-0.714,0.693,0.492,-0.763,0.419,paper
36.71447,0.43,0.512,-0.744,0.496,-0.865,0.071,-0.56,-0.532,0.635,0.344,-0.502,0.793,-0.678,0.649,0.346,0.297,-0.585,0.755,-0.472,-0.567,-0.675,0.0,0.0,0.0,0.0,0.0,0.0,0.453,-0.354,0.818,-0.926,0.281,0.253,0.404,-0.702,0.586,-0.994,0.027,0.106,scissors
20.082222,0.493,0.513,-0.703,0.451,0.557,-0.698,-0.187,-0.44,0.878,0.335,-0.482,0.81,0.374,-0.521,0.767,0.265,-0.613,0.744,0.144,-0.597,0.789,0.0,0.0,0.0,0.0,0.0,0.0,0.432,-0.308,0.848,0.446,-0.294,0.845,0.376,-0.692,0.616,0.315,-0.641,0.7,paper
15.83191,0.611,0.468,-0.639,0.425,0.587,-0.689,-0.561,-0.557,0.612,0.316,-0.386,0.867,0.438,-0.636,0.636,0.17,-0.676,0.717,0.154,-0.485,0.861,0.0,0.0,0.0,0.0,0.0,0.0,0.36,-0.231,0.904,0.569,-0.316,0.759,0.272,-0.666,0.695,0.42,-0.596,0.685,paper
45.925939,0.384,0.515,-0.767,-0.349,-0.465,0.814,-0.135,-0.51,0.849,0.357,-0.517,0.778,-0.241,0.402,-0.884,0.317,-0.563,0.763,-0.669,0.446,-0.595,0.0,0.0,0.0,0.0,0.0,0.0,0.49,-0.352,0.798,-0.488,0.39,-0.781,0.441,-0.694,0.57,-0.614,0.69,-0.383,paper
59.032587,0.464,0.466,-0.753,-0.812,0.534,0.235,-0.284,0.255,0.924,0.28,-0.365,0.888,0.459,-0.379,-0.804,0.182,-0.71,0.68,0.297,0.925,0.237,0.0,0.0,0.0,0.0,0.0,0.0,0.341,-0.227,0.912,0.633,-0.119,-0.765,0.245,-0.665,0.705,0.772,0.367,-0.519,scissors
3.552813,-0.208,0.932,0.296,-0.061,0.977,0.202,-0.436,-0.849,-0.299,0.796,-0.077,-0.6,0.798,-0.192,-0.572,0.564,0.703,0.434,0.622,0.568,0.538,0.812,0.428,0.396,0.837,0.225,0.499,0.747,0.43,0.507,0.738,0.233,0.634,0.66,0.375,0.651,0.735,0.252,0.629,paper
18.343181,0.559,0.471,-0.682,-0.981,-0.0,0.196,-0.329,-0.437,0.837,0.305,-0.432,0.849,-0.083,0.0,-0.997,0.224,-0.658,0.718,-0.39,0.781,-0.488,0.0,0.0,0.0,0.0,0.0,0.0,0.38,-0.274,0.883,-0.11,0.11,-0.988,0.309,-0.69,0.654,-0.309,0.722,-0.619,rock
21.130952,0.443,0.429,-0.787,0.448,0.752,-0.484,-0.246,-0.058,0.968,0.234,-0.537,0.81,0.683,-0.405,0.607,0.365,-0.642,0.674,-0.15,-0.35,0.925,0.0,0.0,0.0,0.0,0.0,0.0,0.367,-0.406,0.837,0.669,-0.0,0.743,0.341,-0.777,0.53,0.439,-0.284,0.852,paper
7.123484,-0.01,1.0,-0.029,-0.314,0.943,0.105,0.048,-0.888,-0.458,0.761,-0.471,-0.446,0.631,-0.188,-0.752,0.774,0.326,0.543,0.685,0.657,0.315,0.904,-0.036,0.426,0.909,0.322,0.266,0.849,-0.047,0.526,0.808,0.346,0.476,0.903,0.094,0.419,0.723,0.517,0.458,paper
3.896265,-0.189,0.908,0.375,-0.033,-0.892,-0.451,-0.49,-0.872,-0.011,0.651,-0.759,0.02,-0.766,0.6,-0.232,0.923,-0.362,0.131,-0.94,0.135,-0.314,0.923,0.369,0.107,-0.837,-0.266,-0.478,0.807,0.463,0.367,-0.652,-0.293,-0.699,0.128,0.988,0.09,-0.166,-0.902,-0.398,scissors
62.254931,0.363,0.507,-0.782,-0.691,0.691,0.21,0.174,0.184,0.967,0.324,-0.552,0.768,0.582,-0.276,-0.765,0.353,-0.567,0.744,-0.0,0.952,0.306,0.0,0.0,0.0,0.0,0.0,0.0,0.474,-0.398,0.785,0.706,0.067,-0.706,0.439,-0.712,0.547,0.745,0.596,-0.298,scissors
9.716326,-0.057,0.944,0.323,0.406,0.692,-0.597,0.487,-0.868,0.097,0.865,-0.0,-0.502,0.123,-0.638,-0.76,0.744,0.194,0.639,0.783,-0.621,0.0,0.832,0.031,0.553,0.69,-0.716,-0.106,0.93,-0.099,0.354,0.495,-0.845,-0.204,0.882,0.062,0.468,0.816,-0.421,-0.395,paper
23.351574,0.6,0.51,-0.617,-0.407,-0.553,0.727,-0.253,-0.194,0.948,0.392,-0.387,0.835,-0.256,0.64,-0.725,0.134,-0.619,0.774,-0.595,0.437,-0.675,0.0,0.0,0.0,0.0,0.0,0.0,0.429,-0.187,0.884,-0.512,0.559,-0.652,0.332,-0.605,0.723,-0.632,0.716,-0.295,rock
5.438871,-0.136,0.799,0.585,0.491,0.552,0.674,0.692,-0.651,-0.313,0.727,-0.557,0.401,0.964,0.148,0.222,0.949,-0.224,0.222,0.707,0.566,0.424,0.926,-0.011,0.377,0.436,-0.218,0.873,0.93,0.016,0.368,0.173,-0.115,0.978,0.138,0.887,0.44,-0.485,0.485,0.728,scissors
1.047108,-0.053,0.998,-0.034,-0.287,0.924,-0.255,0.248,-0.91,0.333,0.402,-0.675,0.619,0.215,-0.837,0.502,0.641,-0.497,0.585,0.511,-0.674,0.534,0.632,-0.457,0.626,0.513,-0.607,0.607,0.851,-0.024,0.524,0.767,-0.173,0.618,0.756,0.612,0.232,0.659,0.753,-0.0,rock
50.742392,0.467,0.358,-0.809,-0.381,-0.889,-0.254,0.018,0.11,0.994,0.195,-0.48,0.855,-0.707,-0.0,-0.707,0.306,-0.689,0.657,-0.981,0.163,-0.109,0.0,0.0,0.0,0.0,0.0,0.0,0.306,-0.392,0.868,-0.662,-0.53,-0.53,0.255,-0.791,0.556,-0.868,0.0,-0.496,paper
3.996283,0.522,0.67,-0.527,0.618,-0.683,0.39,-0.482,0.043,0.875,0.543,-0.392,0.743,-0.492,0.87,0.038,0.081,-0.484,0.871,-0.685,-0.249,-0.685,0.0,0.0,0.0,0.0,0.0,0.0,0.56,-0.088,0.824,-0.887,0.461,0.035,0.457,-0.455,0.764,-0.954,0.298,0.03,paper
17.338186,-0.003,0.997,-0.08,0.272,0.595,0.756,-0.207,-0.965,0.159,0.732,-0.182,-0.656,0.997,-0.075,0.012,0.84,0.25,0.481,0.27,0.341,0.901,0.891,0.152,0.428,0.363,0.275,0.89,0.773,0.267,0.576,0.14,0.252,0.958,0.893,-0.024,0.449,0.356,-0.235,0.905,paper
51.270734,0.436,0.41,-0.801,-0.208,-0.138,0.968,0.068,0.056,0.996,0.234,-0.487,0.842,0.123,0.492,-0.862,0.318,-0.681,0.66,-0.597,0.706,-0.38,0.0,0.0,0.0,0.0,0.0,0.0,0.357,-0.371,0.857,-0.127,0.635,-0.762,0.321,-0.756,0.57,-0.252,0.956,-0.151,rock
2.913893,-0.111,0.954,0.278,0.535,-0.267,-0.802,0.771,-0.63,0.094,0.83,0.08,-0.552,-0.667,-0.667,-0.333,0.764,0.256,0.592,-0.845,-0.507,0.169,0.874,0.078,0.48,-0.816,-0.408,-0.408,0.963,-0.045,0.266,-0.963,0.12,0.241,0.904,0.129,0.407,-0.83,-0.207,-0.518,paper
35.327502,0.519,0.608,-0.602,-0.146,0.699,-0.699,-0.659,-0.619,0.427,0.448,-0.373,0.812,0.407,-0.902,-0.142,0.145,-0.568,0.81,0.626,0.235,0.744,0.0,0.0,0.0,0.0,0.0,0.0,0.491,-0.176,0.853,0.801,-0.596,-0.056,0.396,-0.572,0.718,0.914,-0.397,-0.079,paper
2.001057,-0.15,0.961,0.234,-0.138,0.92,0.366,-0.477,-0.879,-0.021,0.617,-0.752,0.232,0.655,-0.738,0.166,0.874,-0.334,0.353,0.901,-0.297,0.316,0.941,0.244,0.233,0.915,0.244,0.322,0.811,0.349,0.47,0.733,0.325,0.598,0.304,0.93,0.205,0.189,0.955,0.231,scissors
35.593144,0.087,0.829,0.553,-0.376,-0.847,0.376,0.164,-0.944,-0.286,0.724,-0.311,0.616,-0.042,-0.042,-0.998,0.804,-0.164,0.571,-0.214,0.161,-0.964,0.86,-0.145,0.49,-0.228,-0.182,-0.957,0.995,0.027,-0.093,-0.727,-0.091,-0.681,0.206,0.896,0.393,-0.861,-0.196,-0.47,rock
7.125481,0.037,0.999,-0.009,-0.315,-0.948,-0.043,-0.415,-0.863,0.286,0.831,-0.047,-0.554,-0.794,0.349,0.497,0.826,0.281,0.489,-0.777,0.021,-0.63,0.914,0.129,0.384,-0.762,0.122,-0.636,0.837,0.219,0.501,-0.645,0.048,-0.762,0.959,-0.081,0.271,-0.811,0.338,-0.477,paper
13.688242,0.018,0.953,0.302,0.796,0.428,-0.428,-0.457,-0.886,-0.077,0.875,-0.103,-0.472,0.426,-0.669,-0.609,0.744,0.107,0.66,0.408,-0.816,0.408,0.814,-0.072,0.577,0.402,-0.884,0.241,0.899,-0.169,0.404,0.116,-0.93,0.349,0.878,-0.029,0.478,0.199,-0.896,-0.398,paper
20.063298,0.512,0.481,-0.712,0.439,0.555,-0.707,-0.21,-0.488,0.848,0.314,-0.492,0.812,0.366,-0.563,0.741,0.274,-0.619,0.736,0.186,-0.567,0.802,0.0,0.0,0.0,0.0,0.0,0.0,0.419,-0.325,0.848,0.472,-0.327,0.819,0.365,-0.704,0.609,0.357,-0.645,0.675,scissors
43.397331,0.466,0.475,-0.746,0.481,0.144,-0.865,-0.274,-0.525,0.806,0.352,-0.441,0.825,-0.0,-0.581,0.814,0.238,-0.612,0.754,0.059,-0.881,0.47,0.0,0.0,0.0,0.0,0.0,0.0,0.45,-0.281,0.848,0.054,-0.49,0.87,0.377,-0.667,0.643,-0.219,-0.767,0.603,rock
4.454177,0.577,0.63,-0.52,-0.091,0.454,0.886,-0.353,0.004,0.936,0.484,-0.391,0.783,0.488,0.581,-0.651,0.086,-0.54,0.837,-0.728,0.682,-0.068,0.0,0.0,0.0,0.0,0.0,0.0,0.508,-0.113,0.854,0.199,0.796,-0.572,0.399,-0.501,0.768,-0.024,0.999,0.048,paper
17.717454,0.545,0.479,-0.688,0.419,0.349,0.838,-0.309,-0.469,0.828,0.312,-0.455,0.834,0.524,0.786,-0.328,0.244,-0.64,0.729,-0.97,0.243,-0.0,0.0,0.0,0.0,0.0,0.0,0.0,0.398,-0.295,0.869,0.062,0.996,-0.062,0.335,-0.697,0.634,-0.372,0.796,0.478,rock
21.823472,0.037,0.827,0.561,0.097,-0.813,-0.574,0.561,-0.659,-0.501,0.728,-0.358,0.584,-0.629,0.503,-0.593,0.825,-0.21,0.526,-0.815,0.371,-0.444,0.854,-0.217,0.472,-0.753,0.367,-0.547,0.993,-0.046,-0.112,-0.973,0.23,-0.018,0.159,0.934,0.321,-0.21,-0.957,-0.201,rock
38.245882,0.268,0.62,-0.738,-0.725,-0.363,0.585,-0.669,-0.618,0.412,0.442,-0.568,0.694,-0.317,0.178,-0.932,0.35,-0.467,0.812,0.071,0.731,-0.679,0.0,0.0,0.0,0.0,0.0,0.0,0.582,-0.339,0.739,-0.259,0.052,-0.965,0.544,-0.642,0.54,-0.106,0.522,-0.846,paper
16.815736,0.29,0.957,-0.011,0.073,0.879,0.471,-0.099,-0.834,-0.543,0.658,-0.391,-0.644,0.926,-0.01,-0.377,0.883,-0.032,0.468,0.587,0.363,0.723,0.877,-0.17,0.449,0.66,0.274,0.699,0.763,-0.063,0.644,0.447,0.329,0.832,0.839,-0.304,0.452,0.696,-0.085,0.713,paper
34.646307,0.475,0.519,-0.711,0.511,0.608,-0.608,-0.797,-0.433,0.421,0.389,-0.42,0.82,0.499,-0.426,0.755,0.204,-0.603,0.771,0.042,-0.519,0.854,0.0,0.0,0.0,0.0,0.0,0.0,0.459,-0.234,0.857,0.53,-0.161,0.833,0.374,-0.636,0.675,0.367,-0.513,0.776,paper
15.681142,0.679,0.342,-0.649,0.095,0.534,-0.84,-0.589,-0.545,0.596,0.196,-0.334,0.922,0.307,-0.826,0.472,0.139,-0.784,0.605,0.42,-0.445,0.791,0.0,0.0,0.0,0.0,0.0,0.0,0.202,-0.239,0.95,0.546,-0.569,0.615,0.098,-0.714,0.693,0.492,-0.763,0.419,rock
6.021374,0.382,0.881,-0.28,0.435,0.512,-0.741,-0.562,-0.31,0.767,0.768,-0.318,0.556,0.113,-0.433,0.894,-0.01,-0.207,0.978,0.14,-0.822,0.551,0.0,0.0,0.0,0.0,0.0,0.0,0.766,0.071,0.639,0.123,-0.322,0.939,0.659,-0.189,0.728,-0.02,-0.75,0.661,scissors
55.296767,0.521,0.411,-0.748,0.378,0.344,-0.86,-0.055,0.061,0.997,0.294,-0.41,0.863,0.228,-0.608,0.76,0.229,-0.682,0.695,0.147,-0.735,0.662,0.0,0.0,0.0,0.0,0.0,0.0,0.375,-0.291,0.88,0.344,-0.447,0.826,0.296,-0.697,0.653,0.147,-0.735,0.662,paper
16.325966,0.22,0.953,0.208,0.238,0.889,0.391,-0.304,-0.792,-0.529,0.849,-0.31,-0.428,0.926,-0.153,-0.345,0.744,0.072,0.665,0.565,0.228,0.793,0.788,-0.03,0.615,0.632,0.147,0.761,0.66,0.05,0.749,0.424,0.206,0.882,0.815,-0.252,0.522,0.681,-0.198,0.705,paper
12.839067,0.521,0.521,-0.676,0.272,0.707,-0.653,-0.212,-0.182,0.96,0.356,-0.449,0.82,0.894,-0.358,0.268,0.222,-0.61,0.761,-0.574,-0.215,0.79,0.0,0.0,0.0,0.0,0.0,0.0,0.44,-0.263,0.859,0.777,0.173,0.605,0.375,-0.656,0.656,0.179,-0.0,0.984,paper
18.496822,0.541,0.5,-0.677,-0.56,-0.611,-0.56,-0.39,-0.448,0.804,0.333,-0.455,0.826,-0.691,-0.425,-0.585,0.241,-0.623,0.744,0.493,0.211,-0.844,0.0,0.0,0.0,0.0,0.0,0.0,0.423,-0.288,0.859,-0.426,-0.669,-0.609,0.362,-0.682,0.636,-0.365,-0.183,-0.913,scissors
34.62536,0.469,0.533,-0.705,0.491,0.632,-0.6,-0.797,-0.433,0.421,0.396,-0.43,0.811,0.518,-0.426,0.742,0.213,-0.59,0.779,0.045,-0.502,0.864,0.0,0.0,0.0,0.0,0.0,0.0,0.474,-0.24,0.847,0.546,-0.158,0.822,0.393,-0.632,0.668,0.387,-0.502,0.773,paper
11.421919,-0.037,0.999,0.015,0.035,-0.981,-0.19,-0.386,-0.827,0.409,0.593,-0.557,0.582,-0.664,0.55,-0.506,0.612,-0.37,0.699,-0.711,0.302,-0.635,0.66,-0.332,0.674,-0.73,0.306,-0.612,0.757,-0.1,0.645,-0.814,0.079,-0.576,0.843,0.504,0.188,-0.783,-0.506,-0.361,rock
16.091512,0.609,0.441,-0.659,0.613,0.226,-0.758,-0.515,-0.569,0.641,0.277,-0.387,0.88,0.084,-0.405,0.911,0.175,-0.707,0.685,0.064,-0.854,0.516,0.0,0.0,0.0,0.0,0.0,0.0,0.315,-0.252,0.915,0.112,-0.319,0.941,0.224,-0.696,0.682,-0.065,-0.745,0.664,rock
15.247547,0.148,0.986,0.078,0.107,0.982,0.155,-0.125,-0.945,-0.304,0.753,-0.373,0.542,0.746,-0.455,0.487,0.681,-0.112,0.724,0.69,-0.176,0.702,0.801,-0.116,0.587,0.785,-0.179,0.593,0.85,0.125,0.512,0.815,0.076,0.575,0.844,0.348,0.408,0.79,0.443,0.424,rock
29.411295,0.665,0.424,-0.615,-0.613,-0.645,0.456,-0.632,-0.688,0.356,0.387,-0.301,0.872,-0.536,0.327,-0.779,0.045,-0.65,0.759,-0.034,0.497,-0.867,0.0,0.0,0.0,0.0,0.0,0.0,0.387,-0.112,0.915,-0.536,0.068,-0.842,0.276,-0.557,0.783,-0.428,0.445,-0.787,paper
53.830257,0.432,0.398,-0.809,-0.513,0.854,0.085,0.122,0.087,0.989,0.258,-0.483,0.837,0.466,-0.28,-0.839,0.319,-0.662,0.678,-0.465,0.814,0.349,0.0,0.0,0.0,0.0,0.0,0.0,0.384,-0.375,0.844,0.772,0.154,-0.617,0.336,-0.748,0.573,0.447,0.894,0.0,rock
58.904002,0.424,0.408,-0.808,-0.508,0.803,0.311,-0.099,0.387,0.917,0.186,-0.533,0.825,0.752,-0.16,-0.64,0.368,-0.673,0.641,-0.08,0.898,0.433,0.0,0.0,0.0,0.0,0.0,0.0,0.327,-0.464,0.824,0.855,0.154,-0.496,0.294,-0.807,0.512,0.823,0.561,-0.088,scissors
18.629196,0.093,0.987,0.13,-0.766,0.418,0.488,-0.266,-0.873,0.408,0.733,-0.422,0.533,-0.0,-0.88,-0.474,0.689,-0.163,0.706,0.341,-0.936,-0.085,0.795,-0.168,0.582,0.164,-0.983,-0.082,0.857,0.073,0.51,0.108,-0.97,0.216,0.826,0.387,0.409,-0.395,0.903,-0.169,rock
3.45842,0.052,0.816,0.575,-0.688,0.229,0.688,0.506,-0.809,-0.301,0.722,-0.352,0.596,0.156,-0.312,-0.937,0.817,-0.203,0.539,-0.0,-0.707,-0.707,0.854,-0.198,0.48,0.236,-0.236,-0.943,0.995,-0.026,-0.1,-0.557,0.371,-0.743,0.165,0.922,0.351,-0.816,0.408,-0.408,rock
1.544858,0.663,0.35,-0.662,-0.659,0.061,0.75,-0.224,-0.277,0.934,0.142,-0.354,0.924,0.144,0.36,-0.922,0.136,-0.826,0.547,-0.265,0.897,-0.353,0.0,0.0,0.0,0.0,0.0,0.0,0.131,-0.211,0.969,0.061,0.379,-0.924,-0.005,-0.719,0.695,0.109,0.841,-0.53,rock
6.620742,-0.153,0.683,0.715,-0.059,-0.91,-0.411,-0.032,-0.986,-0.163,0.884,-0.467,0.002,-0.712,0.548,-0.438,0.981,0.072,0.183,-0.878,0.266,-0.399,0.467,0.558,0.686,-0.744,-0.08,-0.664,0.218,0.645,0.732,-0.618,-0.173,-0.767,-0.049,0.953,0.299,-0.513,-0.837,-0.189,scissors
19.735221,0.55,0.459,-0.697,-0.272,0.68,-0.68,-0.271,-0.497,0.825,0.297,-0.447,0.844,0.233,-0.854,0.466,0.232,-0.66,0.714,0.087,-0.612,0.786,0.0,0.0,0.0,0.0,0.0,0.0,0.373,-0.291,0.881,0.424,-0.566,0.707,0.302,-0.703,0.644,0.154,-0.772,0.617,paper
22.842682,0.04,0.82,0.571,0.0,-0.53,-0.848,0.582,-0.426,-0.693,0.713,-0.353,0.605,-0.537,0.716,-0.447,0.809,-0.215,0.546,-0.867,0.473,0.158,0.845,-0.206,0.494,-0.579,0.745,-0.331,0.995,-0.034,-0.089,-0.766,0.627,0.139,0.188,0.926,0.328,-0.496,-0.868,-0.0,rock
56.499437,0.505,0.456,-0.733,-0.411,0.523,-0.747,-0.234,0.316,0.919,0.332,-0.406,0.852,0.0,-0.986,0.164,0.198,-0.648,0.736,0.707,-0.0,0.707,0.0,0.0,0.0,0.0,0.0,0.0,0.417,-0.271,0.868,0.27,-0.757,0.595,0.336,-0.66,0.672,0.358,-0.894,0.268,scissors
9.162469,-0.061,0.973,0.223,-0.099,-0.952,-0.289,-0.034,-0.976,0.214,0.865,-0.2,-0.46,-0.902,0.202,0.381,0.588,0.571,0.573,-0.565,-0.527,-0.634,0.803,0.273,0.53,-0.744,-0.195,-0.639,0.719,0.264,0.642,-0.656,-0.158,-0.738,0.714,0.219,0.665,-0.697,-0.132,-0.705,paper
13.262011,-0.02,1.0,0.014,0.447,-0.851,0.277,0.137,-0.941,0.309,0.656,-0.48,0.583,-0.136,0.707,-0.694,0.633,-0.266,0.727,-0.309,0.722,-0.619,0.713,-0.25,0.655,-0.234,0.531,-0.815,0.793,-0.025,0.609,-0.404,0.379,-0.832,0.834,0.472,0.286,-0.776,-0.597,0.203,rock
4.841787,-0.159,0.954,0.255,0.009,-0.96,-0.279,0.445,-0.793,-0.416,0.6,-0.77,0.216,-0.642,0.69,-0.334,0.862,-0.367,0.35,-0.87,0.241,-0.431,0.962,0.187,0.199,-0.903,-0.117,-0.415,0.854,0.293,0.43,-0.755,-0.164,-0.634,0.311,0.937,0.161,-0.33,-0.881,-0.339,scissors
17.087709,0.544,0.493,-0.679,0.563,0.219,-0.797,-0.372,-0.547,0.75,0.337,-0.434,0.835,0.034,-0.507,0.861,0.212,-0.638,0.74,0.184,-0.835,0.518,0.0,0.0,0.0,0.0,0.0,0.0,0.402,-0.263,0.877,0.13,-0.424,0.896,0.33,-0.673,0.662,-0.017,-0.808,0.589,rock
20.802351,0.041,0.764,0.644,-0.504,-0.42,-0.755,0.583,-0.704,-0.407,0.777,-0.346,0.526,-0.767,-0.064,-0.639,0.865,-0.172,0.472,-0.927,-0.265,-0.265,0.892,-0.214,0.398,-0.931,-0.072,-0.358,0.981,-0.029,-0.19,-0.972,-0.13,0.194,0.076,0.935,0.347,-0.277,-0.484,-0.83,rock
10.079117,-0.088,0.965,0.248,0.119,0.951,0.285,-0.625,-0.777,0.078,0.695,-0.589,0.413,0.773,-0.526,0.354,0.764,-0.299,0.571,0.773,-0.206,0.6,0.806,-0.345,0.481,0.826,-0.262,0.499,0.905,-0.104,0.413,0.87,-0.0,0.493,0.701,0.549,0.454,0.702,0.524,0.482,rock
45.815585,0.405,0.507,-0.761,-0.885,-0.147,-0.442,-0.14,-0.461,0.876,0.367,-0.495,0.787,-0.444,-0.111,-0.889,0.292,-0.565,0.771,-0.349,0.465,-0.814,0.0,0.0,0.0,0.0,0.0,0.0,0.492,-0.325,0.808,-0.535,-0.267,-0.802,0.434,-0.678,0.594,-0.717,0.359,-0.598,paper
19.272537,0.08,0.76,0.645,-0.577,-0.577,-0.577,0.426,-0.811,-0.402,0.784,-0.309,0.539,-0.164,0.0,-0.986,0.862,-0.134,0.489,-0.905,0.302,0.302,0.9,-0.174,0.401,-0.302,0.302,-0.905,0.983,0.011,-0.184,-0.845,0.507,-0.169,0.081,0.918,0.389,-0.862,0.123,-0.492,rock
41.521272,0.459,0.387,-0.8,-0.489,0.872,-0.035,-0.441,-0.527,0.726,0.336,-0.42,0.843,0.776,-0.573,-0.264,0.219,-0.635,0.741,0.249,0.526,0.813,0.0,0.0,0.0,0.0,0.0,0.0,0.439,-0.255,0.861,0.974,-0.188,-0.125,0.366,-0.666,0.65,0.994,0.038,0.104,scissors
9.672546,-0.069,0.984,0.164,0.015,0.974,0.225,0.18,-0.957,0.226,0.836,-0.289,-0.467,0.84,-0.218,-0.498,0.656,0.5,0.566,0.555,0.539,0.634,0.846,0.179,0.502,0.781,0.207,0.59,0.771,0.167,0.614,0.625,0.208,0.753,0.779,0.202,0.594,0.683,0.205,0.701,paper
6.966726,-0.125,0.721,0.682,-0.308,0.6,0.738,0.547,-0.76,-0.351,0.801,-0.508,0.316,0.753,-0.657,0.016,0.98,-0.148,0.134,0.963,-0.249,-0.1,0.895,0.053,0.443,0.892,0.261,0.369,0.89,0.067,0.451,0.816,0.314,0.486,0.022,0.893,0.45,-0.215,0.953,0.215,scissors
35.211753,0.494,0.499,-0.711,0.379,0.801,-0.464,-0.65,-0.561,0.513,0.336,-0.446,0.83,0.655,-0.534,0.534,0.242,-0.628,0.74,-0.024,-0.33,0.944,0.0,0.0,0.0,0.0,0.0,0.0,0.412,-0.293,0.862,0.695,-0.185,0.695,0.339,-0.689,0.64,0.505,-0.433,0.746,paper
5.499062,0.004,0.907,0.421,0.286,-0.429,-0.857,0.638,-0.701,-0.319,0.595,-0.385,0.705,-0.784,0.598,-0.165,0.71,-0.292,0.64,-0.94,0.333,0.078,0.754,-0.205,0.625,-0.789,0.607,-0.101,0.996,-0.06,0.068,-0.81,0.424,0.405,0.339,0.893,0.295,0.226,-0.973,-0.045,rock
0.032603,-0.103,0.941,0.323,0.995,-0.052,0.087,0.747,-0.662,0.053,0.861,0.156,-0.484,0.131,-0.919,0.372,0.69,0.281,0.667,-0.267,-0.877,0.4,0.813,0.13,0.568,-0.289,-0.867,0.405,0.957,-0.074,0.281,-0.408,-0.795,0.449,0.83,-0.166,0.533,-0.597,-0.702,0.388,paper
60.204511,0.4,0.348,-0.848,0.544,-0.834,-0.089,0.086,0.384,0.919,0.131,-0.619,0.774,-0.696,0.484,0.531,0.466,-0.644,0.607,-0.372,-0.755,-0.541,0.0,0.0,0.0,0.0,0.0,0.0,0.317,-0.564,0.763,-0.875,0.106,0.473,0.317,-0.854,0.412,-0.951,-0.213,0.224,rock
44.993216,0.414,0.5,-0.761,0.574,0.503,-0.646,-0.178,-0.488,0.855,0.364,-0.494,0.79,0.444,-0.444,0.778,0.293,-0.57,0.768,-0.451,-0.631,0.631,0.0,0.0,0.0,0.0,0.0,0.0,0.485,-0.329,0.81,0.37,-0.092,0.925,0.427,-0.684,0.592,-0.183,-0.365,0.913,paper
57.780154,0.553,0.437,-0.709,0.784,0.196,-0.588,-0.398,0.243,0.885,0.287,-0.405,0.868,0.577,0.577,0.577,0.202,-0.681,0.704,-0.936,-0.351,-0.0,0.0,0.0,0.0,0.0,0.0,0.0,0.361,-0.287,0.887,-0.436,0.218,0.873,0.276,-0.685,0.674,-0.762,0.127,0.635,paper
10.569695,0.518,0.6,-0.61,0.829,-0.092,-0.552,-0.149,-0.241,0.959,0.436,-0.452,0.778,-0.566,0.424,0.707,0.197,-0.548,0.813,-0.596,-0.745,-0.298,0.0,0.0,0.0,0.0,0.0,0.0,0.501,-0.221,0.837,-0.755,0.108,0.647,0.431,-0.598,0.676,-0.899,-0.225,0.375,scissors
13.087344,-0.204,0.719,0.664,0.38,0.633,-0.675,0.784,-0.143,-0.604,0.789,-0.548,0.278,-0.628,-0.097,0.772,0.973,-0.207,0.106,-0.438,-0.199,0.877,0.917,0.094,0.389,0.136,-0.904,-0.407,0.906,0.121,0.406,0.0,-0.905,-0.426,0.037,0.927,0.373,0.976,-0.183,0.122,scissors
10.091401,-0.016,0.68,0.733,0.246,0.853,0.461,0.532,-0.735,-0.42,0.824,-0.381,0.419,0.686,-0.243,0.686,0.92,-0.168,0.355,0.734,-0.122,0.668,0.92,-0.272,0.282,0.811,-0.049,0.584,0.949,-0.073,-0.308,0.99,0.116,0.083,-0.053,0.952,0.301,0.186,0.88,0.436,rock
2.074773,-0.298,0.945,0.136,-0.167,0.969,0.181,-0.414,-0.853,0.318,0.436,-0.827,0.356,0.476,-0.778,0.411,0.778,-0.546,0.311,0.775,-0.489,0.4,0.717,-0.601,0.353,0.731,-0.509,0.454,0.962,-0.142,0.235,0.924,-0.02,0.382,0.537,0.833,0.132,0.526,0.814,0.248,rock
14.63757,-0.139,0.958,0.25,0.602,-0.301,-0.739,-0.066,-0.983,0.172,0.832,-0.008,-0.555,-0.883,-0.347,0.315,0.795,0.211,0.569,-0.66,-0.517,-0.545,0.878,0.032,0.478,-0.726,-0.307,-0.615,0.956,-0.061,0.286,-0.921,-0.14,-0.363,0.906,0.153,0.395,-0.745,-0.308,-0.591,paper
25.346189,0.493,0.528,-0.692,0.482,0.495,-0.723,-0.821,-0.254,0.511,0.365,-0.469,0.804,0.321,-0.513,0.796,0.248,-0.597,0.763,0.14,-0.648,0.749,0.0,0.0,0.0,0.0,0.0,0.0,0.445,-0.282,0.85,0.391,-0.302,0.869,0.393,-0.665,0.635,0.26,-0.663,0.702,rock
5.589712,0.008,0.999,-0.039,0.246,-0.909,-0.335,0.018,-0.996,0.086,0.59,-0.496,0.637,-0.545,0.574,-0.611,0.552,-0.334,0.764,-0.618,0.386,-0.685,0.616,-0.267,0.741,-0.619,0.328,-0.713,0.694,-0.041,0.718,-0.726,0.113,-0.679,0.894,0.431,0.124,-0.846,-0.484,-0.223,rock
9.162322,-0.057,0.97,0.235,-0.072,-0.964,-0.255,-0.034,-0.976,0.214,0.867,-0.194,-0.458,-0.907,0.229,0.355,0.579,0.577,0.576,-0.563,-0.501,-0.657,0.795,0.285,0.536,-0.734,-0.168,-0.658,0.71,0.273,0.65,-0.65,-0.13,-0.749,0.706,0.217,0.675,-0.703,-0.105,-0.703,paper
59.494684,0.399,0.428,-0.811,-0.598,0.741,0.304,-0.139,0.315,0.939,0.276,-0.474,0.836,0.655,-0.342,-0.674,0.283,-0.654,0.702,0.151,0.888,0.434,0.0,0.0,0.0,0.0,0.0,0.0,0.389,-0.336,0.858,0.809,0.03,-0.587,0.332,-0.719,0.611,0.878,0.412,-0.243,scissors
6.474905,-0.112,0.714,0.691,-0.316,0.721,0.616,0.547,-0.76,-0.351,0.81,-0.485,0.33,0.685,-0.715,0.137,0.982,-0.122,0.146,0.923,-0.384,0.031,0.881,0.053,0.47,0.954,0.151,0.258,0.877,0.066,0.476,0.89,0.234,0.39,0.014,0.878,0.479,-0.059,0.979,0.193,scissors
8.648295,0.45,0.56,-0.696,-0.654,0.654,-0.381,0.06,-0.277,0.959,0.342,-0.568,0.748,0.931,-0.355,-0.089,0.334,-0.547,0.768,-0.327,0.327,0.887,0.0,0.0,0.0,0.0,0.0,0.0,0.471,-0.373,0.799,0.964,0.138,0.229,0.443,-0.703,0.557,0.717,0.205,0.666,paper
61.456533,0.394,0.419,-0.818,0.0,0.868,0.496,0.192,0.345,0.919,0.212,-0.543,0.812,0.844,0.13,-0.52,0.376,-0.656,0.655,-0.645,0.645,0.41,0.0,0.0,0.0,0.0,0.0,0.0,0.357,-0.445,0.821,0.745,0.596,-0.298,0.33,-0.79,0.517,0.359,0.862,0.359,rock
4.657884,-0.007,0.994,0.113,-0.121,-0.975,-0.184,-0.546,-0.764,0.343,0.694,-0.514,0.505,-0.744,0.447,-0.496,0.703,-0.26,0.661,-0.737,0.168,-0.655,0.77,-0.276,0.575,-0.793,0.191,-0.579,0.852,-0.041,0.522,-0.849,-0.04,-0.527,0.797,0.494,0.348,-0.798,-0.401,-0.45,rock
9.878116,-0.341,0.846,0.41,-0.251,0.665,0.703,-0.325,-0.942,0.087,0.691,-0.723,-0.017,0.792,-0.594,-0.143,0.942,-0.31,0.124,0.989,-0.149,0.023,0.843,0.506,0.184,0.765,0.576,0.288,0.694,0.565,0.446,0.516,0.617,0.594,0.069,0.99,0.125,-0.19,0.963,0.19,scissors
56.387071,0.563,0.419,-0.712,0.543,0.519,-0.661,-0.143,0.293,0.945,0.286,-0.381,0.879,0.425,-0.312,0.85,0.193,-0.695,0.693,-0.136,-0.599,0.789,0.0,0.0,0.0,0.0,0.0,0.0,0.356,-0.275,0.893,0.403,-0.126,0.907,0.264,-0.686,0.678,0.161,-0.431,0.888,paper
2.364561,-0.3,0.911,0.282,-0.0,0.995,0.101,-0.459,-0.881,0.114,0.595,-0.769,0.234,0.538,-0.684,0.492,0.892,-0.38,0.244,0.751,-0.403,0.522,0.849,-0.477,0.226,0.748,-0.379,0.545,0.997,0.018,0.08,0.872,0.123,0.474,0.37,0.879,0.302,0.565,0.744,0.358,rock
22.862374,0.001,0.72,0.694,-0.076,-0.637,-0.767,-0.008,-0.885,-0.466,0.852,-0.384,0.355,-0.89,0.311,-0.333,0.974,-0.037,0.223,-0.987,-0.032,-0.158,0.852,-0.005,0.524,-0.783,0.032,-0.622,0.846,0.035,0.532,-0.797,0.032,-0.603,0.047,0.839,0.542,-0.011,-0.793,-0.609,scissors
29.317776,0.625,0.524,-0.579,-0.555,-0.441,0.705,-0.591,-0.684,0.428,0.405,-0.278,0.871,-0.323,0.338,-0.884,0.038,-0.659,0.751,-0.093,0.679,-0.729,0.0,0.0,0.0,0.0,0.0,0.0,0.377,-0.078,0.923,-0.344,0.172,-0.923,0.258,-0.542,0.799,-0.249,0.6,-0.761,rock
17.047992,-0.05,0.941,0.336,0.522,-0.541,0.66,-0.289,-0.901,0.322,0.854,-0.386,0.35,0.346,0.411,-0.843,0.844,-0.035,0.535,0.301,0.691,-0.657,0.936,-0.181,0.301,0.28,0.323,-0.904,0.987,0.014,0.157,0.161,0.28,-0.946,0.564,0.495,0.661,-0.667,-0.333,0.667,rock
12.994287,0.589,0.418,-0.692,0.374,0.624,0.686,-0.228,-0.205,0.952,0.274,-0.423,0.864,0.905,0.302,-0.302,0.223,-0.687,0.691,-0.867,0.248,0.433,0.0,0.0,0.0,0.0,0.0,0.0,0.344,-0.288,0.894,0.669,0.743,-0.0,0.273,-0.712,0.647,0.074,0.741,0.667,rock
37.928383,0.468,0.515,-0.718,-0.467,-0.052,0.883,-0.569,-0.578,0.585,0.372,-0.465,0.803,0.043,0.43,-0.902,0.248,-0.587,0.771,-0.54,0.706,-0.457,0.0,0.0,0.0,0.0,0.0,0.0,0.457,-0.296,0.839,-0.141,0.516,-0.845,0.394,-0.667,0.633,-0.279,0.885,-0.373,rock
14.946289,0.602,0.583,-0.546,-0.382,-0.501,0.777,-0.286,-0.622,0.729,0.389,-0.393,0.833,-0.243,0.524,-0.817,0.148,-0.628,0.764,-0.294,0.633,-0.716,0.0,0.0,0.0,0.0,0.0,0.0,0.424,-0.203,0.883,-0.377,0.359,-0.854,0.324,-0.622,0.713,-0.327,0.723,-0.608,paper
25.483688,0.524,0.436,-0.731,0.523,0.397,-0.755,-0.82,-0.349,0.454,0.261,-0.439,0.86,0.216,-0.525,0.823,0.235,-0.699,0.675,0.201,-0.712,0.672,0.0,0.0,0.0,0.0,0.0,0.0,0.32,-0.301,0.899,0.296,-0.375,0.878,0.253,-0.728,0.637,0.184,-0.744,0.642,paper
6.150801,0.42,0.794,-0.439,0.678,-0.702,0.218,-0.558,-0.324,0.764,0.648,-0.442,0.62,-0.535,0.695,0.481,0.147,-0.32,0.936,-0.607,-0.607,-0.513,0.0,0.0,0.0,0.0,0.0,0.0,0.7,-0.112,0.706,-0.848,0.374,0.374,0.62,-0.403,0.674,-0.959,0.069,0.274,paper
26.658522,0.553,0.296,-0.779,-0.597,-0.457,0.66,-0.715,-0.099,0.692,0.222,-0.424,0.878,-0.352,0.394,-0.849,0.219,-0.747,0.628,-0.109,0.646,-0.755,0.0,0.0,0.0,0.0,0.0,0.0,0.276,-0.301,0.913,-0.389,0.204,-0.898,0.191,-0.747,0.637,-0.284,0.61,-0.74,scissors
13.780577,0.557,0.532,-0.638,-0.013,-0.618,-0.786,-0.17,-0.306,0.937,0.396,-0.44,0.806,-0.802,-0.422,0.422,0.171,-0.578,0.798,0.562,-0.74,-0.37,0.0,0.0,0.0,0.0,0.0,0.0,0.473,-0.236,0.849,-0.582,-0.724,0.369,0.391,-0.613,0.687,-0.496,-0.842,-0.211,rock
3.638421,-0.065,0.936,0.346,0.281,0.409,0.868,-0.628,-0.773,-0.09,0.761,-0.575,0.3,0.3,-0.664,-0.685,0.841,-0.237,0.486,0.733,-0.416,-0.538,0.862,-0.341,0.374,0.447,-0.729,-0.518,0.948,-0.105,0.302,0.521,-0.73,-0.443,0.634,0.551,0.542,-0.496,0.797,0.345,rock
24.110272,0.505,0.432,-0.747,0.645,0.43,-0.631,-0.433,0.071,0.898,0.244,-0.477,0.844,0.267,-0.393,0.88,0.28,-0.703,0.654,0.082,-0.723,0.686,0.0,0.0,0.0,0.0,0.0,0.0,0.311,-0.355,0.882,0.294,-0.23,0.928,0.249,-0.771,0.586,0.163,-0.657,0.736,rock
55.843178,0.516,0.42,-0.747,0.585,0.42,-0.694,-0.052,0.145,0.988,0.304,-0.408,0.861,0.405,-0.387,0.829,0.226,-0.671,0.706,-0.018,-0.652,0.758,0.0,0.0,0.0,0.0,0.0,0.0,0.39,-0.288,0.875,0.412,-0.189,0.892,0.313,-0.688,0.655,0.214,-0.554,0.804,scissors
3.366603,-0.225,0.942,0.249,0.068,-0.922,-0.382,-0.316,-0.771,-0.552,0.61,-0.785,0.105,-0.69,0.69,-0.218,0.894,-0.386,0.226,-0.916,0.238,-0.322,0.941,0.318,0.117,-0.892,-0.237,-0.385,0.835,0.414,0.362,-0.728,-0.288,-0.623,0.226,0.969,0.102,-0.213,-0.929,-0.304,scissors
29.635015,0.644,0.423,-0.637,-0.337,-0.688,0.643,-0.668,-0.656,0.352,0.342,-0.291,0.894,-0.493,0.553,-0.672,0.071,-0.698,0.713,-0.306,0.408,-0.86,0.0,0.0,0.0,0.0,0.0,0.0,0.326,-0.135,0.936,-0.622,0.288,-0.728,0.217,-0.606,0.765,-0.582,0.567,-0.582,scissors
19.210862,0.496,0.52,-0.696,0.381,-0.254,-0.889,-0.243,-0.51,0.825,0.34,-0.483,0.807,-0.873,-0.436,0.218,0.264,-0.601,0.754,-0.408,-0.816,-0.408,0.0,0.0,0.0,0.0,0.0,0.0,0.442,-0.303,0.844,-0.686,-0.514,0.514,0.386,-0.682,0.622,-0.912,-0.342,0.228,rock
10.218255,0.06,0.964,0.261,0.315,0.913,0.259,-0.499,-0.822,0.276,0.926,-0.103,-0.362,0.885,-0.232,-0.404,0.645,0.286,0.709,0.616,0.141,0.775,0.733,0.206,0.648,0.67,0.062,0.74,0.58,0.279,0.766,0.467,0.141,0.873,0.807,-0.126,0.577,0.721,-0.272,0.637,paper
55.971814,0.492,0.441,-0.75,0.599,0.487,-0.636,-0.089,0.2,0.976,0.328,-0.411,0.85,0.433,-0.31,0.846,0.225,-0.657,0.719,-0.101,-0.629,0.771,0.0,0.0,0.0,0.0,0.0,0.0,0.41,-0.274,0.87,0.373,-0.168,0.913,0.334,-0.673,0.66,0.179,-0.518,0.836,paper
16.147131,-0.221,0.761,0.61,-0.0,0.949,0.316,0.887,-0.156,-0.434,0.748,-0.589,0.304,0.535,-0.802,-0.267,0.95,-0.272,0.152,0.302,-0.302,0.905,0.945,0.045,0.323,1.0,0.0,0.0,0.936,0.087,0.341,0.408,0.408,0.816,0.111,0.935,0.337,-0.555,0.832,-0.0,scissors
32.25569,0.562,0.528,-0.637,0.765,-0.0,-0.644,-0.287,-0.275,0.918,0.404,-0.377,0.834,-0.147,-0.147,0.978,0.14,-0.609,0.781,-0.265,-0.927,0.265,0.0,0.0,0.0,0.0,0.0,0.0,0.438,-0.183,0.88,-0.169,-0.169,0.971,0.351,-0.599,0.72,-0.457,-0.54,0.706,scissors
17.869825,0.555,0.453,-0.698,0.381,0.254,0.889,-0.325,-0.418,0.848,0.301,-0.431,0.851,0.487,0.758,-0.433,0.222,-0.664,0.714,-0.948,0.316,-0.045,0.0,0.0,0.0,0.0,0.0,0.0,0.372,-0.275,0.886,0.054,0.975,-0.217,0.3,-0.696,0.653,-0.341,0.876,0.341,scissors
21.414664,0.524,0.478,-0.705,-0.118,0.6,-0.791,-0.311,-0.076,0.947,0.345,-0.464,0.816,0.323,-0.905,0.277,0.237,-0.61,0.756,0.611,-0.172,0.773,0.0,0.0,0.0,0.0,0.0,0.0,0.44,-0.275,0.855,0.661,-0.642,0.387,0.376,-0.667,0.644,0.711,-0.672,0.205,paper
42.830068,0.779,0.452,-0.434,-0.161,-0.964,-0.214,-0.649,-0.609,0.456,0.479,-0.035,0.877,-0.99,0.11,-0.083,-0.226,-0.629,0.744,0.082,-0.356,-0.931,0.0,0.0,0.0,0.0,0.0,0.0,0.371,0.167,0.913,-0.951,-0.264,-0.159,0.17,-0.31,0.936,-0.867,-0.223,-0.446,rock
34.537535,0.47,0.486,-0.737,0.48,0.634,-0.606,-0.797,-0.433,0.421,0.369,-0.442,0.818,0.513,-0.44,0.737,0.229,-0.607,0.761,0.068,-0.494,0.867,0.0,0.0,0.0,0.0,0.0,0.0,0.457,-0.268,0.848,0.552,-0.168,0.816,0.379,-0.659,0.65,0.403,-0.506,0.762,paper
45.53941,0.423,0.485,-0.765,0.447,-0.894,0.0,-0.114,-0.463,0.879,0.345,-0.493,0.799,-0.577,0.577,-0.577,0.294,-0.588,0.754,-0.862,-0.123,-0.492,0.0,0.0,0.0,0.0,0.0,0.0,0.464,-0.338,0.819,-0.97,0.243,0.0,0.405,-0.698,0.591,-0.963,0.241,0.12,paper
13.650768,0.615,0.493,-0.616,-0.108,-0.077,-0.991,-0.327,-0.268,0.906,0.338,-0.335,0.88,-0.414,-0.829,0.377,0.108,-0.687,0.718,0.816,-0.565,0.125,0.0,0.0,0.0,0.0,0.0,0.0,0.353,-0.164,0.921,-0.056,-0.918,0.393,0.249,-0.622,0.742,0.04,-0.99,-0.139,scissors
59.756965,0.405,0.435,-0.804,0.836,-0.246,-0.491,-0.044,0.356,0.934,0.18,-0.592,0.785,-0.268,0.215,0.939,0.427,-0.638,0.641,-0.371,-0.928,0.041,0.0,0.0,0.0,0.0,0.0,0.0,0.351,-0.516,0.781,-0.468,0.026,0.883,0.336,-0.819,0.466,-0.666,-0.414,0.62,scissors
9.580972,0.008,0.785,0.619,-0.039,0.729,0.683,0.611,-0.501,-0.613,0.757,-0.382,0.53,0.77,-0.459,0.443,0.859,-0.216,0.464,0.879,-0.266,0.395,0.873,-0.255,0.416,0.865,-0.312,0.392,0.982,-0.073,-0.172,0.979,-0.123,-0.164,0.095,0.949,0.301,-0.047,0.975,0.218,rock
14.683086,0.409,0.489,-0.77,-0.397,-0.568,0.721,-0.235,-0.572,0.786,0.313,-0.559,0.768,-0.412,0.615,-0.673,0.327,-0.58,0.746,-0.329,0.438,-0.836,0.0,0.0,0.0,0.0,0.0,0.0,0.45,-0.37,0.813,-0.583,0.363,-0.727,0.41,-0.716,0.565,-0.541,0.628,-0.559,scissors
9.919854,0.523,0.581,-0.624,-0.617,0.772,-0.154,-0.112,-0.219,0.969,0.408,-0.47,0.783,0.566,-0.424,-0.707,0.215,-0.561,0.799,-0.762,0.457,0.457,0.0,0.0,0.0,0.0,0.0,0.0,0.48,-0.248,0.841,0.97,0.0,-0.243,0.414,-0.621,0.666,-0.0,0.707,0.707,paper
9.2284,-0.092,0.946,0.312,0.166,-0.738,-0.654,-0.344,-0.931,0.123,0.65,-0.716,0.255,-0.804,0.593,0.042,0.873,-0.302,0.383,-0.988,0.153,-0.02,0.946,0.168,0.276,-0.774,-0.538,-0.333,0.811,0.223,0.541,-0.588,-0.545,-0.598,0.321,0.918,0.232,0.065,-0.96,-0.273,scissors
5.502208,0.024,0.912,0.409,-0.027,-0.819,-0.573,0.614,-0.712,-0.339,0.597,-0.384,0.705,-0.581,0.404,-0.707,0.712,-0.295,0.637,-0.8,0.32,-0.507,0.751,-0.208,0.627,-0.728,0.286,-0.624,0.995,-0.063,0.071,-0.976,0.195,-0.098,0.344,0.892,0.293,-0.376,-0.859,-0.349,rock
53.695554,0.411,0.404,-0.817,-0.0,0.949,0.316,0.108,0.083,0.991,0.255,-0.498,0.829,0.64,0.0,-0.768,0.339,-0.653,0.677,-0.873,0.436,0.218,0.0,0.0,0.0,0.0,0.0,0.0,0.391,-0.39,0.833,0.436,0.873,-0.218,0.351,-0.756,0.553,-0.169,0.845,0.507,rock
21.714942,0.442,0.641,-0.628,0.1,0.609,-0.787,-0.351,-0.111,0.93,0.454,-0.51,0.73,0.264,-0.745,0.613,0.268,-0.484,0.833,0.402,-0.536,0.743,0.0,0.0,0.0,0.0,0.0,0.0,0.565,-0.282,0.776,0.488,-0.535,0.69,0.516,-0.608,0.604,0.44,-0.768,0.466,scissors
7.320033,0.044,0.985,0.167,0.179,0.983,-0.037,-0.188,-0.911,0.367,0.72,-0.504,0.477,0.705,-0.34,0.622,0.725,-0.243,0.644,0.566,-0.107,0.817,0.786,-0.275,0.553,0.722,-0.05,0.691,0.861,-0.039,0.506,0.721,0.215,0.658,0.789,0.486,0.375,0.89,0.299,0.344,rock
48.018447,0.679,0.397,-0.618,0.574,0.186,-0.797,-0.59,-0.661,0.463,0.37,-0.255,0.893,0.167,-0.334,0.927,0.015,-0.678,0.735,0.052,-0.793,0.606,0.0,0.0,0.0,0.0,0.0,0.0,0.377,-0.131,0.917,0.228,-0.272,0.935,0.249,-0.565,0.787,0.076,-0.678,0.731,scissors
27.793944,0.473,0.698,-0.537,-0.775,-0.549,0.312,-0.208,-0.371,0.905,0.562,-0.348,0.751,-0.699,0.097,-0.709,0.049,-0.467,0.883,0.228,0.367,-0.902,0.0,0.0,0.0,0.0,0.0,0.0,0.578,-0.057,0.814,-0.589,-0.203,-0.782,0.482,-0.424,0.766,-0.421,0.176,-0.89,paper
6.620475,-0.131,0.749,0.65,-0.148,0.593,0.791,-0.014,-0.985,-0.174,0.857,-0.505,0.104,0.875,-0.08,-0.477,0.962,0.003,0.274,0.677,0.677,0.29,0.563,0.458,0.688,-0.0,0.659,0.753,0.31,0.573,0.759,-0.53,0.662,0.53,0.067,0.964,0.256,-0.641,0.712,0.285,scissors
18.29578,0.575,0.442,-0.689,-0.837,-0.386,-0.386,-0.332,-0.438,0.836,0.306,-0.434,0.847,-0.287,-0.215,-0.933,0.223,-0.654,0.723,0.0,0.789,-0.614,0.0,0.0,0.0,0.0,0.0,0.0,0.384,-0.275,0.881,-0.173,-0.259,-0.95,0.314,-0.687,0.656,-0.291,0.389,-0.874,rock
42.173899,0.658,0.525,-0.54,-0.601,0.784,0.157,-0.557,-0.597,0.577,0.449,-0.248,0.858,0.634,-0.405,-0.659,0.019,-0.617,0.787,0.109,0.847,0.519,0.0,0.0,0.0,0.0,0.0,0.0,0.446,-0.077,0.892,0.836,-0.026,-0.548,0.31,-0.517,0.798,0.888,0.416,-0.194,paper
3.588453,0.413,0.872,-0.262,0.189,0.925,-0.329,-0.38,-0.027,0.925,0.745,-0.212,0.632,0.71,-0.473,0.522,-0.168,-0.294,0.941,-0.008,-0.271,0.962,0.0,0.0,0.0,0.0,0.0,0.0,0.679,0.219,0.701,0.717,-0.082,0.692,0.52,-0.079,0.851,0.535,-0.323,0.781,paper
25.061755,0.551,0.427,-0.717,0.411,0.43,-0.804,-0.839,-0.124,0.529,0.238,-0.42,0.876,0.249,-0.617,0.746,0.229,-0.723,0.652,0.279,-0.627,0.727,0.0,0.0,0.0,0.0,0.0,0.0,0.288,-0.301,0.909,0.379,-0.437,0.816,0.221,-0.74,0.635,0.306,-0.754,0.581,scissors
32.216309,0.564,0.549,-0.617,0.564,-0.043,-0.825,-0.287,-0.275,0.918,0.428,-0.348,0.834,-0.055,-0.332,0.942,0.106,-0.599,0.793,-0.153,-0.921,0.358,0.0,0.0,0.0,0.0,0.0,0.0,0.451,-0.137,0.882,-0.091,-0.274,0.958,0.359,-0.558,0.748,-0.386,-0.628,0.676,scissors
60.006336,0.689,0.43,-0.583,-0.851,0.277,0.447,-0.22,0.212,0.952,0.359,-0.048,0.932,0.482,-0.219,-0.848,-0.203,-0.74,0.642,0.107,0.974,0.198,0.0,0.0,0.0,0.0,0.0,0.0,0.237,0.184,0.954,0.576,0.064,-0.815,0.012,-0.308,0.951,0.697,0.54,-0.471,rock
4.783421,0.508,0.68,-0.529,-0.807,-0.072,0.586,-0.511,-0.28,0.812,0.534,-0.405,0.742,0.0,0.218,-0.976,0.099,-0.5,0.86,-0.045,0.908,-0.416,0.0,0.0,0.0,0.0,0.0,0.0,0.552,-0.116,0.826,0.032,0.209,-0.977,0.44,-0.493,0.75,0.15,0.708,-0.69,scissors
13.253874,0.679,0.43,-0.594,-0.562,0.812,0.156,-0.305,-0.14,0.942,0.284,-0.323,0.903,0.802,-0.172,-0.573,0.119,-0.733,0.669,-0.276,0.765,0.582,0.0,0.0,0.0,0.0,0.0,0.0,0.291,-0.186,0.939,0.878,0.251,-0.408,0.186,-0.662,0.726,0.783,0.613,0.102,paper
52.225014,0.445,0.385,-0.808,0.552,-0.092,-0.829,0.104,0.081,0.991,0.224,-0.461,0.858,-0.57,-0.456,0.684,0.292,-0.704,0.647,-0.282,-0.941,-0.188,0.0,0.0,0.0,0.0,0.0,0.0,0.328,-0.352,0.877,-0.426,-0.596,0.681,0.274,-0.755,0.596,-0.76,-0.608,0.228,scissors
52.812381,0.426,0.388,-0.817,-0.667,-0.667,0.333,0.111,0.092,0.989,0.243,-0.516,0.821,0.0,0.243,-0.97,0.355,-0.654,0.668,-0.53,-0.0,-0.848,0.0,0.0,0.0,0.0,0.0,0.0,0.389,-0.405,0.827,-0.811,-0.324,-0.487,0.349,-0.767,0.538,-0.943,0.105,-0.314,rock
8.71687,0.472,0.558,-0.682,0.077,0.996,0.038,0.004,-0.214,0.977,0.339,-0.553,0.761,0.906,-0.418,0.07,0.322,-0.562,0.762,-0.213,0.178,0.961,0.0,0.0,0.0,0.0,0.0,0.0,0.461,-0.361,0.811,0.946,0.07,0.315,0.426,-0.703,0.569,0.741,0.074,0.667,paper
55.583868,0.5,0.428,-0.753,0.548,0.457,-0.701,-0.053,0.08,0.995,0.303,-0.438,0.846,0.506,-0.411,0.759,0.26,-0.658,0.707,-0.093,-0.587,0.804,0.0,0.0,0.0,0.0,0.0,0.0,0.401,-0.315,0.86,0.5,-0.147,0.853,0.334,-0.702,0.629,0.247,-0.494,0.834,rock
6.620608,-0.17,0.728,0.665,0.406,-0.914,-0.0,-0.014,-0.985,-0.174,0.867,-0.497,0.041,-0.311,0.545,-0.778,0.976,0.028,0.216,-0.667,0.667,-0.333,0.512,0.526,0.679,-0.899,0.225,-0.375,0.279,0.617,0.736,-0.873,0.312,-0.374,-0.001,0.964,0.266,-0.906,-0.418,-0.07,scissors
36.674781,0.101,0.826,0.554,0.577,0.577,-0.577,0.143,-0.963,-0.227,0.731,-0.312,0.607,-0.949,0.316,-0.0,0.81,-0.171,0.561,-0.707,-0.0,0.707,0.854,-0.159,0.496,-0.557,0.743,0.371,0.997,0.012,-0.076,-0.53,0.53,0.662,0.198,0.902,0.385,-0.302,0.302,-0.905,rock
3.554189,-0.237,0.904,0.356,0.268,0.915,0.3,-0.313,-0.86,-0.403,0.838,0.045,-0.544,0.939,-0.13,-0.318,0.43,0.765,0.48,0.439,0.454,0.776,0.697,0.525,0.489,0.689,0.168,0.705,0.627,0.511,0.588,0.531,0.152,0.834,0.563,0.387,0.73,0.623,-0.0,0.782,paper
54.351432,0.518,0.432,-0.739,0.625,0.469,-0.625,-0.059,0.02,0.998,0.31,-0.392,0.866,-0.577,-0.577,-0.577,0.21,-0.678,0.704,-0.873,-0.436,-0.218,0.0,0.0,0.0,0.0,0.0,0.0,0.383,-0.265,0.885,-0.816,-0.408,0.408,0.303,-0.676,0.672,-0.986,-0.0,0.164,paper
8.146195,0.127,0.99,0.069,-0.367,-0.921,-0.132,-0.044,-0.924,-0.379,0.783,-0.272,-0.559,-0.916,-0.204,0.346,0.811,0.086,0.578,-0.524,-0.554,-0.647,0.846,-0.028,0.532,-0.615,-0.467,-0.635,0.73,0.065,0.68,-0.414,-0.535,-0.737,0.871,-0.235,0.431,-0.675,-0.15,-0.722,paper
12.905066,0.556,0.482,-0.677,0.858,0.477,0.191,-0.22,-0.18,0.959,0.329,-0.446,0.833,0.864,0.432,0.259,0.225,-0.633,0.74,-0.922,-0.173,0.346,0.0,0.0,0.0,0.0,0.0,0.0,0.413,-0.278,0.867,0.402,0.723,0.562,0.348,-0.678,0.648,-0.269,0.404,0.874,paper
8.150961,0.115,0.863,0.491,-0.189,-0.852,-0.489,0.435,-0.477,-0.764,0.674,-0.301,0.675,-0.638,0.261,-0.725,0.758,-0.19,0.624,-0.78,0.18,-0.6,0.816,-0.138,0.562,-0.777,0.132,-0.616,1.0,0.018,-0.004,-0.995,0.0,-0.101,0.269,0.886,0.378,-0.316,-0.827,-0.466,rock
1.763017,0.508,0.279,-0.815,-0.902,0.321,0.291,-0.201,-0.329,0.923,0.085,-0.684,0.724,0.765,-0.324,-0.557,0.505,-0.619,0.601,-0.0,0.754,0.657,0.0,0.0,0.0,0.0,0.0,0.0,0.291,-0.581,0.76,0.921,0.054,-0.385,0.311,-0.867,0.388,0.939,0.335,0.084,rock
35.14158,0.484,0.484,-0.729,0.346,0.543,-0.765,-0.65,-0.561,0.513,0.326,-0.469,0.821,0.293,-0.513,0.807,0.277,-0.617,0.737,0.072,-0.669,0.74,0.0,0.0,0.0,0.0,0.0,0.0,0.425,-0.325,0.845,0.4,-0.283,0.872,0.366,-0.706,0.606,0.198,-0.642,0.741,rock
32.101079,0.564,0.548,-0.618,0.489,0.865,-0.113,-0.243,-0.257,0.935,0.426,-0.352,0.833,0.699,-0.15,0.699,0.104,-0.6,0.793,-0.471,-0.428,0.771,0.0,0.0,0.0,0.0,0.0,0.0,0.446,-0.14,0.884,0.475,0.173,0.863,0.348,-0.561,0.751,0.089,-0.178,0.98,rock
7.939929,0.455,0.417,-0.787,0.552,-0.245,0.797,0.1,-0.158,0.982,0.193,-0.592,0.782,-0.564,0.82,0.102,0.408,-0.636,0.655,-0.684,0.0,-0.73,0.0,0.0,0.0,0.0,0.0,0.0,0.335,-0.471,0.816,-0.883,0.331,0.331,0.329,-0.814,0.479,-0.854,0.513,0.085,rock
3.04761,0.158,0.957,0.245,0.816,-0.408,-0.408,-0.112,-0.983,0.145,0.923,-0.191,-0.335,-0.667,0.333,-0.667,0.654,0.152,0.741,-0.943,0.236,0.236,0.745,0.119,0.657,-0.707,0.707,0.0,0.601,0.175,0.78,-0.862,0.492,0.123,0.777,-0.202,0.595,-0.93,0.116,-0.349,paper
5.786733,0.729,0.436,-0.528,0.588,0.685,-0.43,-0.528,-0.3,0.794,0.323,-0.302,0.897,0.609,-0.332,0.72,0.054,-0.727,0.684,-0.101,-0.472,0.876,0.0,0.0,0.0,0.0,0.0,0.0,0.29,-0.135,0.947,0.553,-0.02,0.833,0.162,-0.61,0.776,0.36,-0.387,0.849,scissors
22.808282,0.559,0.577,-0.596,-0.556,-0.783,0.278,-0.406,-0.178,0.897,0.437,-0.389,0.811,-0.627,0.246,-0.739,0.14,-0.575,0.806,-0.023,0.383,-0.924,0.0,0.0,0.0,0.0,0.0,0.0,0.479,-0.176,0.86,-0.611,-0.023,-0.792,0.39,-0.577,0.718,-0.517,0.337,-0.787,paper
9.788267,0.527,0.575,-0.626,-0.688,0.688,-0.229,-0.119,-0.262,0.958,0.397,-0.461,0.793,0.302,-0.302,-0.905,0.213,-0.575,0.79,-0.781,0.625,0.0,0.0,0.0,0.0,0.0,0.0,0.0,0.467,-0.247,0.849,0.535,0.267,-0.802,0.401,-0.628,0.667,-0.243,0.97,0.0,paper
45.968991,0.379,0.521,-0.765,-0.52,-0.347,0.78,-0.135,-0.51,0.849,0.368,-0.521,0.771,-0.13,0.391,-0.911,0.319,-0.548,0.773,-0.556,0.556,-0.618,0.0,0.0,0.0,0.0,0.0,0.0,0.504,-0.351,0.789,-0.349,0.419,-0.838,0.455,-0.685,0.569,-0.499,0.749,-0.437,rock
3.996283,0.522,0.67,-0.527,0.618,-0.683,0.39,-0.482,0.043,0.875,0.543,-0.392,0.743,-0.492,0.87,0.038,0.081,-0.484,0.871,-0.685,-0.249,-0.685,0.0,0.0,0.0,0.0,0.0,0.0,0.56,-0.088,0.824,-0.887,0.461,0.035,0.457,-0.455,0.764,-0.954,0.298,0.03,scissors
14.815821,0.505,0.41,-0.76,-0.469,-0.56,0.683,-0.237,-0.595,0.768,0.294,-0.564,0.772,-0.386,0.49,-0.782,0.352,-0.584,0.731,-0.197,0.57,-0.798,0.0,0.0,0.0,0.0,0.0,0.0,0.441,-0.407,0.8,-0.468,0.281,-0.838,0.413,-0.742,0.528,-0.387,0.631,-0.673,paper
9.331256,0.509,0.597,-0.62,0.772,0.617,-0.154,-0.133,-0.28,0.951,0.406,-0.463,0.788,0.943,0.236,0.236,0.211,-0.568,0.795,-0.954,-0.212,0.212,0.0,0.0,0.0,0.0,0.0,0.0,0.475,-0.242,0.846,0.324,0.487,0.811,0.409,-0.623,0.666,-0.512,0.384,0.768,scissors
39.929529,0.516,0.563,-0.646,-0.43,-0.654,0.622,-0.314,-0.499,0.808,0.499,-0.315,0.808,-0.584,0.483,-0.652,0.066,-0.551,0.832,-0.166,0.366,-0.916,0.0,0.0,0.0,0.0,0.0,0.0,0.507,-0.096,0.857,-0.663,0.188,-0.724,0.401,-0.501,0.767,-0.564,0.476,-0.675,paper
39.034049,0.568,0.537,-0.624,-0.475,-0.721,0.504,-0.607,-0.221,0.764,0.494,-0.339,0.801,-0.629,0.396,-0.669,0.084,-0.554,0.828,-0.051,0.37,-0.928,0.0,0.0,0.0,0.0,0.0,0.0,0.516,-0.13,0.847,-0.653,0.095,-0.751,0.408,-0.53,0.744,-0.524,0.406,-0.749,paper
41.634766,0.553,0.469,-0.689,0.069,0.959,-0.274,-0.498,-0.594,0.632,0.436,-0.323,0.84,0.889,-0.323,0.323,0.085,-0.585,0.807,-0.223,-0.081,0.972,0.0,0.0,0.0,0.0,0.0,0.0,0.498,-0.113,0.86,0.858,0.061,0.511,0.39,-0.522,0.759,0.615,-0.085,0.784,paper
25.391609,0.074,0.905,0.419,0.295,0.886,0.358,0.109,-0.949,-0.296,0.615,-0.354,0.704,0.621,-0.148,0.769,0.714,-0.264,0.648,0.631,-0.075,0.772,0.76,-0.179,0.624,0.747,0.056,0.663,0.997,-0.035,0.071,0.957,0.201,0.21,0.348,0.885,0.308,0.301,0.819,0.489,rock
9.058072,0.001,0.929,0.37,-0.259,0.613,0.746,-0.648,-0.707,0.282,0.803,-0.505,0.318,0.714,-0.667,-0.211,0.848,-0.143,0.511,0.959,-0.279,0.049,0.908,-0.245,0.339,0.84,-0.543,-0.012,0.973,-0.004,0.229,0.939,-0.344,0.026,0.583,0.471,0.662,0.164,0.758,0.631,rock
61.278981,0.351,0.408,-0.843,-0.333,-0.667,-0.667,0.17,0.348,0.922,0.209,-0.565,0.798,-0.333,-0.667,-0.667,0.404,-0.64,0.653,0.267,0.535,-0.802,0.0,0.0,0.0,0.0,0.0,0.0,0.369,-0.468,0.803,-0.137,-0.824,-0.549,0.349,-0.799,0.491,-0.365,-0.183,-0.913,paper
11.376522,0.544,0.585,-0.602,0.108,-0.97,0.216,-0.142,-0.272,0.952,0.458,-0.412,0.788,-0.713,0.583,-0.389,0.143,-0.541,0.829,-0.484,-0.161,-0.86,0.0,0.0,0.0,0.0,0.0,0.0,0.509,-0.164,0.845,-0.949,0.19,-0.253,0.427,-0.55,0.718,-0.948,0.2,-0.249,rock
33.201251,0.428,0.557,-0.712,0.261,0.688,-0.677,-0.453,-0.124,0.883,0.394,-0.499,0.772,0.47,-0.633,0.615,0.269,-0.551,0.79,0.257,-0.402,0.879,0.0,0.0,0.0,0.0,0.0,0.0,0.503,-0.297,0.812,0.621,-0.338,0.707,0.449,-0.654,0.609,0.536,-0.594,0.6,scissors
10.462107,0.552,0.564,-0.615,-0.577,-0.577,0.577,-0.159,-0.304,0.939,0.402,-0.458,0.793,0.312,-0.156,-0.937,0.206,-0.573,0.793,-0.781,0.625,-0.0,0.0,0.0,0.0,0.0,0.0,0.0,0.471,-0.242,0.848,0.667,0.333,-0.667,0.4,-0.623,0.672,-0.436,0.873,0.218,scissors
21.627563,0.519,0.555,-0.65,0.356,0.488,-0.797,-0.376,-0.107,0.92,0.414,-0.41,0.813,0.274,-0.638,0.719,0.154,-0.591,0.792,0.28,-0.611,0.741,0.0,0.0,0.0,0.0,0.0,0.0,0.466,-0.187,0.865,0.426,-0.436,0.793,0.378,-0.59,0.713,0.331,-0.745,0.579,paper
24.351453,0.477,0.593,-0.649,0.446,0.506,-0.738,-0.516,0.107,0.85,0.397,-0.482,0.781,0.317,-0.534,0.784,0.248,-0.578,0.777,0.209,-0.619,0.757,0.0,0.0,0.0,0.0,0.0,0.0,0.477,-0.279,0.833,0.408,-0.337,0.849,0.419,-0.655,0.629,0.311,-0.689,0.655,scissors
26.743772,0.539,0.44,-0.718,-0.496,-0.622,0.606,-0.632,-0.054,0.773,0.3,-0.39,0.87,-0.51,0.425,-0.748,0.177,-0.71,0.682,-0.101,0.488,-0.867,0.0,0.0,0.0,0.0,0.0,0.0,0.332,-0.24,0.912,-0.55,0.146,-0.823,0.249,-0.688,0.682,-0.443,0.497,-0.746,paper
6.689758,-0.34,0.863,0.374,-0.02,0.861,0.508,-0.371,-0.928,0.03,0.625,-0.78,-0.042,0.783,-0.605,0.144,0.917,-0.385,0.105,0.951,-0.12,0.284,0.888,0.458,0.05,0.825,0.336,0.455,0.746,0.59,0.31,0.605,0.38,0.7,0.08,0.996,0.046,0.075,0.927,0.368,scissors
25.587732,-0.043,0.654,0.755,-0.087,-0.786,-0.612,0.478,-0.685,-0.55,0.888,-0.364,0.279,-0.744,0.447,-0.496,0.989,0.002,0.146,-0.986,0.141,-0.094,0.822,0.08,0.563,-0.861,0.051,-0.506,0.804,0.125,0.581,-0.953,0.095,-0.286,-0.044,0.843,0.536,-0.316,-0.789,-0.526,scissors
9.969341,-0.137,0.949,0.283,0.425,0.575,-0.7,0.59,-0.757,0.28,0.846,0.052,-0.53,-0.028,-0.747,-0.664,0.759,0.245,0.603,0.66,-0.739,-0.132,0.853,0.083,0.515,0.537,-0.818,-0.205,0.946,-0.029,0.324,0.352,-0.879,-0.322,0.89,0.13,0.438,0.504,-0.584,-0.637,paper
58.060046,0.53,0.476,-0.701,0.206,-0.947,0.247,-0.376,0.264,0.888,0.331,-0.369,0.869,-0.77,0.578,-0.27,0.158,-0.666,0.729,-0.413,-0.172,-0.894,0.0,0.0,0.0,0.0,0.0,0.0,0.385,-0.218,0.897,-0.949,0.183,-0.256,0.288,-0.634,0.718,-0.933,0.161,-0.322,paper
52.423253,0.414,0.399,-0.818,0.0,-0.217,-0.976,0.114,0.095,0.989,0.228,-0.499,0.836,0.705,-0.646,0.294,0.344,-0.672,0.656,0.316,-0.949,0.0,0.0,0.0,0.0,0.0,0.0,0.0,0.366,-0.398,0.841,0.149,-0.93,0.335,0.323,-0.772,0.547,-0.209,-0.975,-0.07,paper
20.896869,0.418,0.391,-0.82,0.641,-0.245,-0.728,-0.126,-0.141,0.982,0.162,-0.64,0.751,-0.197,-0.256,0.946,0.49,-0.603,0.629,0.086,-0.959,0.269,0.0,0.0,0.0,0.0,0.0,0.0,0.358,-0.55,0.755,-0.146,-0.301,0.942,0.374,-0.844,0.384,-0.267,-0.76,0.592,rock
50.396342,0.501,0.329,-0.8,-0.557,-0.743,-0.371,-0.026,0.059,0.998,0.183,-0.452,0.873,-0.744,-0.62,-0.248,0.271,-0.707,0.653,-0.545,-0.818,0.182,0.0,0.0,0.0,0.0,0.0,0.0,0.296,-0.375,0.878,-0.196,0.0,-0.981,0.23,-0.782,0.579,-0.858,-0.477,-0.191,scissors
16.243095,0.594,0.439,-0.674,0.63,0.51,-0.585,-0.514,-0.552,0.657,0.333,-0.383,0.861,0.347,-0.394,0.851,0.156,-0.662,0.734,-0.016,-0.667,0.745,0.0,0.0,0.0,0.0,0.0,0.0,0.379,-0.211,0.901,0.348,-0.166,0.923,0.289,-0.643,0.709,0.156,-0.562,0.812,scissors
34.603978,0.467,0.534,-0.705,0.491,0.632,-0.6,-0.797,-0.433,0.421,0.391,-0.44,0.808,0.516,-0.428,0.742,0.228,-0.588,0.776,0.049,-0.498,0.866,0.0,0.0,0.0,0.0,0.0,0.0,0.477,-0.254,0.842,0.55,-0.156,0.82,0.4,-0.642,0.654,0.39,-0.506,0.769,scissors
50.893896,0.459,0.35,-0.816,-0.816,-0.408,-0.408,0.041,0.079,0.996,0.192,-0.472,0.86,0.329,0.549,-0.768,0.291,-0.722,0.628,-0.39,0.781,-0.488,0.0,0.0,0.0,0.0,0.0,0.0,0.31,-0.376,0.873,0.784,0.588,-0.196,0.257,-0.779,0.572,0.371,0.743,0.557,scissors
38.574993,0.337,0.477,-0.812,-0.51,-0.676,0.532,-0.827,-0.419,0.376,0.382,-0.579,0.72,-0.586,0.376,-0.718,0.344,-0.531,0.774,-0.033,0.437,-0.899,0.0,0.0,0.0,0.0,0.0,0.0,0.531,-0.388,0.753,-0.599,0.094,-0.795,0.487,-0.699,0.523,-0.464,0.431,-0.774,rock
15.377687,0.526,0.462,-0.714,-0.041,0.23,0.972,-0.498,-0.62,0.606,0.248,-0.478,0.842,0.417,0.716,-0.56,0.278,-0.681,0.677,-0.766,0.628,-0.138,0.0,0.0,0.0,0.0,0.0,0.0,0.333,-0.345,0.878,0.095,0.858,-0.504,0.271,-0.754,0.599,-0.08,0.995,0.066,scissors
37.632084,0.073,0.818,0.571,-0.169,-0.845,-0.507,0.177,-0.948,-0.263,0.735,-0.324,0.596,-0.389,0.291,-0.874,0.818,-0.175,0.547,-0.927,0.265,-0.265,0.859,-0.172,0.483,-0.598,0.359,-0.717,0.996,0.0,-0.091,-0.941,0.282,-0.188,0.182,0.908,0.377,-0.808,-0.303,-0.505,rock
28.962233,0.037,0.82,0.572,-0.148,0.984,0.098,-0.45,-0.541,-0.71,0.722,-0.356,0.593,0.155,-0.699,0.699,0.819,-0.207,0.536,0.18,-0.6,0.78,0.853,-0.206,0.48,0.345,-0.276,0.897,0.994,-0.032,-0.101,0.737,-0.164,0.655,0.175,0.925,0.339,0.33,0.923,-0.198,rock
23.152678,0.542,0.578,-0.61,-0.553,-0.829,0.083,-0.353,-0.199,0.914,0.422,-0.416,0.806,-0.779,0.107,-0.618,0.168,-0.575,0.801,0.142,0.227,-0.964,0.0,0.0,0.0,0.0,0.0,0.0,0.481,-0.205,0.853,-0.69,-0.221,-0.69,0.399,-0.597,0.695,-0.568,0.135,-0.812,scissors
8.079889,0.112,0.976,-0.189,-0.601,-0.339,-0.724,-0.263,-0.885,0.386,0.536,-0.368,0.76,-0.921,0.018,0.39,0.434,-0.248,0.866,-0.899,-0.385,0.209,0.581,-0.106,0.807,-0.908,-0.0,0.419,0.646,0.136,0.751,-0.856,-0.082,0.51,0.96,0.252,0.118,-0.017,-0.067,-0.998,rock
3.86928,0.401,0.589,-0.701,-0.022,0.994,-0.108,-0.402,0.088,0.911,0.438,-0.579,0.688,0.881,-0.472,-0.036,0.326,-0.462,0.825,0.027,0.281,0.959,0.0,0.0,0.0,0.0,0.0,0.0,0.572,-0.297,0.764,0.982,-0.057,0.179,0.543,-0.603,0.585,0.886,0.019,0.462,scissors
51.07333,0.44,0.367,-0.82,-0.39,-0.781,-0.488,0.099,0.061,0.993,0.195,-0.486,0.852,-0.492,-0.615,-0.615,0.318,-0.71,0.628,-0.101,-0.704,-0.704,0.0,0.0,0.0,0.0,0.0,0.0,0.319,-0.388,0.865,-0.371,-0.743,-0.557,0.278,-0.78,0.562,-0.367,-0.855,-0.367,paper
4.070393,-0.057,0.613,0.788,-0.741,0.604,0.292,-0.376,-0.637,-0.673,0.938,-0.346,-0.004,-0.028,-0.81,-0.586,0.966,0.212,0.147,0.497,-0.63,-0.597,0.345,0.549,0.761,0.528,0.723,-0.445,0.069,0.617,0.784,0.159,0.978,-0.136,-0.103,0.898,0.428,-0.557,0.506,-0.658,scissors
9.788267,0.527,0.575,-0.626,-0.688,0.688,-0.229,-0.119,-0.262,0.958,0.397,-0.461,0.793,0.302,-0.302,-0.905,0.213,-0.575,0.79,-0.781,0.625,0.0,0.0,0.0,0.0,0.0,0.0,0.0,0.467,-0.247,0.849,0.535,0.267,-0.802,0.401,-0.628,0.667,-0.243,0.97,0.0,rock
11.716188,0.146,0.95,0.275,0.816,-0.408,0.408,-0.571,-0.795,0.207,0.921,-0.192,-0.338,-0.0,0.894,-0.447,0.643,0.191,0.741,-0.973,0.162,0.162,0.714,0.118,0.69,-0.816,0.408,-0.408,0.559,0.192,0.806,-0.93,0.349,0.116,0.779,-0.191,0.598,-0.97,0.108,-0.216,paper
43.028293,0.569,0.465,-0.678,0.529,-0.764,-0.369,-0.528,-0.593,0.608,0.364,-0.317,0.876,-0.727,0.28,0.627,0.115,-0.662,0.741,-0.143,-0.862,-0.486,0.0,0.0,0.0,0.0,0.0,0.0,0.398,-0.182,0.899,-0.832,-0.1,0.546,0.289,-0.622,0.728,-0.888,-0.431,0.163,paper
56.66409,0.473,0.464,-0.749,-0.543,0.836,-0.084,-0.276,0.306,0.911,0.312,-0.439,0.843,0.7,-0.35,-0.622,0.259,-0.637,0.726,0.097,0.728,0.679,0.0,0.0,0.0,0.0,0.0,0.0,0.421,-0.333,0.844,0.915,0.057,-0.4,0.355,-0.697,0.623,0.861,0.506,0.051,paper
42.784043,0.747,0.488,-0.451,-0.099,-0.99,0.099,-0.649,-0.609,0.456,0.464,-0.08,0.882,-0.93,0.04,-0.364,-0.16,-0.645,0.747,0.086,-0.129,-0.988,0.0,0.0,0.0,0.0,0.0,0.0,0.375,0.102,0.921,-0.888,-0.282,-0.363,0.19,-0.383,0.904,-0.79,-0.113,-0.602,paper
13.246857,0.064,0.991,0.119,0.262,0.92,0.292,-0.66,-0.74,0.128,0.834,-0.167,-0.526,0.887,-0.238,-0.395,0.778,0.216,0.59,0.63,0.138,0.764,0.842,0.112,0.527,0.675,0.055,0.736,0.723,0.206,0.659,0.487,0.131,0.864,0.87,-0.141,0.473,0.731,-0.273,0.626,paper
61.756062,0.424,0.449,-0.786,-0.992,-0.088,0.088,0.163,0.257,0.953,0.288,-0.508,0.811,-0.221,-0.474,-0.853,0.315,-0.626,0.713,0.549,0.732,-0.403,0.0,0.0,0.0,0.0,0.0,0.0,0.415,-0.379,0.827,0.066,-0.499,-0.864,0.367,-0.729,0.578,0.216,0.072,-0.974,rock
45.475887,0.418,0.49,-0.765,-0.115,-0.577,-0.808,-0.164,-0.474,0.865,0.352,-0.498,0.793,-0.953,-0.136,-0.272,0.298,-0.577,0.761,-0.384,-0.512,-0.768,0.0,0.0,0.0,0.0,0.0,0.0,0.476,-0.339,0.812,-0.919,-0.394,0.0,0.42,-0.691,0.589,-0.962,-0.192,-0.192,scissors
57.385835,0.555,0.465,-0.69,-0.169,-0.507,0.845,-0.424,0.227,0.877,0.319,-0.389,0.864,-0.097,0.483,-0.87,0.177,-0.664,0.727,-0.681,0.426,-0.596,0.0,0.0,0.0,0.0,0.0,0.0,0.386,-0.253,0.887,-0.512,0.384,-0.768,0.294,-0.654,0.697,-0.724,0.634,-0.272,scissors
13.801578,0.547,0.533,-0.646,0.29,-0.516,-0.806,-0.17,-0.306,0.937,0.404,-0.465,0.788,-0.723,-0.376,0.579,0.199,-0.553,0.809,0.45,-0.856,-0.255,0.0,0.0,0.0,0.0,0.0,0.0,0.495,-0.258,0.83,-0.537,-0.638,0.551,0.424,-0.617,0.663,-0.508,-0.861,-0.015,scissors
10.059287,0.529,0.576,-0.623,-0.518,0.83,-0.207,-0.121,-0.267,0.956,0.407,-0.457,0.791,0.426,-0.64,-0.64,0.204,-0.572,0.795,-0.426,0.64,0.64,0.0,0.0,0.0,0.0,0.0,0.0,0.473,-0.238,0.849,0.87,-0.348,-0.348,0.402,-0.621,0.673,0.894,0.447,0.0,paper
43.589765,0.412,0.467,-0.782,0.645,-0.629,-0.435,-0.206,-0.463,0.862,0.294,-0.529,0.796,-0.586,0.215,0.781,0.35,-0.605,0.715,-0.216,-0.938,-0.271,0.0,0.0,0.0,0.0,0.0,0.0,0.431,-0.405,0.806,-0.685,-0.095,0.723,0.388,-0.75,0.535,-0.802,-0.474,0.364,scissors
8.627126,0.441,0.559,-0.702,-0.654,0.654,-0.381,0.025,-0.219,0.975,0.35,-0.575,0.739,0.885,-0.416,-0.208,0.34,-0.533,0.775,-0.348,0.348,0.87,0.0,0.0,0.0,0.0,0.0,0.0,0.485,-0.376,0.789,0.992,0.055,0.11,0.458,-0.699,0.549,0.773,0.258,0.58,scissors
9.580791,-0.003,0.779,0.627,-0.008,0.754,0.657,0.611,-0.501,-0.613,0.761,-0.386,0.521,0.758,-0.453,0.47,0.864,-0.217,0.455,0.867,-0.262,0.425,0.875,-0.263,0.407,0.857,-0.299,0.42,0.98,-0.083,-0.18,0.985,-0.109,-0.134,0.082,0.953,0.292,-0.016,0.971,0.237,rock
47.427757,0.562,0.434,-0.704,0.486,0.618,-0.618,-0.535,-0.555,0.636,0.333,-0.365,0.869,0.627,-0.426,0.652,0.161,-0.647,0.745,-0.132,-0.461,0.878,0.0,0.0,0.0,0.0,0.0,0.0,0.409,-0.238,0.881,0.507,-0.169,0.845,0.311,-0.647,0.696,0.334,-0.542,0.771,paper
18.851,0.548,0.482,-0.684,0.339,-0.813,-0.474,-0.298,-0.476,0.827,0.324,-0.445,0.835,-0.97,0.0,0.243,0.227,-0.638,0.736,-0.198,-0.725,-0.659,0.0,0.0,0.0,0.0,0.0,0.0,0.402,-0.279,0.872,-0.917,-0.282,0.282,0.333,-0.685,0.648,-0.935,-0.351,-0.058,rock
8.96119,-0.069,0.941,0.333,-0.43,-0.132,0.893,0.567,-0.792,0.227,0.882,0.028,-0.471,0.539,0.809,0.236,0.714,0.222,0.664,-0.398,0.734,0.551,0.812,0.064,0.58,-0.166,0.831,0.532,0.923,-0.061,0.381,-0.059,0.762,0.645,0.867,0.081,0.492,-0.425,0.589,0.687,paper
7.641658,-0.079,0.886,0.456,0.015,-0.676,-0.737,0.237,-0.592,-0.77,0.755,-0.61,0.239,-0.893,0.449,-0.016,0.905,-0.182,0.384,-0.979,-0.062,-0.195,0.75,0.314,0.582,-0.487,-0.456,-0.745,0.543,0.452,0.707,-0.236,-0.534,-0.812,0.238,0.965,0.107,-0.005,-0.945,-0.326,scissors
39.929529,0.516,0.563,-0.646,-0.43,-0.654,0.622,-0.314,-0.499,0.808,0.499,-0.315,0.808,-0.584,0.483,-0.652,0.066,-0.551,0.832,-0.166,0.366,-0.916,0.0,0.0,0.0,0.0,0.0,0.0,0.507,-0.096,0.857,-0.663,0.188,-0.724,0.401,-0.501,0.767,-0.564,0.476,-0.675,scissors
52.008751,0.448,0.377,-0.811,-0.0,-0.0,1.0,0.064,0.067,0.996,0.215,-0.475,0.853,-0.302,0.302,-0.905,0.309,-0.701,0.642,-0.885,0.147,-0.442,0.0,0.0,0.0,0.0,0.0,0.0,0.325,-0.375,0.868,-0.816,0.408,-0.408,0.277,-0.768,0.577,-0.832,0.555,0.0,paper
4.485853,-0.376,0.911,0.17,0.037,-0.938,-0.345,0.146,-0.986,0.077,0.488,-0.873,-0.011,-0.665,0.7,-0.262,0.834,-0.533,0.144,-0.894,0.253,-0.369,0.929,0.354,-0.11,-0.903,-0.177,-0.392,0.861,0.485,0.153,-0.733,-0.244,-0.635,0.233,0.968,-0.091,-0.258,-0.915,-0.311,scissors
16.679373,-0.123,0.949,0.292,-0.302,-0.905,0.302,0.821,-0.57,0.024,0.843,-0.004,-0.538,-0.267,0.802,-0.535,0.781,0.216,0.586,-0.885,0.442,0.147,0.861,0.036,0.507,-0.743,0.557,-0.371,0.94,-0.058,0.336,-0.793,0.566,0.226,0.881,0.117,0.458,-0.954,0.212,-0.212,paper
2.533769,-0.146,0.989,0.008,-0.221,0.965,0.141,-0.258,-0.913,0.316,0.746,-0.308,-0.591,0.719,-0.151,-0.679,0.751,0.497,0.435,0.653,0.64,0.405,0.936,0.15,0.317,0.878,0.296,0.376,0.897,0.159,0.413,0.798,0.308,0.517,0.843,0.283,0.457,0.735,0.389,0.555,paper
20.224881,0.055,0.672,0.739,0.081,0.744,0.663,0.493,-0.754,-0.434,0.865,-0.348,0.362,0.822,-0.5,0.274,0.974,-0.002,0.228,0.967,-0.133,0.217,0.827,-0.033,0.561,0.884,-0.06,0.464,0.815,-0.003,0.579,0.805,0.033,0.592,0.02,0.812,0.583,-0.032,0.888,0.46,scissors
59.846248,0.379,0.483,-0.789,-0.671,0.695,0.259,-0.016,0.364,0.931,0.239,-0.602,0.762,0.693,-0.346,-0.633,0.431,-0.586,0.686,0.112,0.86,0.498,0.0,0.0,0.0,0.0,0.0,0.0,0.416,-0.503,0.758,0.841,0.036,-0.54,0.405,-0.788,0.464,0.891,0.421,-0.173,paper
14.167781,0.15,0.719,-0.679,-0.432,-0.694,0.576,-0.317,-0.5,0.806,0.488,-0.71,0.508,-0.522,0.505,-0.687,0.442,-0.257,0.86,-0.17,0.417,-0.893,0.0,0.0,0.0,0.0,0.0,0.0,0.707,-0.428,0.563,-0.616,0.205,-0.761,0.713,-0.578,0.397,-0.523,0.506,-0.686,rock
5.192545,-0.044,0.974,0.223,0.041,-0.881,-0.471,0.343,-0.698,-0.628,0.572,-0.75,0.332,-0.784,0.611,-0.107,0.819,-0.352,0.453,-0.972,0.158,-0.174,0.961,0.036,0.273,-0.819,-0.397,-0.414,0.857,0.126,0.499,-0.642,-0.42,-0.642,0.414,0.882,0.225,-0.066,-0.944,-0.323,scissors
23.592339,0.645,0.501,-0.577,0.615,0.761,-0.205,-0.289,-0.215,0.933,0.395,-0.34,0.853,0.8,-0.104,0.591,0.083,-0.637,0.767,-0.462,-0.308,0.832,0.0,0.0,0.0,0.0,0.0,0.0,0.406,-0.14,0.903,0.561,0.28,0.779,0.294,-0.577,0.762,0.219,-0.094,0.971,paper
58.662682,0.349,0.336,-0.875,-0.104,0.729,0.677,-0.021,0.441,0.897,0.132,-0.598,0.791,0.741,0.395,-0.543,0.444,-0.665,0.6,-0.732,0.646,0.215,0.0,0.0,0.0,0.0,0.0,0.0,0.309,-0.527,0.791,0.543,0.784,-0.302,0.3,-0.844,0.444,0.156,0.937,0.312,rock
62.12248,0.373,0.499,-0.782,-0.338,0.375,0.863,0.187,0.171,0.967,0.315,-0.548,0.775,0.484,0.277,-0.83,0.353,-0.578,0.736,-0.539,0.842,-0.034,0.0,0.0,0.0,0.0,0.0,0.0,0.459,-0.405,0.791,0.341,0.606,-0.719,0.427,-0.723,0.543,0.187,0.971,-0.149,scissors
13.757495,0.049,0.911,0.409,0.331,0.883,-0.331,-0.703,-0.71,-0.045,0.973,-0.008,-0.233,0.474,-0.296,-0.829,0.518,0.371,0.771,0.891,-0.089,0.445,0.624,0.318,0.713,0.984,-0.179,0.0,0.455,0.368,0.811,0.755,0.108,0.647,0.718,-0.082,0.691,0.905,-0.302,-0.302,paper
18.067589,0.557,0.479,-0.678,0.514,0.857,0.0,-0.332,-0.45,0.829,0.306,-0.422,0.853,0.949,0.0,-0.316,0.209,-0.665,0.717,-0.97,-0.0,0.243,0.0,0.0,0.0,0.0,0.0,0.0,0.372,-0.264,0.89,0.267,0.535,0.802,0.295,-0.686,0.665,-0.566,0.424,0.707,paper
10.969776,0.026,0.998,0.052,-0.056,-0.972,-0.228,-0.595,-0.769,0.233,0.685,-0.459,0.565,-0.718,0.495,-0.49,0.658,-0.223,0.719,-0.74,0.224,-0.634,0.753,-0.214,0.623,-0.773,0.252,-0.581,0.827,0.019,0.562,-0.846,0.022,-0.533,0.829,0.443,0.342,-0.784,-0.452,-0.425,rock
7.653938,-0.356,0.835,0.419,-0.123,0.912,0.392,0.198,-0.731,-0.653,0.684,-0.727,-0.064,0.701,-0.701,0.133,0.943,-0.324,0.071,0.925,-0.234,0.299,0.865,0.481,0.143,0.896,0.274,0.349,0.73,0.568,0.381,0.692,0.349,0.632,0.047,0.996,0.078,0.127,0.959,0.254,scissors
0.120157,-0.104,0.992,0.066,0.0,-0.243,-0.97,0.224,-0.917,0.33,0.48,-0.694,0.537,-0.667,0.333,-0.667,0.721,-0.452,0.524,-0.707,-0.0,0.707,0.709,-0.444,0.548,-0.905,-0.302,0.302,0.902,0.02,0.432,-0.962,0.0,0.275,0.68,0.675,0.286,-0.447,-0.0,-0.894,rock
12.538545,0.531,0.457,-0.714,0.607,0.534,-0.589,-0.139,-0.141,0.98,0.276,-0.474,0.836,0.56,-0.5,0.66,0.265,-0.656,0.706,-0.019,-0.447,0.894,0.0,0.0,0.0,0.0,0.0,0.0,0.372,-0.33,0.867,0.603,-0.175,0.778,0.314,-0.727,0.611,0.4,-0.48,0.78,rock
5.221714,-0.082,0.946,0.312,-0.707,0.707,-0.0,0.71,-0.702,0.049,0.867,0.046,-0.497,0.236,0.236,-0.943,0.725,0.229,0.649,-0.688,0.229,0.688,0.834,0.069,0.548,-0.0,1.0,0.0,0.938,-0.058,0.341,-0.625,0.469,0.625,0.884,0.091,0.459,-0.937,0.312,-0.156,paper
32.727922,0.57,0.345,-0.745,0.521,0.329,-0.788,-0.235,-0.168,0.957,0.217,-0.41,0.886,0.145,-0.453,0.88,0.208,-0.743,0.636,0.169,-0.768,0.618,0.0,0.0,0.0,0.0,0.0,0.0,0.265,-0.305,0.915,0.225,-0.341,0.913,0.183,-0.746,0.641,0.113,-0.742,0.66,rock
7.45856,0.357,0.613,-0.705,0.067,-0.967,0.244,-0.429,-0.34,0.837,0.407,-0.631,0.661,-0.794,0.606,-0.048,0.401,-0.423,0.813,-0.276,-0.25,-0.928,0.0,0.0,0.0,0.0,0.0,0.0,0.593,-0.401,0.698,-0.963,0.196,-0.183,0.596,-0.662,0.455,-0.942,0.136,-0.307,paper
12.13303,0.023,0.847,0.532,-0.047,-0.852,-0.521,-0.177,-0.968,-0.179,0.696,-0.363,0.62,-0.607,0.355,-0.711,0.796,-0.23,0.559,-0.781,0.26,-0.567,0.831,-0.211,0.515,-0.749,0.21,-0.629,0.997,-0.047,-0.063,-0.989,0.087,-0.116,0.204,0.923,0.326,-0.333,-0.863,-0.379,rock
55.904714,0.488,0.452,-0.747,0.523,0.505,-0.686,-0.094,0.148,0.984,0.334,-0.414,0.847,0.418,-0.399,0.816,0.229,-0.648,0.727,-0.0,-0.629,0.777,0.0,0.0,0.0,0.0,0.0,0.0,0.421,-0.277,0.864,0.433,-0.18,0.883,0.347,-0.67,0.656,0.243,-0.542,0.804,paper
22.630884,0.597,0.541,-0.593,-0.606,-0.441,0.662,-0.436,-0.114,0.892,0.404,-0.377,0.833,-0.21,0.395,-0.894,0.134,-0.612,0.779,-0.286,0.703,-0.651,0.0,0.0,0.0,0.0,0.0,0.0,0.439,-0.178,0.88,-0.302,0.302,-0.905,0.347,-0.596,0.724,-0.302,0.714,-0.632,scissors
1.673134,-0.219,0.973,0.074,-0.145,0.969,0.199,-0.149,-0.895,0.42,0.421,-0.791,0.445,0.454,-0.819,0.35,0.734,-0.549,0.399,0.784,-0.523,0.335,0.687,-0.572,0.449,0.728,-0.555,0.403,0.933,-0.123,0.339,0.941,-0.074,0.33,0.617,0.772,0.151,0.486,0.851,0.198,rock
2.886588,-0.203,0.979,-0.004,0.114,-0.982,-0.149,-0.436,-0.861,0.263,0.404,-0.777,0.483,-0.479,0.74,-0.471,0.718,-0.54,0.438,-0.78,0.464,-0.421,0.679,-0.553,0.484,-0.726,0.479,-0.494,0.922,-0.112,0.371,-0.916,0.019,-0.402,0.643,0.748,0.163,-0.588,-0.754,-0.294,rock
9.549021,0.502,0.59,-0.632,0.0,1.0,-0.0,-0.106,-0.252,0.962,0.401,-0.475,0.783,0.0,0.0,-1.0,0.226,-0.564,0.794,-0.953,0.136,-0.272,0.0,0.0,0.0,0.0,0.0,0.0,0.476,-0.258,0.841,-0.408,0.408,-0.816,0.414,-0.632,0.655,-0.857,0.514,0.0,paper
43.787089,0.394,0.475,-0.787,-0.642,0.696,0.321,-0.163,-0.463,0.871,0.318,-0.529,0.787,0.535,-0.267,-0.802,0.343,-0.583,0.736,-0.176,0.94,0.294,0.0,0.0,0.0,0.0,0.0,0.0,0.459,-0.385,0.801,0.701,0.128,-0.701,0.416,-0.727,0.547,0.653,0.725,-0.218,rock
34.118971,0.444,0.544,-0.712,0.536,0.544,-0.645,-0.788,-0.172,0.592,0.407,-0.448,0.796,0.417,-0.408,0.812,0.246,-0.574,0.781,0.061,-0.58,0.812,0.0,0.0,0.0,0.0,0.0,0.0,0.511,-0.26,0.819,0.475,-0.16,0.865,0.438,-0.642,0.629,0.326,-0.548,0.77,paper
57.954063,0.547,0.454,-0.704,-0.276,-0.921,0.276,-0.377,0.256,0.89,0.321,-0.391,0.863,-0.704,0.352,-0.616,0.183,-0.66,0.728,-0.477,0.08,-0.875,0.0,0.0,0.0,0.0,0.0,0.0,0.392,-0.255,0.884,-0.858,0.191,-0.477,0.304,-0.653,0.694,-0.862,0.359,-0.359,rock
27.835109,0.508,0.666,-0.546,-0.485,-0.848,0.214,-0.208,-0.371,0.905,0.547,-0.38,0.746,-0.768,0.197,-0.609,0.101,-0.467,0.878,0.141,0.245,-0.959,0.0,0.0,0.0,0.0,0.0,0.0,0.584,-0.111,0.804,-0.694,-0.157,-0.703,0.502,-0.472,0.724,-0.545,0.166,-0.822,paper
20.227576,0.001,0.74,0.672,0.101,0.704,0.704,0.34,-0.829,-0.444,0.82,-0.422,0.386,0.861,-0.369,0.349,0.964,-0.096,0.249,0.964,-0.03,0.264,0.883,-0.073,0.464,0.822,-0.09,0.562,0.877,-0.041,0.478,0.779,-0.051,0.625,0.101,0.851,0.516,-0.02,0.839,0.543,scissors
31.335587,0.599,0.495,-0.63,0.634,0.547,-0.547,-0.238,-0.47,0.85,0.438,-0.359,0.824,0.632,-0.302,0.714,0.109,-0.58,0.807,-0.252,-0.453,0.855,0.0,0.0,0.0,0.0,0.0,0.0,0.466,-0.137,0.874,0.525,0.05,0.85,0.376,-0.548,0.747,0.255,-0.306,0.917,scissors
1.978618,-0.131,0.751,0.648,-0.667,0.667,0.333,0.74,-0.577,-0.346,0.763,-0.542,0.352,0.614,0.383,-0.69,0.973,-0.18,0.147,0.457,-0.762,-0.457,0.91,0.023,0.415,0.667,0.667,0.333,0.914,0.046,0.404,-0.137,0.549,0.824,0.064,0.894,0.443,-0.677,0.677,-0.29,scissors
2.534628,-0.198,0.979,-0.05,-0.137,0.969,0.205,-0.401,-0.893,0.203,0.662,-0.38,-0.646,0.808,-0.208,-0.551,0.819,0.452,0.353,0.642,0.549,0.535,0.966,0.106,0.237,0.847,0.19,0.497,0.928,0.129,0.349,0.753,0.191,0.63,0.862,0.293,0.413,0.752,0.237,0.615,paper
22.04353,0.45,0.683,-0.576,-0.953,0.286,-0.095,-0.464,-0.132,0.876,0.53,-0.435,0.728,0.233,-0.466,-0.854,0.169,-0.454,0.875,-0.0,0.994,0.11,0.0,0.0,0.0,0.0,0.0,0.0,0.602,-0.158,0.783,0.549,-0.329,-0.768,0.532,-0.501,0.683,0.469,0.625,-0.625,scissors
32.923782,0.407,0.459,-0.79,0.506,0.551,-0.664,-0.276,-0.089,0.957,0.281,-0.55,0.786,0.384,-0.466,0.797,0.349,-0.609,0.713,0.109,-0.598,0.794,0.0,0.0,0.0,0.0,0.0,0.0,0.416,-0.403,0.815,0.438,-0.242,0.866,0.381,-0.753,0.536,0.316,-0.597,0.737,paper
16.243095,0.594,0.439,-0.674,0.63,0.51,-0.585,-0.514,-0.552,0.657,0.333,-0.383,0.861,0.347,-0.394,0.851,0.156,-0.662,0.734,-0.016,-0.667,0.745,0.0,0.0,0.0,0.0,0.0,0.0,0.379,-0.211,0.901,0.348,-0.166,0.923,0.289,-0.643,0.709,0.156,-0.562,0.812,paper
11.093454,0.516,0.6,-0.611,0.704,0.704,-0.088,-0.137,-0.232,0.963,0.413,-0.453,0.79,0.928,0.0,-0.371,0.206,-0.566,0.798,-0.93,0.116,0.349,0.0,0.0,0.0,0.0,0.0,0.0,0.481,-0.232,0.845,0.688,0.688,0.229,0.414,-0.614,0.672,-0.324,0.487,0.811,paper
9.629587,-0.024,0.948,0.316,0.262,0.785,-0.561,0.487,-0.868,0.097,0.875,-0.024,-0.484,0.13,-0.52,-0.844,0.737,0.167,0.655,0.85,-0.526,-0.0,0.824,0.001,0.567,0.748,-0.636,-0.187,0.92,-0.124,0.372,0.585,-0.765,-0.27,0.879,0.028,0.475,0.757,-0.398,-0.518,paper
13.973341,0.477,0.569,-0.669,-0.879,-0.403,0.256,-0.249,-0.465,0.85,0.438,-0.453,0.777,-0.662,-0.0,-0.75,0.18,-0.539,0.823,0.304,0.456,-0.836,0.0,0.0,0.0,0.0,0.0,0.0,0.514,-0.221,0.829,-0.524,-0.269,-0.808,0.436,-0.584,0.685,-0.316,0.18,-0.932,rock
7.233483,0.552,0.834,-0.008,0.884,-0.466,0.037,-0.657,-0.425,0.623,0.823,-0.049,0.566,-0.475,0.583,0.659,-0.338,-0.155,0.928,-0.52,-0.772,-0.365,0.0,0.0,0.0,0.0,0.0,0.0,0.693,0.367,0.621,-0.77,0.28,0.574,0.512,0.089,0.855,-0.903,-0.12,0.412,rock
2.328717,0.027,0.999,0.027,0.021,0.918,0.396,-0.311,-0.889,0.336,0.659,-0.463,0.593,0.811,-0.487,0.324,0.63,-0.246,0.737,0.807,-0.147,0.572,0.731,-0.21,0.649,0.864,-0.225,0.45,0.808,0.03,0.588,0.901,0.037,0.432,0.855,0.411,0.317,0.675,0.495,0.547,rock
6.110372,-0.043,0.921,0.386,0.112,-0.726,-0.679,-0.186,-0.975,-0.12,0.725,-0.632,0.274,-0.859,0.505,-0.085,0.896,-0.22,0.385,-0.975,0.005,-0.222,0.79,0.284,0.543,-0.577,-0.41,-0.706,0.582,0.424,0.694,-0.335,-0.53,-0.779,0.273,0.96,0.065,-0.051,-0.963,-0.265,scissors
29.833387,0.603,0.489,-0.63,0.512,-0.384,-0.768,-0.681,-0.613,0.4,0.365,-0.342,0.866,-0.943,0.236,0.236,0.112,-0.656,0.747,-0.684,-0.57,-0.456,0.0,0.0,0.0,0.0,0.0,0.0,0.383,-0.165,0.909,-0.781,-0.0,0.625,0.288,-0.605,0.742,-0.953,-0.095,0.286,scissors
39.710425,0.614,0.601,-0.511,-0.644,-0.465,0.608,-0.362,-0.421,0.831,0.554,-0.229,0.801,-0.396,0.266,-0.879,-0.061,-0.522,0.851,0.0,0.647,-0.762,0.0,0.0,0.0,0.0,0.0,0.0,0.513,0.017,0.858,-0.372,0.1,-0.923,0.375,-0.389,0.841,-0.247,0.524,-0.815,scissors
7.477854,-0.229,0.695,0.681,-0.0,0.725,0.689,0.017,-0.887,-0.461,0.799,-0.556,0.229,0.825,-0.462,0.326,0.981,-0.19,0.026,0.982,-0.09,0.165,0.892,0.198,0.405,0.862,-0.03,0.505,0.879,0.208,0.429,0.82,-0.008,0.572,-0.051,0.931,0.36,-0.052,0.867,0.496,scissors
34.075419,0.429,0.51,-0.745,0.509,0.532,-0.677,-0.761,-0.141,0.633,0.395,-0.512,0.762,0.425,-0.421,0.801,0.297,-0.536,0.791,0.073,-0.566,0.821,0.0,0.0,0.0,0.0,0.0,0.0,0.538,-0.316,0.781,0.486,-0.165,0.859,0.482,-0.661,0.575,0.343,-0.545,0.765,rock
3.088025,0.482,0.207,-0.852,0.265,0.907,-0.326,0.062,-0.264,0.963,-0.076,-0.691,0.719,0.783,-0.562,0.268,0.544,-0.711,0.445,0.109,0.073,0.991,0.0,0.0,0.0,0.0,0.0,0.0,0.098,-0.661,0.744,0.872,-0.126,0.474,0.132,-0.952,0.277,0.769,-0.236,0.593,paper
1.006445,0.1,0.98,0.172,-0.98,-0.089,0.178,-0.036,-0.986,0.162,0.891,-0.206,-0.404,-0.608,0.76,-0.228,0.696,0.156,0.701,-0.429,0.857,0.286,0.791,0.096,0.604,0.169,0.845,-0.507,0.653,0.176,0.737,-0.351,0.936,-0.0,0.811,-0.177,0.557,-0.69,0.614,-0.383,paper
12.839067,0.521,0.521,-0.676,0.272,0.707,-0.653,-0.212,-0.182,0.96,0.356,-0.449,0.82,0.894,-0.358,0.268,0.222,-0.61,0.761,-0.574,-0.215,0.79,0.0,0.0,0.0,0.0,0.0,0.0,0.44,-0.263,0.859,0.777,0.173,0.605,0.375,-0.656,0.656,0.179,-0.0,0.984,scissors
3.030734,0.42,0.295,-0.858,-0.325,0.909,-0.26,0.062,-0.264,0.963,0.02,-0.832,0.554,0.633,-0.722,0.279,0.69,-0.478,0.544,0.24,-0.024,0.971,0.0,0.0,0.0,0.0,0.0,0.0,0.319,-0.755,0.573,0.821,-0.274,0.502,0.41,-0.898,0.159,0.739,-0.353,0.574,scissors
1.516071,-0.099,0.995,0.023,-0.191,0.964,0.183,0.217,-0.931,0.293,0.802,-0.298,-0.518,0.77,-0.128,-0.625,0.696,0.484,0.53,0.601,0.643,0.476,0.892,0.146,0.429,0.852,0.292,0.434,0.844,0.147,0.516,0.749,0.306,0.587,0.827,0.207,0.523,0.708,0.354,0.611,paper
8.54431,0.444,0.554,-0.704,-0.943,0.178,-0.28,0.025,-0.236,0.971,0.345,-0.567,0.748,0.054,-0.65,-0.758,0.331,-0.544,0.771,0.653,0.756,0.034,0.0,0.0,0.0,0.0,0.0,0.0,0.479,-0.367,0.798,0.416,-0.564,-0.713,0.449,-0.695,0.562,0.616,-0.034,-0.787,rock
22.281331,0.55,0.603,-0.578,-0.477,-0.304,0.825,-0.403,-0.076,0.912,0.461,-0.391,0.797,-0.054,0.49,-0.87,0.134,-0.552,0.823,-0.393,0.733,-0.554,0.0,0.0,0.0,0.0,0.0,0.0,0.502,-0.161,0.85,-0.207,0.453,-0.867,0.412,-0.554,0.724,-0.226,0.83,-0.509,rock
2.594454,-0.253,0.929,0.269,-0.102,0.926,0.365,-0.32,-0.772,-0.549,0.577,-0.811,0.092,0.664,-0.73,0.165,0.871,-0.43,0.236,0.905,-0.285,0.314,0.956,0.28,0.086,0.91,0.25,0.33,0.857,0.387,0.341,0.732,0.326,0.599,0.24,0.969,0.055,0.183,0.955,0.236,scissors
57.365206,0.549,0.451,-0.704,0.324,-0.487,0.811,-0.424,0.227,0.877,0.314,-0.398,0.862,-0.309,0.619,-0.722,0.189,-0.664,0.724,-0.796,0.239,-0.557,0.0,0.0,0.0,0.0,0.0,0.0,0.383,-0.267,0.884,-0.647,0.539,-0.539,0.296,-0.665,0.686,-0.777,0.605,-0.173,rock
30.491201,-0.037,0.81,0.586,-0.211,-0.66,-0.721,-0.312,-0.893,-0.326,0.724,-0.424,0.544,-0.85,0.217,-0.48,0.841,-0.27,0.468,-0.913,0.02,-0.408,0.842,-0.296,0.452,-0.93,0.106,-0.352,0.984,-0.123,-0.129,-0.978,-0.075,0.196,0.128,0.961,0.246,0.02,-0.872,-0.489,rock
49.585173,0.604,0.48,-0.637,-0.068,-0.939,-0.338,-0.328,-0.21,0.921,0.391,-0.395,0.831,-0.115,-0.377,-0.919,0.206,-0.577,0.791,0.501,0.809,-0.307,0.0,0.0,0.0,0.0,0.0,0.0,0.494,-0.258,0.831,0.19,-0.31,-0.931,0.417,-0.627,0.657,0.394,0.223,-0.892,scissors
51.245295,0.442,0.388,-0.809,-0.926,-0.337,-0.168,0.068,0.056,0.996,0.245,-0.481,0.842,-0.077,0.0,-0.997,0.308,-0.679,0.667,-0.287,0.766,-0.575,0.0,0.0,0.0,0.0,0.0,0.0,0.368,-0.358,0.858,-0.192,0.192,-0.962,0.33,-0.745,0.58,-0.331,0.745,-0.579,rock
1.855712,-0.207,0.94,0.27,-0.123,0.915,0.384,-0.44,-0.895,0.067,0.612,-0.775,0.157,0.666,-0.729,0.16,0.876,-0.376,0.3,0.904,-0.295,0.309,0.95,0.258,0.175,0.91,0.249,0.331,0.836,0.351,0.421,0.727,0.33,0.602,0.274,0.952,0.137,0.183,0.956,0.231,scissors
37.063615,0.427,0.36,-0.829,-0.282,0.846,-0.451,-0.521,-0.456,0.721,0.173,-0.533,0.828,0.491,-0.836,-0.246,0.369,-0.692,0.62,0.419,0.349,0.838,0.0,0.0,0.0,0.0,0.0,0.0,0.29,-0.455,0.842,0.831,-0.554,-0.055,0.253,-0.823,0.508,0.908,-0.419,0.0,paper
14.529066,0.443,0.347,-0.827,-0.273,-0.309,0.911,-0.097,-0.498,0.862,0.18,-0.638,0.749,-0.06,0.711,-0.701,0.469,-0.615,0.634,-0.535,0.595,-0.6,0.0,0.0,0.0,0.0,0.0,0.0,0.365,-0.522,0.771,-0.313,0.616,-0.723,0.37,-0.84,0.396,-0.348,0.867,-0.358,paper
1.275871,0.328,0.598,-0.732,-0.802,0.166,0.573,0.021,-0.139,0.99,0.401,-0.678,0.615,0.177,0.321,-0.93,0.42,-0.399,0.815,-0.3,0.901,-0.312,0.0,0.0,0.0,0.0,0.0,0.0,0.601,-0.422,0.679,0.045,0.336,-0.941,0.602,-0.645,0.471,0.095,0.846,-0.524,paper
11.093454,0.516,0.6,-0.611,0.704,0.704,-0.088,-0.137,-0.232,0.963,0.413,-0.453,0.79,0.928,0.0,-0.371,0.206,-0.566,0.798,-0.93,0.116,0.349,0.0,0.0,0.0,0.0,0.0,0.0,0.481,-0.232,0.845,0.688,0.688,0.229,0.414,-0.614,0.672,-0.324,0.487,0.811,scissors
54.591697,0.487,0.433,-0.758,0.482,0.241,-0.843,-0.056,-0.005,0.998,0.314,-0.428,0.847,-0.267,-0.535,0.802,0.248,-0.653,0.715,-0.7,-0.7,0.14,0.0,0.0,0.0,0.0,0.0,0.0,0.409,-0.301,0.861,-0.156,-0.312,0.937,0.343,-0.688,0.64,-0.744,-0.248,0.62,paper
15.314141,0.563,0.454,-0.691,-0.031,-0.357,0.934,-0.507,-0.601,0.618,0.245,-0.522,0.817,0.085,0.829,-0.553,0.323,-0.653,0.685,-0.734,0.5,-0.459,0.0,0.0,0.0,0.0,0.0,0.0,0.356,-0.4,0.845,-0.249,0.802,-0.542,0.313,-0.774,0.55,-0.363,0.928,-0.085,scissors
34.62536,0.469,0.533,-0.705,0.491,0.632,-0.6,-0.797,-0.433,0.421,0.396,-0.43,0.811,0.518,-0.426,0.742,0.213,-0.59,0.779,0.045,-0.502,0.864,0.0,0.0,0.0,0.0,0.0,0.0,0.474,-0.24,0.847,0.546,-0.158,0.822,0.393,-0.632,0.668,0.387,-0.502,0.773,scissors
8.051322,0.02,0.835,0.55,-0.094,-0.82,-0.564,0.574,-0.519,-0.634,0.71,-0.374,0.597,-0.69,0.354,-0.631,0.814,-0.233,0.532,-0.826,0.221,-0.519,0.841,-0.231,0.49,-0.809,0.211,-0.548,0.994,-0.061,-0.09,-0.998,0.067,-0.017,0.176,0.935,0.308,-0.205,-0.904,-0.375,rock
50.045612,0.569,0.433,-0.699,0.674,-0.724,-0.15,-0.121,0.026,0.992,0.239,-0.352,0.905,-0.665,0.607,0.434,0.163,-0.733,0.661,-0.496,-0.652,-0.574,0.0,0.0,0.0,0.0,0.0,0.0,0.29,-0.256,0.922,-0.897,0.252,0.364,0.179,-0.7,0.691,-0.98,-0.025,0.196,paper
28.685339,0.447,0.628,-0.636,-0.515,-0.615,0.597,-0.363,-0.651,0.666,0.474,-0.407,0.78,-0.501,0.392,-0.772,0.153,-0.541,0.827,-0.084,0.5,-0.862,0.0,0.0,0.0,0.0,0.0,0.0,0.518,-0.165,0.84,-0.534,0.125,-0.836,0.439,-0.552,0.709,-0.427,0.493,-0.758,paper
2.536533,0.147,0.962,0.23,-0.667,0.333,0.667,-0.091,-0.989,0.118,0.92,-0.188,-0.344,0.324,0.811,-0.487,0.658,0.154,0.737,-0.457,0.762,0.457,0.75,0.121,0.65,-0.164,0.986,0.0,0.608,0.18,0.773,-0.647,0.74,0.185,0.775,-0.196,0.601,-0.768,0.64,0.0,paper
7.719894,-0.319,0.837,0.444,-0.108,0.872,0.478,0.24,-0.735,-0.634,0.726,-0.686,-0.044,0.726,-0.686,0.048,0.961,-0.262,0.083,0.946,-0.228,0.228,0.829,0.522,0.202,0.877,0.352,0.328,0.657,0.608,0.446,0.659,0.442,0.609,0.032,0.988,0.149,0.049,0.974,0.219,scissors
54.375108,0.506,0.444,-0.74,0.162,-0.162,-0.973,-0.061,-0.025,0.998,0.314,-0.403,0.86,-0.87,-0.348,-0.348,0.223,-0.669,0.709,-0.514,-0.514,-0.686,0.0,0.0,0.0,0.0,0.0,0.0,0.394,-0.278,0.876,-0.8,-0.6,-0.0,0.321,-0.681,0.658,-0.98,-0.14,-0.14,scissors
4.039899,-0.362,0.929,-0.079,0.086,-0.972,-0.22,0.474,-0.881,0.002,0.235,-0.878,0.416,-0.505,0.723,-0.471,0.638,-0.696,0.329,-0.793,0.434,-0.427,0.561,-0.707,0.43,-0.746,0.45,-0.491,0.89,-0.305,0.338,-0.919,-0.015,-0.394,0.639,0.768,-0.037,-0.572,-0.752,-0.327,rock
32.685399,0.588,0.353,-0.728,0.602,0.317,-0.732,-0.229,-0.188,0.955,0.221,-0.388,0.895,0.158,-0.414,0.896,0.187,-0.746,0.639,0.126,-0.778,0.615,0.0,0.0,0.0,0.0,0.0,0.0,0.26,-0.283,0.923,0.209,-0.303,0.93,0.17,-0.731,0.661,0.089,-0.719,0.689,paper
0.198946,0.456,0.447,-0.77,0.642,-0.752,0.147,0.052,-0.082,0.995,0.331,-0.529,0.781,-0.658,0.731,0.183,0.248,-0.583,0.774,-0.528,-0.342,-0.777,0.0,0.0,0.0,0.0,0.0,0.0,0.453,-0.299,0.84,-0.933,0.322,0.161,0.395,-0.66,0.639,-0.986,0.164,0.027,scissors
20.170563,0.441,0.559,-0.702,0.467,0.534,-0.705,-0.181,-0.411,0.894,0.375,-0.523,0.765,0.415,-0.519,0.747,0.295,-0.546,0.785,0.123,-0.555,0.823,0.0,0.0,0.0,0.0,0.0,0.0,0.499,-0.322,0.804,0.495,-0.263,0.828,0.457,-0.669,0.587,0.358,-0.6,0.716,scissors
0.872878,-0.126,0.947,0.297,-0.867,0.248,-0.433,0.755,-0.652,0.069,0.844,0.108,-0.526,-0.458,0.229,-0.859,0.734,0.279,0.619,0.0,0.468,-0.884,0.855,0.108,0.508,-0.078,0.35,-0.933,0.962,-0.036,0.271,-0.726,0.341,-0.598,0.875,-0.052,0.482,-0.784,-0.361,0.504,paper
3.970235,0.032,0.816,0.577,0.68,-0.68,-0.272,0.491,-0.808,-0.326,0.726,-0.361,0.585,0.115,0.577,-0.808,0.825,-0.205,0.526,-0.436,0.873,0.218,0.856,-0.211,0.472,-0.0,0.857,-0.514,0.993,-0.038,-0.112,-0.688,0.688,-0.229,0.156,0.927,0.34,-0.845,-0.507,0.169,rock
3.59929,-0.227,0.973,0.049,0.114,-0.989,-0.094,0.179,-0.924,0.337,0.4,-0.8,0.446,-0.459,0.705,-0.54,0.729,-0.561,0.392,-0.74,0.463,-0.487,0.681,-0.586,0.44,-0.692,0.455,-0.56,0.933,-0.139,0.331,-0.883,0.009,-0.47,0.613,0.779,0.135,-0.649,-0.697,-0.305,rock
39.079836,0.533,0.488,-0.691,-0.479,-0.703,0.526,-0.565,-0.18,0.805,0.407,-0.423,0.81,-0.581,0.388,-0.715,0.195,-0.598,0.778,-0.052,0.436,-0.898,0.0,0.0,0.0,0.0,0.0,0.0,0.466,-0.263,0.845,-0.598,0.111,-0.794,0.381,-0.652,0.655,-0.463,0.448,-0.765,rock
11.332684,0.544,0.601,-0.585,-0.192,0.962,0.192,-0.142,-0.272,0.952,0.44,-0.407,0.8,0.123,-0.123,-0.985,0.152,-0.567,0.809,-0.667,0.667,-0.333,0.0,0.0,0.0,0.0,0.0,0.0,0.486,-0.171,0.857,-0.0,-0.164,-0.986,0.403,-0.569,0.717,-0.686,0.514,-0.514,scissors
48.908908,0.42,0.499,-0.758,0.632,0.495,-0.596,-0.338,-0.167,0.926,0.358,-0.482,0.8,0.408,-0.251,0.878,0.281,-0.579,0.765,-0.098,-0.647,0.756,0.0,0.0,0.0,0.0,0.0,0.0,0.484,-0.332,0.809,0.397,-0.067,0.915,0.422,-0.68,0.6,0.194,-0.481,0.855,paper
29.470252,0.037,0.809,0.586,-0.745,-0.596,0.298,-0.445,-0.55,-0.707,0.744,-0.35,0.569,-0.0,-0.287,-0.958,0.835,-0.196,0.514,-0.365,-0.183,-0.913,0.865,-0.207,0.457,-0.12,-0.241,-0.963,0.991,-0.032,-0.127,-0.707,-0.0,-0.707,0.147,0.93,0.338,-0.855,0.142,-0.499,rock
7.71335,-0.003,0.851,0.525,0.048,-0.819,-0.572,0.232,-0.56,-0.796,0.803,-0.545,0.24,-0.823,0.551,-0.14,0.907,-0.106,0.408,-0.957,0.065,-0.283,0.708,0.267,0.654,-0.619,-0.357,-0.699,0.507,0.392,0.768,-0.408,-0.453,-0.793,0.251,0.949,0.19,-0.156,-0.957,-0.245,scissors
51.965137,0.45,0.373,-0.811,-0.667,-0.333,-0.667,0.064,0.067,0.996,0.234,-0.476,0.848,-0.218,-0.436,-0.873,0.301,-0.687,0.661,-0.784,0.196,-0.588,0.0,0.0,0.0,0.0,0.0,0.0,0.347,-0.359,0.866,-0.667,-0.333,-0.667,0.298,-0.75,0.59,-0.913,0.365,-0.183,paper
9.923454,-0.36,0.828,0.43,-0.427,0.233,0.874,-0.348,-0.936,0.046,0.702,-0.711,-0.045,0.759,-0.388,-0.523,0.949,-0.3,0.095,0.921,-0.055,-0.387,0.826,0.533,0.182,0.498,0.859,0.12,0.673,0.589,0.448,0.237,0.882,0.407,0.042,0.992,0.12,-0.57,0.821,0.017,scissors
39.776506,0.553,0.599,-0.579,-0.637,-0.494,0.592,-0.293,-0.451,0.843,0.525,-0.313,0.792,-0.486,0.336,-0.807,0.048,-0.53,0.846,-0.052,0.542,-0.839,0.0,0.0,0.0,0.0,0.0,0.0,0.522,-0.085,0.849,-0.491,0.119,-0.863,0.412,-0.485,0.772,-0.374,0.494,-0.785,rock
16.502775,0.532,0.508,-0.677,0.49,0.547,-0.679,-0.475,-0.532,0.701,0.352,-0.466,0.812,0.332,-0.528,0.782,0.241,-0.6,0.763,0.095,-0.645,0.759,0.0,0.0,0.0,0.0,0.0,0.0,0.444,-0.28,0.851,0.392,-0.28,0.877,0.383,-0.665,0.641,0.232,-0.638,0.734,scissors
3.557483,0.154,0.958,0.244,-1.0,0.0,-0.0,-0.099,-0.989,0.112,0.92,-0.198,-0.339,-0.485,0.485,-0.728,0.658,0.148,0.739,-0.873,0.218,0.436,0.745,0.116,0.657,-0.707,0.707,0.0,0.6,0.176,0.78,-0.889,0.381,0.254,0.773,-0.194,0.604,-0.985,0.123,-0.123,paper
56.014134,0.495,0.443,-0.747,0.59,0.452,-0.669,-0.089,0.2,0.976,0.315,-0.407,0.857,0.384,-0.339,0.859,0.224,-0.668,0.71,-0.044,-0.661,0.749,0.0,0.0,0.0,0.0,0.0,0.0,0.399,-0.277,0.874,0.331,-0.233,0.914,0.32,-0.68,0.66,0.147,-0.587,0.796,rock
12.213293,0.593,0.31,-0.743,-0.51,-0.209,0.835,-0.197,-0.237,0.951,0.253,-0.362,0.897,0.184,0.368,-0.911,0.121,-0.74,0.662,-0.31,0.892,-0.329,0.0,0.0,0.0,0.0,0.0,0.0,0.287,-0.193,0.938,0.061,0.438,-0.897,0.172,-0.663,0.729,0.072,0.884,-0.462,scissors
6.616164,-0.041,0.998,-0.038,-0.397,-0.914,-0.079,0.058,-0.917,-0.394,0.745,-0.451,-0.491,-0.865,0.481,-0.144,0.782,0.359,0.509,-0.658,-0.047,-0.752,0.913,0.004,0.407,-0.592,0.228,-0.774,0.858,-0.006,0.513,-0.652,0.304,-0.695,0.888,0.133,0.439,-0.791,0.288,-0.54,paper
18.068944,0.102,0.975,0.199,0.759,-0.12,-0.639,-0.253,-0.892,0.374,0.771,-0.409,0.488,0.111,0.889,0.444,0.731,-0.124,0.671,-0.452,0.666,0.594,0.841,-0.156,0.517,-0.05,0.952,0.301,0.897,0.083,0.434,-0.296,0.933,0.205,0.776,0.387,0.498,0.323,-0.943,-0.081,rock
7.129723,0.683,0.705,-0.19,-0.297,-0.946,-0.13,-0.661,-0.411,0.628,0.665,-0.105,0.739,-0.945,0.241,-0.221,-0.229,-0.425,0.876,0.061,-0.204,-0.977,0.0,0.0,0.0,0.0,0.0,0.0,0.548,0.214,0.809,-0.931,-0.202,-0.304,0.371,-0.191,0.909,-0.817,-0.117,-0.564,rock
0.708506,-0.095,0.954,0.285,-0.429,-0.857,-0.286,0.744,-0.659,0.111,0.853,0.097,-0.512,0.108,0.647,-0.755,0.734,0.254,0.629,0.564,0.776,-0.282,0.852,0.081,0.516,0.725,0.544,-0.423,0.959,-0.056,0.278,0.352,0.755,-0.553,0.888,0.055,0.456,-0.814,-0.457,-0.357,paper
10.29618,-0.161,0.952,0.259,0.122,0.976,0.183,0.656,-0.668,0.353,0.807,0.06,-0.588,0.625,-0.0,-0.781,0.801,0.249,0.545,0.725,0.198,0.659,0.89,0.071,0.45,0.919,-0.0,0.394,0.968,-0.047,0.247,0.894,-0.0,0.447,0.913,0.155,0.377,0.941,0.282,0.188,paper
39.384169,0.595,0.317,-0.738,-0.479,-0.648,0.592,-0.474,-0.318,0.821,0.394,-0.396,0.83,-0.546,0.492,-0.678,0.119,-0.623,0.773,-0.164,0.412,-0.896,0.0,0.0,0.0,0.0,0.0,0.0,0.448,-0.218,0.867,-0.628,0.218,-0.747,0.336,-0.619,0.71,-0.53,0.512,-0.676,rock
11.18057,0.524,0.583,-0.621,0.218,0.436,0.873,-0.137,-0.232,0.963,0.422,-0.456,0.784,0.359,0.717,-0.598,0.205,-0.554,0.807,-0.973,0.162,-0.162,0.0,0.0,0.0,0.0,0.0,0.0,0.494,-0.229,0.839,-0.136,0.953,-0.272,0.427,-0.606,0.672,-0.634,0.724,0.272,rock
38.834116,0.528,0.598,-0.603,-0.608,-0.585,0.537,-0.782,-0.219,0.583,0.461,-0.421,0.781,-0.484,0.275,-0.831,0.176,-0.544,0.82,0.029,0.572,-0.82,0.0,0.0,0.0,0.0,0.0,0.0,0.524,-0.215,0.824,-0.454,0.056,-0.889,0.444,-0.585,0.679,-0.312,0.461,-0.831,rock
0.077512,-0.112,0.991,0.066,0.688,0.229,-0.688,0.224,-0.917,0.33,0.483,-0.695,0.533,-0.408,0.408,-0.816,0.725,-0.451,0.52,-0.707,0.0,0.707,0.713,-0.441,0.544,-0.816,0.408,0.408,0.905,0.024,0.424,-0.927,0.265,0.265,0.677,0.677,0.291,-0.588,-0.196,-0.784,rock
22.892641,0.571,0.586,-0.575,-0.656,-0.609,0.445,-0.371,-0.117,0.921,0.445,-0.368,0.817,-0.507,0.253,-0.824,0.114,-0.58,0.807,-0.044,0.524,-0.851,0.0,0.0,0.0,0.0,0.0,0.0,0.474,-0.147,0.868,-0.498,0.022,-0.867,0.376,-0.558,0.74,-0.412,0.433,-0.802,paper
2.535106,-0.22,0.975,0.022,-0.014,0.983,0.18,-0.412,-0.898,0.155,0.728,-0.275,-0.629,0.828,-0.206,-0.522,0.729,0.555,0.401,0.611,0.541,0.578,0.923,0.232,0.308,0.821,0.19,0.538,0.881,0.238,0.409,0.719,0.193,0.668,0.812,0.329,0.482,0.733,0.196,0.651,paper
37.777223,0.454,0.523,-0.721,-0.426,-0.609,0.669,-0.556,-0.599,0.576,0.38,-0.454,0.806,-0.246,0.394,-0.886,0.23,-0.588,0.775,-0.451,0.551,-0.702,0.0,0.0,0.0,0.0,0.0,0.0,0.46,-0.274,0.845,-0.444,0.333,-0.832,0.393,-0.65,0.65,-0.521,0.677,-0.521,paper
44.714092,0.457,0.465,-0.758,-0.545,0.311,-0.778,-0.24,-0.502,0.831,0.338,-0.468,0.816,0.089,-0.98,-0.178,0.267,-0.607,0.748,0.588,0.196,0.784,0.0,0.0,0.0,0.0,0.0,0.0,0.447,-0.319,0.836,0.527,-0.843,0.105,0.379,-0.691,0.615,0.6,-0.8,-0.0,rock
19.27227,0.092,0.769,0.632,-0.333,0.667,-0.667,0.399,-0.815,-0.42,0.778,-0.302,0.551,-0.243,-0.0,-0.97,0.856,-0.133,0.499,-0.832,-0.0,0.555,0.896,-0.166,0.411,-0.408,0.408,-0.816,0.985,0.017,-0.174,-0.784,0.588,-0.196,0.092,0.914,0.395,-0.802,0.267,-0.535,rock
5.663042,-0.048,0.976,0.211,-0.086,0.878,0.471,0.333,-0.722,-0.607,0.579,-0.737,0.35,0.692,-0.718,0.079,0.81,-0.338,0.479,0.924,-0.284,0.258,0.953,0.043,0.298,0.901,0.312,0.303,0.854,0.123,0.506,0.702,0.399,0.59,0.426,0.873,0.239,0.094,0.974,0.205,scissors
23.419853,0.587,0.552,-0.592,0.662,-0.745,-0.083,-0.286,-0.245,0.926,0.412,-0.377,0.829,-0.656,0.749,0.094,0.121,-0.605,0.787,-0.725,-0.423,-0.544,0.0,0.0,0.0,0.0,0.0,0.0,0.448,-0.168,0.878,-0.91,0.331,0.248,0.349,-0.583,0.734,-0.967,0.114,0.228,scissors
51.206383,0.433,0.392,-0.812,-0.926,-0.337,-0.168,0.058,0.1,0.993,0.236,-0.484,0.843,-0.13,-0.391,-0.911,0.309,-0.681,0.664,0.329,0.768,-0.549,0.0,0.0,0.0,0.0,0.0,0.0,0.362,-0.362,0.859,0.0,-0.263,-0.965,0.323,-0.748,0.58,-0.0,0.406,-0.914,rock
26.874461,0.511,0.461,-0.726,-0.601,-0.594,0.534,-0.566,-0.124,0.815,0.36,-0.479,0.801,-0.451,0.392,-0.802,0.243,-0.609,0.755,-0.088,0.569,-0.818,0.0,0.0,0.0,0.0,0.0,0.0,0.444,-0.297,0.845,-0.475,0.162,-0.865,0.382,-0.679,0.626,-0.363,0.546,-0.755,rock
17.999368,0.578,0.446,-0.684,0.577,0.577,0.577,-0.376,-0.476,0.795,0.282,-0.418,0.864,0.717,0.598,-0.359,0.214,-0.686,0.696,-0.977,0.15,0.15,0.0,0.0,0.0,0.0,0.0,0.0,0.343,-0.275,0.898,0.241,0.963,0.12,0.268,-0.704,0.658,-0.375,0.656,0.656,rock
2.899694,-0.271,0.837,0.475,0.098,0.936,0.339,-0.01,-0.719,-0.695,0.763,-0.647,-0.002,0.733,-0.621,0.278,0.971,-0.204,0.122,0.891,-0.112,0.441,0.805,0.52,0.286,0.85,0.172,0.497,0.615,0.594,0.519,0.616,0.23,0.754,-0.0,0.975,0.222,0.167,0.893,0.418,scissors
7.439035,-0.168,0.948,0.269,-0.099,0.927,0.363,-0.093,-0.759,-0.645,0.654,-0.75,0.097,0.689,-0.699,0.193,0.909,-0.339,0.244,0.905,-0.248,0.345,0.93,0.338,0.146,0.907,0.218,0.36,0.828,0.409,0.384,0.729,0.289,0.621,0.21,0.969,0.129,0.201,0.941,0.271,scissors
7.190056,-0.297,0.952,0.079,-0.056,0.977,0.208,0.404,-0.86,-0.311,0.689,-0.179,-0.703,0.796,-0.207,-0.569,0.692,0.662,0.288,0.628,0.584,0.514,0.905,0.366,0.216,0.831,0.25,0.497,0.869,0.366,0.334,0.732,0.243,0.637,0.766,0.463,0.445,0.729,0.292,0.619,paper
36.520588,0.538,0.478,-0.694,0.622,-0.757,-0.2,-0.695,-0.595,0.404,0.372,-0.332,0.867,-0.657,0.443,0.611,0.106,-0.66,0.744,-0.317,-0.805,-0.502,0.0,0.0,0.0,0.0,0.0,0.0,0.38,-0.176,0.908,-0.856,0.075,0.511,0.274,-0.615,0.739,-0.938,-0.264,0.227,rock
40.261088,0.604,0.354,-0.715,-0.473,-0.584,0.66,-0.415,-0.612,0.673,0.389,-0.396,0.832,-0.451,0.427,-0.784,0.145,-0.602,0.785,-0.14,0.536,-0.833,0.0,0.0,0.0,0.0,0.0,0.0,0.454,-0.211,0.865,-0.509,0.222,-0.831,0.366,-0.606,0.706,-0.419,0.569,-0.707,paper
23.804221,0.666,0.423,-0.614,0.711,0.536,-0.455,-0.366,-0.144,0.919,0.318,-0.354,0.879,0.574,-0.243,0.782,0.111,-0.692,0.713,-0.184,-0.518,0.835,0.0,0.0,0.0,0.0,0.0,0.0,0.341,-0.194,0.92,0.492,0.049,0.869,0.232,-0.64,0.732,0.273,-0.356,0.894,paper
3.05055,-0.238,0.76,0.605,-0.004,0.806,0.592,-0.391,-0.9,-0.191,0.794,-0.608,0.006,0.85,-0.518,0.101,0.991,-0.101,0.089,0.97,-0.019,0.244,0.66,0.544,0.518,0.592,0.387,0.707,0.5,0.676,0.541,0.364,0.517,0.775,-0.057,0.993,0.099,0.026,0.97,0.241,scissors
14.924761,0.582,0.503,-0.639,-0.382,-0.501,0.777,-0.239,-0.626,0.742,0.34,-0.45,0.826,-0.264,0.59,-0.763,0.225,-0.638,0.736,-0.353,0.576,-0.737,0.0,0.0,0.0,0.0,0.0,0.0,0.402,-0.288,0.87,-0.427,0.409,-0.806,0.328,-0.692,0.643,-0.394,0.732,-0.556,paper
9.048267,0.503,0.601,-0.622,-0.696,0.174,0.696,-0.083,-0.214,0.973,0.406,-0.499,0.765,0.309,-0.206,-0.928,0.265,-0.545,0.795,-0.398,0.896,-0.199,0.0,0.0,0.0,0.0,0.0,0.0,0.487,-0.291,0.824,0.7,-0.14,-0.7,0.436,-0.655,0.617,0.272,0.68,-0.68,paper
17.132525,0.526,0.515,-0.676,0.479,0.182,-0.859,-0.352,-0.485,0.8,0.341,-0.454,0.823,0.054,-0.524,0.85,0.233,-0.624,0.746,0.224,-0.826,0.517,0.0,0.0,0.0,0.0,0.0,0.0,0.42,-0.28,0.863,0.141,-0.516,0.845,0.351,-0.676,0.648,-0.0,-0.852,0.524,paper
40.128968,0.563,0.52,-0.642,-0.357,-0.624,0.695,-0.362,-0.555,0.749,0.422,-0.268,0.866,-0.545,0.508,-0.667,0.029,-0.659,0.752,-0.192,0.393,-0.899,0.0,0.0,0.0,0.0,0.0,0.0,0.383,-0.093,0.919,-0.636,0.224,-0.739,0.247,-0.56,0.791,-0.546,0.504,-0.669,paper
52.532221,0.429,0.386,-0.817,-0.722,-0.309,-0.619,0.117,0.067,0.991,0.24,-0.467,0.851,-0.38,-0.912,-0.152,0.31,-0.684,0.661,0.728,-0.485,-0.485,0.0,0.0,0.0,0.0,0.0,0.0,0.367,-0.355,0.86,-0.071,-0.995,-0.071,0.316,-0.748,0.583,-0.254,-0.763,-0.594,scissors
46.255804,0.307,0.552,-0.775,-0.524,-0.245,0.816,-0.245,-0.544,0.802,0.375,-0.579,0.724,-0.122,0.399,-0.909,0.385,-0.5,0.776,-0.252,0.766,-0.591,0.0,0.0,0.0,0.0,0.0,0.0,0.542,-0.398,0.74,-0.222,0.345,-0.912,0.513,-0.696,0.503,-0.158,0.768,-0.621,scissors
14.703671,0.438,0.501,-0.747,-0.309,-0.727,0.613,-0.235,-0.572,0.786,0.314,-0.524,0.792,-0.463,0.612,-0.641,0.301,-0.611,0.732,-0.304,0.384,-0.872,0.0,0.0,0.0,0.0,0.0,0.0,0.421,-0.346,0.839,-0.628,0.323,-0.708,0.372,-0.72,0.586,-0.577,0.572,-0.583,paper
5.445232,0.628,0.603,-0.492,-0.107,0.811,-0.576,-0.468,-0.373,0.801,0.491,-0.352,0.797,0.582,-0.8,0.145,0.067,-0.548,0.834,0.362,-0.052,0.931,0.0,0.0,0.0,0.0,0.0,0.0,0.5,-0.101,0.86,0.832,-0.416,0.367,0.394,-0.502,0.77,0.806,-0.457,0.376,scissors
21.93695,0.472,0.626,-0.621,-0.08,0.875,-0.477,-0.43,-0.074,0.9,0.461,-0.446,0.767,0.689,-0.716,0.11,0.194,-0.519,0.832,0.213,0.091,0.973,0.0,0.0,0.0,0.0,0.0,0.0,0.54,-0.208,0.816,0.907,-0.283,0.312,0.472,-0.571,0.672,0.863,-0.288,0.415,scissors
7.479473,-0.319,0.929,0.186,-0.237,0.871,0.431,0.047,-0.746,-0.664,0.536,-0.842,0.068,0.68,-0.732,0.033,0.844,-0.486,0.228,0.927,-0.323,0.192,0.966,0.254,0.047,0.908,0.338,0.246,0.887,0.359,0.289,0.729,0.411,0.547,0.28,0.96,-0.019,0.088,0.986,0.143,scissors
1.153992,0.036,0.974,0.222,1.0,0.0,0.0,-0.178,-0.964,0.199,0.747,-0.495,0.445,0.0,0.196,-0.981,0.754,-0.215,0.621,-0.802,0.535,0.267,0.822,-0.255,0.51,-0.0,0.555,-0.832,0.896,-0.014,0.443,-0.696,0.696,-0.174,0.761,0.466,0.452,-0.949,0.0,-0.316,rock
60.929389,0.397,0.365,-0.842,0.371,-0.557,0.743,0.151,0.333,0.931,0.179,-0.551,0.815,0.196,0.784,-0.588,0.39,-0.669,0.633,-0.953,0.095,-0.286,0.0,0.0,0.0,0.0,0.0,0.0,0.333,-0.471,0.817,-0.371,0.928,-0.0,0.307,-0.812,0.495,-0.768,0.549,0.329,paper
17.742408,0.08,0.763,0.641,0.0,0.707,-0.707,0.427,-0.792,-0.435,0.779,-0.311,0.544,-0.688,0.229,-0.688,0.858,-0.141,0.493,-0.845,0.169,0.507,0.898,-0.176,0.404,-0.535,0.802,-0.267,0.983,0.008,-0.181,-0.772,0.617,0.154,0.085,0.92,0.383,-0.784,0.196,-0.588,rock
1.514816,-0.152,0.978,0.141,-0.112,0.986,0.12,0.271,-0.949,0.161,0.812,-0.195,-0.55,0.769,-0.216,-0.601,0.652,0.564,0.506,0.666,0.551,0.502,0.873,0.232,0.429,0.878,0.191,0.439,0.824,0.224,0.521,0.79,0.202,0.58,0.782,0.251,0.57,0.781,0.269,0.564,paper
58.485927,0.338,0.403,-0.85,-0.499,0.792,0.352,-0.007,0.47,0.883,0.204,-0.605,0.77,0.72,-0.229,-0.655,0.435,-0.614,0.659,-0.147,0.885,0.442,0.0,0.0,0.0,0.0,0.0,0.0,0.385,-0.494,0.779,0.834,0.152,-0.531,0.375,-0.799,0.471,0.786,0.612,-0.087,paper
8.263275,0.404,0.69,-0.601,0.422,0.533,-0.733,0.043,-0.248,0.968,0.421,-0.509,0.751,0.322,-0.669,0.669,0.249,-0.519,0.818,0.204,-0.612,0.764,0.0,0.0,0.0,0.0,0.0,0.0,0.518,-0.273,0.811,0.432,-0.432,0.792,0.47,-0.618,0.63,0.28,-0.739,0.612,rock
34.95501,0.414,0.521,-0.746,0.823,0.223,-0.523,-0.664,-0.566,0.489,0.305,-0.507,0.806,0.216,-0.041,0.976,0.323,-0.615,0.719,-0.252,-0.814,0.523,0.0,0.0,0.0,0.0,0.0,0.0,0.415,-0.369,0.832,0.09,0.03,0.996,0.366,-0.739,0.566,-0.151,-0.482,0.863,scissors
28.773499,0.532,0.597,-0.601,-0.613,-0.619,0.491,-0.398,-0.683,0.613,0.456,-0.427,0.781,-0.52,0.302,-0.799,0.182,-0.546,0.818,0.006,0.537,-0.844,0.0,0.0,0.0,0.0,0.0,0.0,0.509,-0.208,0.835,-0.493,0.05,-0.869,0.439,-0.588,0.679,-0.362,0.453,-0.815,scissors
41.393182,0.397,0.424,-0.814,-0.463,0.887,-0.006,-0.167,-0.394,0.904,0.254,-0.518,0.817,0.749,-0.544,-0.378,0.35,-0.642,0.682,0.267,0.647,0.714,0.0,0.0,0.0,0.0,0.0,0.0,0.386,-0.41,0.826,0.95,-0.182,-0.254,0.346,-0.774,0.53,0.993,0.116,-0.02,rock
34.466923,0.478,0.485,-0.733,0.424,0.651,-0.63,-0.802,-0.375,0.465,0.378,-0.446,0.811,0.495,-0.49,0.717,0.236,-0.595,0.768,0.117,-0.482,0.869,0.0,0.0,0.0,0.0,0.0,0.0,0.471,-0.272,0.839,0.568,-0.206,0.797,0.398,-0.655,0.642,0.435,-0.531,0.728,paper
8.959711,0.459,0.605,-0.651,-0.481,0.535,-0.695,-0.045,-0.22,0.974,0.422,-0.51,0.75,0.337,-0.899,-0.281,0.255,-0.521,0.815,0.531,0.379,0.758,0.0,0.0,0.0,0.0,0.0,0.0,0.52,-0.277,0.808,0.736,-0.674,-0.061,0.471,-0.619,0.628,0.891,-0.445,-0.089,rock
3.783863,-0.286,0.881,0.377,0.05,-0.931,-0.361,-0.545,-0.834,-0.09,0.625,-0.78,-0.026,-0.678,0.704,-0.212,0.915,-0.39,0.107,-0.912,0.266,-0.312,0.907,0.419,0.037,-0.902,-0.232,-0.365,0.787,0.538,0.302,-0.736,-0.293,-0.61,0.098,0.995,0.032,-0.214,-0.936,-0.28,scissors
