time,s1_X,s1_Y,s1_Z,s1_gyro_x,s1_gyro_y,s1_gyro_z,s1_mag_x,s1_mag_y,s1_mag_z,s2_X,s2_Y,s2_Z,s2_gyro_x,s2_gyro_y,s2_gyro_z,s3_X,s3_Y,s3_Z,s3_gyro_x,s3_gyro_y,s3_gyro_z,s4_X,s4_Y,s4_Z,s4_gyro_x,s4_gyro_y,s4_gyro_z,s5_X,s5_Y,s5_Z,s5_gyro_x,s5_gyro_y,s5_gyro_z,s6_X,s6_Y,s6_Z,s6_gyro_x,s6_gyro_y,s6_gyro_z,label
0.04482,0.041,0.769,0.638,0.99,0.141,-0.0,0.488,-0.767,-0.416,0.774,-0.359,0.522,0.482,0.843,-0.241,0.864,-0.179,0.47,-0.1,0.796,0.597,0.888,-0.212,0.408,0.314,0.943,-0.105,0.983,-0.032,-0.18,-0.178,0.98,-0.089,0.095,0.937,0.336,-0.772,0.154,0.617,rock
0.057034,0.037,0.774,0.632,0.997,0.0,-0.083,0.503,-0.742,-0.443,0.772,-0.362,0.522,0.414,0.91,-0.0,0.864,-0.182,0.469,-0.07,0.772,0.632,0.886,-0.215,0.41,0.316,0.949,-0.0,0.984,-0.034,-0.177,-0.071,0.997,-0.0,0.098,0.938,0.332,-0.496,0.0,0.868,rock
0.22616,0.033,0.774,0.632,0.957,0.205,-0.205,0.512,-0.762,-0.397,0.771,-0.364,0.522,0.282,0.917,0.282,0.864,-0.185,0.469,-0.117,0.702,0.702,0.886,-0.218,0.409,0.269,0.942,0.202,0.984,-0.038,-0.177,0.0,0.983,0.184,0.097,0.94,0.328,-0.11,-0.11,0.988,rock
0.230021,0.028,0.773,0.633,0.936,0.25,-0.25,0.506,-0.782,-0.364,0.776,-0.363,0.516,0.202,0.942,0.269,0.867,-0.183,0.464,-0.121,0.605,0.787,0.888,-0.218,0.405,0.145,0.946,0.291,0.982,-0.036,-0.183,-0.067,0.94,0.336,0.09,0.939,0.333,0.254,-0.381,0.889,rock
0.23016,0.024,0.785,0.619,0.936,0.25,-0.25,0.492,-0.765,-0.416,0.763,-0.374,0.528,0.141,0.989,0.047,0.86,-0.199,0.47,-0.122,0.671,0.732,0.88,-0.23,0.415,-0.0,0.942,0.336,0.983,-0.046,-0.176,-0.418,0.766,0.488,0.098,0.941,0.324,0.545,-0.778,0.311,rock
0.230291,0.028,0.786,0.617,0.903,-0.151,-0.402,0.531,-0.755,-0.386,0.757,-0.363,0.543,0.17,0.983,0.068,0.852,-0.192,0.487,0.05,0.654,0.755,0.876,-0.218,0.431,0.111,0.889,0.444,0.987,-0.041,-0.158,-0.328,0.786,0.524,0.118,0.941,0.317,0.728,-0.679,0.097,rock
0.265522,0.04,0.799,0.601,0.914,0.0,-0.406,0.531,-0.755,-0.386,0.745,-0.361,0.561,0.294,0.955,0.037,0.842,-0.197,0.502,0.219,0.603,0.767,0.868,-0.217,0.446,0.366,0.793,0.488,0.988,-0.045,-0.145,-0.196,0.784,0.588,0.133,0.942,0.308,0.868,-0.496,-0.0,rock
0.305512,0.036,0.794,0.607,0.993,0.083,-0.083,0.545,-0.74,-0.393,0.745,-0.354,0.566,0.316,0.949,0.0,0.844,-0.187,0.502,0.27,0.595,0.757,0.872,-0.213,0.441,0.428,0.796,0.428,0.987,-0.04,-0.156,-0.0,0.928,0.371,0.121,0.943,0.311,0.818,-0.545,0.182,rock
0.470067,0.037,0.789,0.613,0.967,-0.242,-0.081,0.497,-0.778,-0.384,0.74,-0.357,0.57,0.202,0.972,-0.121,0.843,-0.188,0.503,-0.049,0.839,0.543,0.874,-0.216,0.435,0.268,0.964,0.0,0.985,-0.042,-0.169,-0.229,0.973,0.0,0.111,0.946,0.306,0.087,-0.786,0.612,rock
0.473639,0.028,0.797,0.603,0.955,-0.191,-0.229,0.497,-0.778,-0.384,0.735,-0.365,0.572,0.076,0.991,-0.114,0.839,-0.202,0.506,-0.225,0.899,0.375,0.865,-0.223,0.45,0.162,0.973,-0.162,0.987,-0.051,-0.151,-0.242,0.967,-0.081,0.131,0.947,0.293,-0.237,-0.592,0.77,rock
0.473778,0.032,0.81,0.585,0.954,-0.212,-0.212,0.574,-0.75,-0.329,0.729,-0.366,0.579,-0.0,0.942,-0.336,0.835,-0.204,0.512,-0.319,0.893,0.319,0.86,-0.222,0.459,0.067,0.94,-0.336,0.989,-0.051,-0.138,-0.346,0.922,-0.173,0.143,0.947,0.289,-0.781,-0.39,0.488,rock
0.479786,0.032,0.805,0.592,0.954,-0.212,-0.212,0.527,-0.773,-0.353,0.727,-0.365,0.581,0.0,0.894,-0.447,0.833,-0.206,0.513,-0.345,0.897,0.276,0.86,-0.223,0.458,0.13,0.911,-0.391,0.989,-0.05,-0.137,-0.29,0.928,-0.232,0.14,0.946,0.292,-0.912,-0.152,0.38,rock
0.520717,0.028,0.808,0.588,0.802,-0.267,0.535,0.527,-0.773,-0.353,0.729,-0.361,0.581,-0.0,0.6,-0.8,0.833,-0.204,0.514,-0.447,0.894,-0.0,0.862,-0.22,0.457,0.0,0.664,-0.747,0.989,-0.047,-0.14,-0.488,0.766,-0.418,0.134,0.944,0.3,-0.998,-0.062,0.0,rock
0.559905,0.032,0.806,0.591,0.617,-0.772,0.154,0.527,-0.773,-0.353,0.73,-0.358,0.582,-0.233,0.466,-0.854,0.834,-0.198,0.515,-0.616,0.704,-0.352,0.863,-0.214,0.457,-0.186,0.559,-0.808,0.989,-0.041,-0.139,-0.584,0.701,-0.409,0.132,0.942,0.31,-0.981,-0.187,-0.047,rock
0.712928,0.047,0.809,0.586,0.555,-0.832,-0.0,0.527,-0.773,-0.353,0.727,-0.357,0.587,-0.269,0.404,-0.874,0.83,-0.198,0.521,-0.64,0.64,-0.426,0.862,-0.21,0.462,-0.183,0.488,-0.854,0.991,-0.04,-0.129,-0.605,0.655,-0.453,0.139,0.939,0.316,-0.994,-0.106,-0.035,rock
0.716522,0.036,0.812,0.583,-0.588,-0.784,0.196,0.527,-0.773,-0.353,0.725,-0.355,0.59,-0.336,0.067,-0.94,0.827,-0.204,0.524,-0.69,0.383,-0.614,0.857,-0.215,0.468,-0.253,0.19,-0.949,0.992,-0.041,-0.12,-0.666,0.499,-0.555,0.15,0.935,0.322,-0.979,-0.0,-0.203,rock
0.716671,0.032,0.817,0.576,-0.696,-0.696,0.174,0.522,-0.78,-0.346,0.724,-0.361,0.588,-0.355,-0.142,-0.924,0.827,-0.208,0.522,-0.647,0.185,-0.74,0.858,-0.212,0.469,-0.294,-0.0,-0.956,0.992,-0.04,-0.119,-0.727,0.364,-0.582,0.145,0.935,0.324,-0.946,0.079,-0.315,rock
0.732783,0.037,0.81,0.585,-0.832,-0.555,-0.0,0.556,-0.775,-0.301,0.726,-0.363,0.583,-0.358,-0.268,-0.894,0.83,-0.208,0.518,-0.824,0.137,-0.549,0.859,-0.213,0.465,-0.406,0.0,-0.914,0.992,-0.039,-0.121,-0.808,0.303,-0.505,0.142,0.934,0.328,-0.873,0.154,-0.462,rock
0.771942,0.037,0.811,0.584,-0.873,-0.436,-0.218,0.506,-0.792,-0.342,0.73,-0.359,0.582,-0.389,-0.291,-0.874,0.83,-0.202,0.519,-0.885,-0.147,-0.442,0.862,-0.209,0.461,-0.577,-0.115,-0.808,0.991,-0.036,-0.125,-0.963,0.12,-0.241,0.135,0.932,0.336,-0.83,0.069,-0.553,rock
0.816371,0.041,0.809,0.587,-0.816,-0.408,-0.408,0.53,-0.793,-0.301,0.728,-0.356,0.586,-0.597,-0.1,-0.796,0.83,-0.201,0.521,-0.963,-0.12,-0.241,0.862,-0.205,0.464,-0.702,0.117,-0.702,0.992,-0.032,-0.122,-0.97,0.216,-0.108,0.136,0.93,0.342,-0.786,-0.087,-0.612,rock
0.954919,0.045,0.815,0.577,-0.816,-0.408,-0.408,0.521,-0.79,-0.322,0.723,-0.356,0.592,-0.704,-0.088,-0.704,0.823,-0.202,0.531,-0.976,-0.098,-0.195,0.857,-0.197,0.476,-0.839,0.28,-0.466,0.994,-0.027,-0.107,-0.936,0.341,0.085,0.153,0.924,0.349,-0.745,-0.298,-0.596,rock
0.958343,0.045,0.819,0.572,-0.535,0.267,-0.802,0.521,-0.79,-0.322,0.718,-0.347,0.604,-0.864,-0.259,-0.432,0.818,-0.194,0.542,-0.936,-0.341,-0.085,0.856,-0.193,0.48,-0.909,-0.101,-0.404,0.995,-0.027,-0.1,-0.878,0.479,0.0,0.155,0.924,0.35,-0.939,-0.043,-0.341,rock
0.958476,0.045,0.816,0.577,-0.781,0.488,-0.39,0.547,-0.77,-0.329,0.721,-0.35,0.597,-0.743,-0.473,-0.473,0.82,-0.201,0.535,-0.905,-0.302,-0.302,0.854,-0.199,0.481,-0.709,-0.315,-0.63,0.995,-0.029,-0.095,-0.894,0.358,-0.268,0.156,0.923,0.352,-0.901,0.155,-0.404,rock
0.983177,0.04,0.807,0.59,-0.892,0.446,-0.074,0.547,-0.77,-0.329,0.727,-0.355,0.588,-0.685,-0.548,-0.48,0.827,-0.2,0.525,-0.884,-0.402,-0.241,0.862,-0.197,0.467,-0.63,-0.315,-0.709,0.994,-0.026,-0.109,-0.943,0.236,-0.236,0.136,0.921,0.366,-0.837,0.258,-0.483,rock
1.02829,0.04,0.804,0.593,-0.667,0.333,-0.667,0.54,-0.766,-0.349,0.737,-0.355,0.574,-0.681,-0.426,-0.596,0.835,-0.195,0.514,-0.941,-0.282,-0.188,0.868,-0.2,0.455,-0.742,-0.212,-0.636,0.993,-0.027,-0.116,-0.936,0.351,-0.0,0.121,0.919,0.374,-0.83,0.249,-0.498,rock
1.19827,0.036,0.799,0.601,-0.973,0.162,-0.162,0.54,-0.766,-0.349,0.74,-0.359,0.569,-0.505,-0.303,-0.808,0.838,-0.197,0.509,-0.953,-0.136,-0.272,0.869,-0.204,0.451,-0.482,-0.241,-0.843,0.992,-0.03,-0.121,-0.927,0.265,-0.265,0.113,0.919,0.377,-0.802,0.267,-0.535,rock
1.201901,0.036,0.8,0.599,-0.408,-0.816,-0.408,0.568,-0.737,-0.367,0.743,-0.356,0.567,-0.314,0.105,-0.943,0.839,-0.192,0.508,-0.905,0.302,-0.302,0.872,-0.199,0.448,-0.391,0.13,-0.911,0.992,-0.027,-0.123,-0.912,0.342,-0.228,0.111,0.918,0.382,-0.875,0.08,-0.477,rock
1.202041,0.04,0.8,0.598,-0.272,-0.953,0.136,0.568,-0.737,-0.367,0.741,-0.354,0.57,-0.083,0.083,-0.993,0.838,-0.191,0.511,-0.535,0.267,-0.802,0.87,-0.2,0.451,-0.196,0.0,-0.981,0.993,-0.027,-0.117,-0.818,0.182,-0.545,0.115,0.917,0.381,-0.864,-0.0,-0.504,rock
1.202165,0.028,0.809,0.587,-0.199,-0.896,0.398,0.543,-0.772,-0.329,0.732,-0.362,0.577,0.062,-0.0,-0.998,0.831,-0.207,0.517,-0.206,0.309,-0.928,0.861,-0.209,0.463,-0.0,-0.077,-0.997,0.994,-0.039,-0.104,-0.705,0.078,-0.705,0.131,0.92,0.368,-0.894,0.0,-0.447,rock
1.238373,0.048,0.815,0.578,-0.599,-0.532,0.599,0.543,-0.772,-0.329,0.724,-0.363,0.586,0.118,-0.296,-0.948,0.824,-0.209,0.526,0.099,-0.099,-0.99,0.862,-0.196,0.468,0.082,-0.412,-0.907,0.994,-0.023,-0.104,-0.535,-0.267,-0.802,0.143,0.915,0.377,-0.863,0.199,-0.465,rock
1.283739,0.075,0.784,0.616,-0.717,-0.359,0.598,0.52,-0.778,-0.352,0.746,-0.347,0.568,-0.688,-0.688,-0.229,0.84,-0.18,0.512,-0.598,-0.359,0.717,0.881,-0.179,0.438,-0.436,0.218,0.873,0.99,-0.0,-0.138,-0.302,0.302,0.905,0.108,0.911,0.399,0.873,0.218,-0.436,rock
1.443013,0.041,0.781,0.623,0.248,0.62,-0.744,0.52,-0.778,-0.352,0.753,-0.347,0.559,-0.873,0.218,0.436,0.846,-0.177,0.502,-0.706,-0.064,0.706,0.882,-0.193,0.43,-0.492,0.573,0.655,0.989,-0.016,-0.144,-0.349,0.419,0.838,0.093,0.917,0.388,0.909,-0.404,0.101,rock
1.446632,0.027,0.797,0.603,0.463,0.396,-0.793,0.579,-0.753,-0.312,0.742,-0.358,0.567,-0.704,0.704,0.101,0.838,-0.197,0.509,-0.73,0.332,0.597,0.867,-0.208,0.453,-0.466,0.854,0.233,0.992,-0.036,-0.117,-0.48,0.685,0.548,0.118,0.923,0.366,0.527,-0.738,0.422,rock
1.446767,0.026,0.811,0.584,0.772,-0.154,-0.617,0.579,-0.753,-0.312,0.734,-0.366,0.572,-0.371,0.557,-0.743,0.831,-0.21,0.514,-0.762,0.457,0.457,0.859,-0.215,0.465,-0.348,0.87,-0.348,0.994,-0.045,-0.101,-0.635,0.762,0.127,0.134,0.925,0.356,-0.535,-0.802,0.267,rock
1.453722,0.032,0.803,0.596,-0.535,-0.267,0.802,0.567,-0.748,-0.345,0.736,-0.36,0.573,0.212,-0.212,-0.954,0.834,-0.2,0.514,0.316,0.0,-0.949,0.865,-0.209,0.457,0.316,-0.0,-0.949,0.993,-0.036,-0.115,-0.535,0.267,-0.802,0.126,0.923,0.363,-0.988,0.11,-0.11,rock
1.488484,0.045,0.802,0.596,-0.137,-0.549,0.824,0.567,-0.748,-0.345,0.741,-0.355,0.57,0.282,-0.188,-0.941,0.836,-0.191,0.515,0.236,0.236,-0.943,0.87,-0.198,0.452,0.243,-0.0,-0.97,0.992,-0.023,-0.123,-0.482,0.241,-0.843,0.123,0.919,0.374,-0.976,0.098,-0.195,rock
1.53434,0.037,0.807,0.59,-0.267,-0.802,0.535,0.578,-0.764,-0.288,0.734,-0.363,0.573,0.243,-0.0,-0.97,0.833,-0.204,0.515,-0.0,0.894,-0.447,0.865,-0.206,0.458,0.183,0.365,-0.913,0.993,-0.032,-0.114,-0.625,0.469,-0.625,0.133,0.923,0.362,-0.99,-0.0,0.141,rock
1.685155,0.032,0.806,0.591,0.316,-0.0,0.949,0.503,-0.772,-0.389,0.735,-0.362,0.573,0.391,-0.13,-0.911,0.833,-0.203,0.515,0.577,0.577,-0.577,0.863,-0.208,0.46,0.507,0.169,-0.845,0.993,-0.035,-0.114,-0.348,0.348,-0.87,0.133,0.923,0.36,-0.97,0.243,-0.0,rock
1.688713,0.044,0.803,0.595,0.0,-0.316,0.949,0.503,-0.772,-0.389,0.74,-0.355,0.571,0.527,-0.105,-0.843,0.835,-0.193,0.515,0.728,0.485,-0.485,0.867,-0.201,0.457,0.555,-0.0,-0.832,0.993,-0.028,-0.117,-0.265,0.265,-0.927,0.131,0.921,0.367,-0.913,0.365,-0.183,rock
1.688851,0.045,0.801,0.596,-0.254,-0.381,0.889,0.524,-0.773,-0.358,0.742,-0.35,0.571,0.445,-0.089,-0.891,0.837,-0.187,0.514,0.64,0.426,-0.64,0.871,-0.195,0.451,0.447,-0.0,-0.894,0.992,-0.021,-0.125,-0.342,0.228,-0.912,0.126,0.92,0.371,-0.923,0.308,-0.231,rock
1.701388,0.046,0.797,0.602,0.192,-0.192,0.962,0.524,-0.773,-0.358,0.743,-0.356,0.568,0.394,-0.0,-0.919,0.838,-0.191,0.512,0.408,0.816,-0.408,0.871,-0.197,0.451,0.507,0.169,-0.845,0.992,-0.022,-0.126,-0.457,0.457,-0.762,0.125,0.921,0.369,-0.894,0.358,-0.268,rock
1.744927,0.04,0.807,0.59,0.192,-0.192,0.962,0.525,-0.769,-0.364,0.736,-0.36,0.573,0.447,-0.0,-0.894,0.833,-0.202,0.515,0.0,1.0,0.0,0.862,-0.208,0.462,0.436,0.218,-0.873,0.993,-0.036,-0.109,-0.371,0.557,-0.743,0.138,0.924,0.356,-0.874,0.389,-0.291,rock
1.790846,0.044,0.806,0.591,-0.309,-0.206,0.928,0.495,-0.773,-0.397,0.738,-0.348,0.578,0.543,-0.204,-0.815,0.832,-0.19,0.522,0.647,0.108,-0.755,0.866,-0.196,0.46,0.466,-0.233,-0.854,0.993,-0.022,-0.113,-0.164,0.0,-0.986,0.138,0.919,0.37,-0.893,0.391,-0.223,rock
1.928701,0.064,0.804,0.591,-0.309,-0.206,0.928,0.5,-0.785,-0.365,0.743,-0.348,0.572,0.473,-0.394,-0.788,0.836,-0.181,0.517,0.7,-0.14,-0.7,0.873,-0.185,0.451,0.527,-0.422,-0.738,0.992,-0.007,-0.127,-0.123,-0.123,-0.985,0.134,0.915,0.381,-0.813,0.474,-0.339,rock
1.933156,0.05,0.791,0.61,0.207,0.83,-0.518,0.5,-0.785,-0.365,0.752,-0.345,0.562,-0.408,-0.816,0.408,0.845,-0.176,0.506,-0.429,-0.286,0.857,0.881,-0.187,0.434,-0.236,0.236,0.943,0.989,-0.006,-0.145,-0.183,0.365,0.913,0.112,0.917,0.382,0.0,0.8,-0.6,rock
1.933302,0.044,0.788,0.614,0.298,0.596,-0.745,0.533,-0.776,-0.337,0.754,-0.346,0.559,-0.707,0.424,0.566,0.845,-0.176,0.504,-0.625,-0.0,0.781,0.88,-0.194,0.433,-0.426,0.64,0.64,0.99,-0.016,-0.144,-0.347,0.52,0.78,0.108,0.92,0.377,0.981,-0.196,-0.0,rock
1.958309,0.039,0.798,0.601,0.763,0.254,-0.594,0.533,-0.776,-0.337,0.749,-0.35,0.563,-0.635,0.762,0.127,0.841,-0.186,0.508,-0.709,0.315,0.63,0.873,-0.201,0.444,-0.398,0.896,0.199,0.991,-0.025,-0.13,-0.485,0.728,0.485,0.118,0.923,0.366,0.267,-0.802,0.535,rock
2.004101,0.039,0.799,0.6,0.781,-0.625,0.0,0.533,-0.776,-0.337,0.747,-0.353,0.564,-0.127,0.762,-0.635,0.84,-0.19,0.509,-0.62,0.744,0.248,0.871,-0.203,0.447,-0.111,0.889,-0.444,0.992,-0.028,-0.126,-0.552,0.829,-0.092,0.122,0.924,0.364,-0.857,-0.429,0.286,rock
2.15496,0.048,0.806,0.59,0.696,-0.696,0.174,0.533,-0.776,-0.337,0.742,-0.35,0.572,-0.0,0.651,-0.759,0.834,-0.189,0.518,-0.496,0.868,-0.0,0.869,-0.196,0.455,-0.108,0.755,-0.647,0.993,-0.021,-0.117,-0.634,0.724,-0.272,0.132,0.92,0.37,-0.93,-0.349,0.116,rock
2.158406,0.048,0.821,0.569,0.768,-0.64,-0.0,0.53,-0.745,-0.405,0.725,-0.355,0.589,0.185,0.647,-0.74,0.822,-0.201,0.533,-0.316,0.949,0.0,0.855,-0.197,0.479,0.108,0.755,-0.647,0.995,-0.026,-0.094,-0.52,0.78,-0.347,0.162,0.919,0.359,-0.855,-0.367,0.367,rock
2.158543,0.057,0.825,0.563,0.845,-0.169,0.507,0.53,-0.745,-0.405,0.718,-0.354,0.6,0.359,0.717,-0.598,0.814,-0.205,0.543,-0.0,0.919,0.394,0.851,-0.193,0.488,0.349,0.814,-0.465,0.996,-0.024,-0.084,-0.331,0.883,-0.331,0.172,0.916,0.361,-0.894,0.0,0.447,rock
2.171107,0.069,0.821,0.567,0.802,0.267,0.535,0.529,-0.775,-0.347,0.722,-0.342,0.602,0.802,0.535,-0.267,0.813,-0.194,0.549,0.391,0.651,0.651,0.854,-0.182,0.488,0.702,0.702,-0.117,0.996,-0.013,-0.088,0.12,0.963,-0.241,0.172,0.912,0.372,-0.662,0.53,0.53,rock
2.212298,0.065,0.817,0.573,0.802,0.267,0.535,0.525,-0.78,-0.341,0.729,-0.342,0.592,0.862,0.492,0.123,0.821,-0.189,0.539,0.303,0.505,0.808,0.861,-0.184,0.474,0.742,0.636,0.212,0.995,-0.013,-0.103,0.406,0.914,-0.0,0.156,0.915,0.371,-0.492,0.615,0.615,rock
2.254527,0.047,0.808,0.587,0.683,0.683,0.256,0.576,-0.764,-0.292,0.734,-0.348,0.583,0.722,0.619,0.309,0.827,-0.192,0.528,0.239,0.557,0.796,0.862,-0.194,0.468,0.645,0.725,0.242,0.994,-0.022,-0.109,0.341,0.936,0.085,0.145,0.92,0.364,-0.329,0.549,0.768,rock
2.438175,0.027,0.816,0.578,0.272,0.68,0.68,0.518,-0.791,-0.327,0.732,-0.355,0.581,0.919,0.0,-0.394,0.827,-0.203,0.524,0.707,0.424,0.566,0.858,-0.208,0.47,0.943,0.236,-0.236,0.994,-0.038,-0.103,0.391,0.651,-0.651,0.149,0.925,0.351,-0.745,0.662,0.083,rock
2.44179,0.05,0.813,0.58,-0.212,0.212,0.954,0.518,-0.791,-0.327,0.732,-0.356,0.581,0.766,-0.287,-0.575,0.828,-0.198,0.525,1.0,0.0,-0.0,0.862,-0.199,0.467,0.873,-0.218,-0.436,0.993,-0.023,-0.113,0.391,0.13,-0.911,0.149,0.921,0.36,-0.733,0.667,-0.133,rock
2.441934,0.051,0.791,0.61,0.0,0.91,-0.414,0.502,-0.789,-0.354,0.743,-0.351,0.57,0.236,-0.943,0.236,0.838,-0.184,0.514,0.0,-0.496,0.868,0.875,-0.192,0.445,0.436,-0.218,0.873,0.991,-0.013,-0.137,0.436,0.218,0.873,0.125,0.921,0.37,-0.0,0.919,-0.394,rock
2.442059,0.037,0.798,0.602,0.298,0.745,-0.596,0.505,-0.799,-0.325,0.741,-0.357,0.569,-0.557,0.371,0.743,0.837,-0.196,0.511,-0.479,-0.0,0.878,0.87,-0.204,0.449,-0.226,0.566,0.793,0.991,-0.029,-0.13,-0.207,0.518,0.83,0.124,0.925,0.359,0.943,0.236,-0.236,rock
2.465469,0.043,0.814,0.579,0.905,-0.302,-0.302,0.505,-0.799,-0.325,0.733,-0.351,0.583,-0.196,0.784,-0.588,0.828,-0.197,0.525,-0.651,0.391,0.651,0.862,-0.202,0.466,-0.365,0.913,-0.183,0.994,-0.031,-0.109,-0.688,0.688,0.229,0.142,0.923,0.358,-0.577,-0.577,-0.577,rock
2.50766,0.06,0.818,0.572,0.832,-0.555,-0.0,0.506,-0.782,-0.364,0.727,-0.35,0.591,0.0,0.707,-0.707,0.822,-0.197,0.534,-0.514,0.514,0.686,0.859,-0.194,0.474,-0.0,0.97,-0.243,0.994,-0.023,-0.102,-0.625,0.781,0.0,0.156,0.92,0.359,-0.943,-0.236,-0.236,rock
2.549257,0.04,0.817,0.576,0.408,0.816,-0.408,0.518,-0.785,-0.34,0.723,-0.36,0.59,0.302,0.302,-0.905,0.822,-0.214,0.528,-0.436,0.218,0.873,0.856,-0.205,0.475,0.302,0.905,-0.302,0.994,-0.033,-0.101,-0.6,0.8,0.0,0.155,0.924,0.35,-0.873,0.218,-0.436,rock
2.593842,0.04,0.82,0.571,0.667,-0.333,0.667,0.518,-0.785,-0.34,0.722,-0.354,0.595,0.457,0.457,-0.762,0.819,-0.203,0.537,-0.0,0.894,0.447,0.856,-0.201,0.477,0.371,0.743,-0.557,0.994,-0.031,-0.101,-0.457,0.762,-0.457,0.158,0.923,0.35,-1.0,0.0,-0.0,rock
2.633003,0.041,0.823,0.567,0.743,-0.557,0.371,0.502,-0.801,-0.325,0.718,-0.358,0.597,0.424,0.566,-0.707,0.815,-0.208,0.541,0.0,0.894,0.447,0.851,-0.201,0.485,0.371,0.743,-0.557,0.995,-0.032,-0.092,-0.408,0.816,-0.408,0.17,0.922,0.347,-0.986,0.164,-0.0,rock
2.677322,0.041,0.825,0.564,0.577,0.577,0.577,0.49,-0.814,-0.312,0.715,-0.361,0.599,0.816,0.408,-0.408,0.814,-0.217,0.539,0.0,0.0,1.0,0.849,-0.205,0.488,0.485,0.728,0.485,0.995,-0.037,-0.09,-0.0,0.894,0.447,0.174,0.924,0.341,-0.535,0.802,-0.267,rock
2.95322,0.044,0.818,0.574,0.123,0.985,0.123,0.54,-0.781,-0.314,0.72,-0.354,0.596,0.667,-0.333,0.667,0.818,-0.206,0.538,0.0,-0.124,0.992,0.853,-0.2,0.482,0.557,0.371,0.743,0.995,-0.031,-0.098,0.371,0.743,0.557,0.164,0.923,0.348,-0.192,0.962,-0.192,rock
2.957788,0.046,0.816,0.576,0.0,0.914,0.406,0.54,-0.781,-0.314,0.726,-0.349,0.592,0.802,-0.535,0.267,0.823,-0.197,0.533,0.156,-0.312,0.937,0.858,-0.196,0.474,0.784,0.196,0.588,0.994,-0.027,-0.107,0.535,0.802,0.267,0.151,0.923,0.355,-0.442,0.885,-0.147,rock
2.957925,0.04,0.813,0.581,0.0,0.914,0.406,0.479,-0.811,-0.336,0.729,-0.35,0.588,0.905,-0.302,-0.302,0.826,-0.197,0.527,0.196,-0.0,0.981,0.861,-0.201,0.467,0.894,0.447,0.0,0.993,-0.029,-0.115,0.236,0.943,-0.236,0.144,0.925,0.352,-0.707,0.707,0.0,rock
2.958052,0.036,0.816,0.577,0.927,0.265,0.265,0.479,-0.811,-0.336,0.729,-0.357,0.584,0.802,0.267,-0.535,0.826,-0.202,0.525,0.236,0.236,0.943,0.858,-0.206,0.471,0.688,0.688,-0.229,0.994,-0.034,-0.108,-0.183,0.913,-0.365,0.151,0.925,0.348,-0.894,0.447,-0.0,rock
2.958183,0.037,0.813,0.581,0.927,0.265,0.265,0.506,-0.797,-0.33,0.727,-0.357,0.586,0.514,-0.0,-0.857,0.825,-0.205,0.527,0.577,0.577,0.577,0.857,-0.21,0.471,0.557,0.371,-0.743,0.993,-0.038,-0.108,-0.333,0.667,-0.667,0.153,0.927,0.342,-0.93,0.349,-0.116,rock
2.958304,0.037,0.822,0.569,-0.156,0.312,0.937,0.506,-0.797,-0.33,0.722,-0.362,0.59,0.514,-0.0,-0.857,0.821,-0.211,0.531,0.577,0.577,0.577,0.854,-0.207,0.478,0.588,0.196,-0.784,0.994,-0.035,-0.104,-0.371,0.557,-0.743,0.161,0.926,0.342,-0.912,0.342,-0.228,rock
2.967216,0.033,0.811,0.584,-0.555,0.832,0.0,0.512,-0.807,-0.292,0.725,-0.361,0.586,0.0,-0.447,-0.894,0.825,-0.205,0.526,-0.408,-0.408,0.816,0.858,-0.209,0.468,0.577,0.577,-0.577,0.993,-0.035,-0.114,-0.667,0.667,-0.333,0.15,0.927,0.343,-0.762,0.457,-0.457,rock
3.0042,0.032,0.812,0.582,0.333,0.667,-0.667,0.512,-0.807,-0.292,0.727,-0.357,0.586,-0.436,0.218,-0.873,0.825,-0.202,0.527,-0.873,0.218,0.436,0.859,-0.205,0.469,-0.485,0.728,-0.485,0.993,-0.033,-0.112,-0.781,0.625,0.0,0.149,0.926,0.347,-0.928,-0.0,-0.371,rock
3.05076,0.04,0.82,0.57,0.577,-0.577,-0.577,0.512,-0.807,-0.292,0.723,-0.358,0.591,-0.348,0.348,-0.87,0.821,-0.206,0.532,-0.913,0.365,0.183,0.853,-0.206,0.479,-0.371,0.743,-0.557,0.994,-0.036,-0.1,-0.762,0.635,-0.127,0.161,0.926,0.342,-0.937,-0.156,-0.312,rock
3.457744,0.04,0.826,0.562,0.577,-0.577,-0.577,0.506,-0.809,-0.301,0.717,-0.357,0.599,-0.0,0.164,-0.986,0.815,-0.211,0.54,-0.949,0.316,0.0,0.848,-0.206,0.488,-0.0,0.447,-0.894,0.995,-0.038,-0.089,-0.707,0.566,-0.424,0.172,0.925,0.34,-0.93,0.116,-0.349,rock
3.45842,0.052,0.816,0.575,-0.688,0.229,0.688,0.506,-0.809,-0.301,0.722,-0.352,0.596,0.156,-0.312,-0.937,0.817,-0.203,0.539,-0.0,-0.707,-0.707,0.854,-0.198,0.48,0.236,-0.236,-0.943,0.995,-0.026,-0.1,-0.557,0.371,-0.743,0.165,0.922,0.351,-0.816,0.408,-0.408,rock
3.458566,0.057,0.814,0.578,-0.688,0.229,0.688,0.516,-0.781,-0.351,0.729,-0.345,0.592,0.156,-0.312,-0.937,0.823,-0.194,0.534,-0.707,-0.707,0.0,0.86,-0.192,0.472,0.302,-0.302,-0.905,0.994,-0.02,-0.109,-0.688,0.229,-0.688,0.155,0.92,0.359,-0.778,0.444,-0.444,rock
3.458689,0.052,0.813,0.579,-0.894,0.0,0.447,0.516,-0.781,-0.351,0.729,-0.346,0.59,0.0,-0.164,-0.986,0.824,-0.192,0.533,-0.707,-0.707,0.0,0.861,-0.192,0.471,0.0,-0.0,-1.0,0.994,-0.021,-0.11,-0.802,0.267,-0.535,0.154,0.922,0.356,-0.768,0.329,-0.549,rock
3.458819,0.044,0.82,0.571,-0.894,0.0,0.447,0.502,-0.804,-0.317,0.724,-0.352,0.593,0.0,-0.196,-0.981,0.821,-0.203,0.534,-0.894,0.0,0.447,0.856,-0.2,0.477,-0.0,0.0,-1.0,0.994,-0.029,-0.102,-0.816,0.408,-0.408,0.161,0.924,0.348,-0.717,0.359,-0.598,rock
3.458955,0.045,0.813,0.58,-0.707,0.707,-0.0,0.502,-0.804,-0.317,0.725,-0.353,0.591,0.0,-0.555,-0.832,0.823,-0.202,0.532,-0.267,-0.535,0.802,0.857,-0.201,0.474,0.0,-0.0,-1.0,0.994,-0.03,-0.105,-0.894,0.447,-0.0,0.158,0.924,0.348,-0.662,0.53,-0.53,rock
3.459079,0.032,0.81,0.585,-0.485,0.728,0.485,0.502,-0.804,-0.317,0.732,-0.353,0.583,0.183,-0.365,-0.913,0.828,-0.198,0.524,-0.577,-0.577,0.577,0.861,-0.206,0.465,0.408,-0.408,-0.816,0.993,-0.034,-0.115,-0.802,0.267,-0.535,0.145,0.927,0.346,-0.738,0.422,-0.527,rock
3.461661,0.041,0.813,0.582,0.267,-0.535,0.802,0.502,-0.804,-0.317,0.732,-0.351,0.584,0.275,-0.0,-0.962,0.827,-0.197,0.526,-0.577,0.577,-0.577,0.862,-0.2,0.465,0.192,0.192,-0.962,0.993,-0.026,-0.116,-0.625,0.469,-0.625,0.147,0.925,0.351,-0.905,0.302,-0.302,rock
3.461791,0.041,0.811,0.584,-0.894,-0.447,0.0,0.474,-0.813,-0.339,0.731,-0.357,0.582,-0.0,-0.0,-1.0,0.828,-0.2,0.524,-0.816,0.408,0.408,0.862,-0.205,0.464,-0.0,0.316,-0.949,0.993,-0.031,-0.118,-0.743,0.557,-0.371,0.147,0.927,0.346,-0.843,0.241,-0.482,rock
3.469669,0.028,0.81,0.586,0.0,0.707,-0.707,0.48,-0.807,-0.344,0.727,-0.361,0.583,-0.183,0.365,-0.913,0.825,-0.206,0.526,-0.873,0.436,0.218,0.859,-0.211,0.467,-0.426,0.64,-0.64,0.993,-0.038,-0.115,-0.824,0.549,-0.137,0.149,0.929,0.34,-0.894,-0.0,-0.447,rock
3.505382,0.04,0.816,0.577,0.816,-0.408,-0.408,0.48,-0.807,-0.344,0.728,-0.356,0.586,-0.0,0.316,-0.949,0.825,-0.205,0.526,-0.802,0.535,0.267,0.858,-0.207,0.469,-0.229,0.688,-0.688,0.993,-0.033,-0.112,-0.745,0.596,-0.298,0.152,0.927,0.343,-0.919,-0.0,-0.394,rock
3.546853,0.036,0.809,0.586,0.0,-1.0,0.0,0.491,-0.808,-0.326,0.732,-0.354,0.582,-0.0,0.496,-0.868,0.829,-0.198,0.523,-0.802,0.535,0.267,0.863,-0.206,0.462,-0.196,0.784,-0.588,0.992,-0.032,-0.124,-0.762,0.635,-0.127,0.142,0.928,0.345,-0.811,-0.487,-0.324,rock
3.970235,0.032,0.816,0.577,0.68,-0.68,-0.272,0.491,-0.808,-0.326,0.726,-0.361,0.585,0.115,0.577,-0.808,0.825,-0.205,0.526,-0.436,0.873,0.218,0.856,-0.211,0.472,-0.0,0.857,-0.514,0.993,-0.038,-0.112,-0.688,0.688,-0.229,0.156,0.927,0.34,-0.845,-0.507,0.169,rock
3.97047,0.028,0.819,0.573,0.302,-0.302,-0.905,0.539,-0.785,-0.305,0.722,-0.36,0.591,-0.14,0.7,-0.7,0.823,-0.209,0.529,-0.686,0.514,0.514,0.854,-0.209,0.476,-0.365,0.913,-0.183,0.994,-0.037,-0.107,-0.702,0.702,0.117,0.164,0.927,0.337,-0.688,-0.688,-0.229,rock
3.9706,0.045,0.812,0.581,0.236,-0.236,-0.943,0.537,-0.787,-0.304,0.727,-0.352,0.59,-0.196,0.588,-0.784,0.823,-0.2,0.531,-0.743,0.371,0.557,0.857,-0.203,0.473,-0.236,0.943,-0.236,0.993,-0.031,-0.111,-0.707,0.707,0.0,0.157,0.925,0.345,-0.962,-0.192,-0.192,rock
3.970735,0.041,0.817,0.576,0.236,-0.236,-0.943,0.499,-0.797,-0.34,0.726,-0.354,0.589,-0.384,0.512,-0.768,0.825,-0.202,0.528,-0.905,0.302,0.302,0.857,-0.205,0.473,-0.566,0.707,-0.424,0.993,-0.033,-0.115,-0.848,0.53,0.0,0.156,0.926,0.343,-0.762,-0.457,-0.457,rock
3.970882,0.037,0.818,0.574,0.13,-0.391,-0.911,0.551,-0.771,-0.32,0.72,-0.36,0.593,-0.615,0.492,-0.615,0.821,-0.211,0.531,-0.928,0.309,0.206,0.853,-0.21,0.478,-0.744,0.62,-0.248,0.993,-0.038,-0.108,-0.858,0.477,0.191,0.162,0.927,0.337,-0.457,-0.762,-0.457,rock
3.971018,0.037,0.815,0.579,0.12,-0.241,-0.963,0.498,-0.79,-0.359,0.722,-0.356,0.593,-0.704,0.503,-0.503,0.823,-0.207,0.529,-0.921,0.276,0.276,0.855,-0.209,0.475,-0.742,0.636,-0.212,0.993,-0.036,-0.11,-0.83,0.498,0.249,0.159,0.927,0.339,-0.286,-0.857,-0.429,rock
3.971139,0.044,0.821,0.569,0.206,-0.309,-0.928,0.533,-0.786,-0.314,0.718,-0.351,0.602,-0.655,0.573,-0.492,0.816,-0.205,0.541,-0.923,0.308,0.231,0.851,-0.201,0.485,-0.683,0.683,-0.256,0.995,-0.031,-0.098,-0.83,0.484,0.277,0.169,0.924,0.344,-0.228,-0.912,-0.342,rock
3.972498,0.046,0.833,0.552,0.254,-0.381,-0.889,0.499,-0.809,-0.312,0.709,-0.349,0.613,-0.667,0.477,-0.572,0.808,-0.21,0.551,-0.953,0.286,0.095,0.843,-0.2,0.498,-0.697,0.597,-0.398,0.996,-0.034,-0.081,-0.867,0.473,0.158,0.186,0.922,0.338,-0.512,-0.768,-0.384,rock
3.972624,0.047,0.831,0.555,0.169,-0.507,-0.845,0.547,-0.801,-0.244,0.71,-0.348,0.612,-0.505,0.303,-0.808,0.809,-0.206,0.55,-0.93,0.349,-0.116,0.845,-0.197,0.497,-0.615,0.492,-0.615,0.996,-0.029,-0.083,-0.87,0.483,-0.097,0.184,0.921,0.343,-0.814,-0.465,-0.349,rock
3.972744,0.048,0.828,0.559,0.0,0.0,-1.0,0.547,-0.801,-0.244,0.71,-0.352,0.61,-0.492,0.123,-0.862,0.808,-0.209,0.55,-0.99,0.141,-0.0,0.844,-0.199,0.497,-0.625,0.469,-0.625,0.996,-0.031,-0.083,-0.862,0.492,-0.123,0.185,0.922,0.34,-0.911,-0.13,-0.391,rock
4.01242,0.044,0.827,0.56,0.0,1.0,0.0,0.547,-0.801,-0.244,0.712,-0.355,0.606,-0.514,-0.0,-0.857,0.811,-0.211,0.546,-0.913,0.183,0.365,0.846,-0.203,0.494,-0.577,0.577,-0.577,0.996,-0.035,-0.087,-0.8,0.6,-0.0,0.181,0.924,0.337,-0.811,0.324,-0.487,rock
4.051703,0.044,0.824,0.565,-0.408,0.816,0.408,0.547,-0.801,-0.244,0.712,-0.355,0.605,-0.324,-0.487,-0.811,0.811,-0.212,0.545,-0.832,-0.0,0.555,0.846,-0.205,0.491,-0.0,0.707,-0.707,0.995,-0.037,-0.088,-0.667,0.667,-0.333,0.18,0.925,0.336,-0.802,0.535,-0.267,rock
4.480215,0.04,0.826,0.562,-0.14,0.7,0.7,0.547,-0.801,-0.244,0.715,-0.356,0.602,0.0,-0.64,-0.768,0.813,-0.212,0.542,-0.408,-0.816,0.408,0.846,-0.209,0.49,0.333,-0.667,-0.667,0.995,-0.039,-0.092,0.0,0.316,-0.949,0.176,0.926,0.334,-0.722,0.619,-0.309,rock
4.480354,0.031,0.818,0.574,-0.456,0.57,0.684,0.52,-0.793,-0.318,0.719,-0.36,0.595,0.333,-0.667,-0.667,0.816,-0.218,0.535,0.707,-0.707,0.0,0.847,-0.215,0.487,0.686,-0.514,-0.514,0.994,-0.047,-0.095,0.371,0.0,-0.928,0.174,0.929,0.326,-0.688,0.688,-0.229,rock
4.480487,0.031,0.819,0.572,-0.456,0.57,0.684,0.514,-0.795,-0.321,0.723,-0.362,0.588,0.409,-0.701,-0.584,0.82,-0.219,0.529,0.723,-0.562,-0.402,0.849,-0.221,0.48,0.538,-0.74,-0.404,0.994,-0.052,-0.098,0.293,-0.513,-0.807,0.167,0.932,0.323,-0.656,0.656,-0.375,rock
4.480612,0.012,0.8,0.6,-0.456,0.57,0.684,0.514,-0.795,-0.321,0.738,-0.361,0.57,0.518,-0.605,-0.605,0.834,-0.209,0.51,0.754,-0.377,-0.538,0.863,-0.222,0.455,0.543,-0.641,-0.543,0.991,-0.046,-0.128,0.257,-0.411,-0.874,0.138,0.933,0.332,-0.737,0.589,-0.332,rock
4.480733,0.042,0.78,0.625,-0.682,-0.049,0.73,0.514,-0.795,-0.321,0.753,-0.353,0.555,0.39,-0.606,-0.693,0.848,-0.187,0.496,0.621,-0.395,-0.677,0.878,-0.211,0.43,0.439,-0.682,-0.585,0.987,-0.028,-0.159,0.052,-0.467,-0.883,0.111,0.931,0.348,-0.763,0.509,-0.4,rock
4.480852,0.043,0.772,0.634,-0.745,-0.083,0.662,0.514,-0.795,-0.321,0.762,-0.357,0.541,0.285,-0.641,-0.712,0.856,-0.186,0.482,0.456,-0.684,-0.57,0.884,-0.215,0.415,0.287,-0.766,-0.575,0.984,-0.029,-0.174,-0.105,-0.527,-0.843,0.097,0.934,0.344,-0.654,0.535,-0.535,rock
4.480987,0.008,0.762,0.648,-0.962,-0.192,-0.192,0.514,-0.795,-0.321,0.77,-0.367,0.522,-0.207,-0.518,-0.83,0.868,-0.191,0.459,-0.557,-0.743,-0.371,0.887,-0.234,0.399,-0.333,-0.667,-0.667,0.98,-0.049,-0.193,-0.857,-0.429,-0.286,0.073,0.941,0.33,-0.594,0.254,-0.763,rock
4.482107,0.004,0.755,0.656,-0.768,-0.512,-0.384,0.514,-0.795,-0.321,0.778,-0.362,0.513,-0.535,0.076,-0.841,0.874,-0.183,0.45,-0.909,0.101,-0.404,0.895,-0.232,0.382,-0.749,0.094,-0.656,0.977,-0.042,-0.209,-0.986,0.076,-0.152,0.056,0.94,0.336,-0.647,-0.404,-0.647,rock
4.482254,0.04,0.751,0.659,0.132,-0.793,-0.595,0.483,-0.804,-0.348,0.785,-0.349,0.511,-0.619,0.309,-0.722,0.876,-0.167,0.453,-0.893,0.223,-0.391,0.898,-0.219,0.381,-0.757,0.27,-0.595,0.977,-0.033,-0.21,-0.979,0.196,-0.049,0.052,0.936,0.349,-0.451,-0.734,-0.508,rock
4.482378,0.023,0.758,0.652,0.147,-0.885,-0.442,0.513,-0.778,-0.361,0.789,-0.346,0.508,-0.506,0.439,-0.742,0.878,-0.163,0.45,-0.777,0.389,-0.495,0.899,-0.22,0.379,-0.648,0.341,-0.682,0.977,-0.035,-0.212,-0.954,0.254,-0.159,0.046,0.936,0.349,-0.524,-0.804,-0.28,rock
4.517964,0.008,0.744,0.668,0.062,-0.927,-0.371,0.513,-0.778,-0.361,0.794,-0.351,0.497,-0.44,0.342,-0.831,0.883,-0.165,0.439,-0.657,0.368,-0.657,0.901,-0.23,0.368,-0.588,0.196,-0.784,0.974,-0.044,-0.223,-0.942,0.141,-0.306,0.033,0.94,0.341,-0.587,-0.734,-0.342,rock
4.563764,0.013,0.732,0.681,-0.053,-0.962,-0.267,0.501,-0.798,-0.335,0.799,-0.362,0.48,-0.404,0.349,-0.845,0.891,-0.169,0.422,-0.606,0.371,-0.704,0.905,-0.237,0.352,-0.573,0.203,-0.794,0.97,-0.046,-0.238,-0.937,0.126,-0.324,0.021,0.942,0.335,-0.573,-0.757,-0.314,rock
4.990206,0.025,0.731,0.682,-0.069,-0.935,-0.346,0.501,-0.798,-0.335,0.802,-0.357,0.479,-0.481,0.365,-0.797,0.892,-0.16,0.423,-0.684,0.333,-0.649,0.91,-0.225,0.347,-0.65,0.2,-0.733,0.969,-0.034,-0.245,-0.963,0.114,-0.245,0.02,0.939,0.344,-0.474,-0.813,-0.339,rock
4.990431,0.045,0.739,0.673,0.045,-0.803,-0.595,0.501,-0.798,-0.335,0.798,-0.348,0.492,-0.618,0.422,-0.663,0.886,-0.156,0.437,-0.805,0.325,-0.496,0.91,-0.212,0.355,-0.752,0.301,-0.587,0.97,-0.019,-0.241,-0.982,0.179,-0.06,0.032,0.933,0.358,-0.283,-0.911,-0.299,rock
4.990558,0.045,0.761,0.647,0.045,-0.803,-0.595,0.454,-0.802,-0.388,0.783,-0.342,0.519,-0.69,0.483,-0.538,0.872,-0.159,0.462,-0.872,0.332,-0.36,0.902,-0.203,0.38,-0.801,0.373,-0.469,0.977,-0.014,-0.215,-0.969,0.239,0.066,0.062,0.931,0.36,-0.143,-0.959,-0.243,rock
4.99069,0.056,0.782,0.62,0.192,-0.654,-0.731,0.454,-0.802,-0.388,0.76,-0.346,0.55,-0.719,0.552,-0.423,0.852,-0.179,0.492,-0.905,0.357,-0.23,0.884,-0.204,0.42,-0.806,0.461,-0.371,0.985,-0.022,-0.17,-0.934,0.311,0.174,0.108,0.93,0.352,-0.027,-0.987,-0.16,rock
4.990815,0.021,0.811,0.585,0.192,-0.654,-0.731,0.502,-0.79,-0.353,0.737,-0.36,0.572,-0.732,0.6,-0.324,0.837,-0.201,0.509,-0.913,0.386,-0.129,0.87,-0.211,0.445,-0.796,0.534,-0.285,0.989,-0.033,-0.146,-0.889,0.381,0.254,0.126,0.931,0.343,0.074,-0.995,-0.074,rock
4.990947,-0.031,0.862,0.506,0.305,-0.556,-0.773,0.51,-0.753,-0.416,0.693,-0.392,0.606,-0.721,0.626,-0.297,0.802,-0.259,0.539,-0.908,0.407,-0.104,0.822,-0.251,0.512,-0.782,0.56,-0.275,0.994,-0.089,-0.063,-0.884,0.395,0.25,0.201,0.937,0.285,0.066,-0.997,-0.044,rock
4.991068,0.03,0.873,0.487,0.256,-0.667,-0.7,0.58,-0.75,-0.318,0.661,-0.394,0.638,-0.684,0.585,-0.435,0.769,-0.283,0.574,-0.876,0.407,-0.259,0.79,-0.244,0.562,-0.767,0.495,-0.408,0.996,-0.091,0.001,-0.929,0.354,0.11,0.267,0.924,0.272,-0.091,-0.99,-0.104,rock
4.992459,0.081,0.853,0.515,0.113,-0.806,-0.581,0.56,-0.746,-0.36,0.681,-0.348,0.645,-0.671,0.567,-0.477,0.782,-0.223,0.581,-0.869,0.405,-0.285,0.828,-0.191,0.527,-0.746,0.493,-0.448,0.998,-0.027,-0.052,-0.928,0.362,0.087,0.217,0.914,0.344,-0.141,-0.986,-0.094,rock
4.992593,0.049,0.85,0.525,0.483,-0.674,-0.559,0.62,-0.705,-0.343,0.686,-0.341,0.643,-0.537,0.747,-0.393,0.783,-0.214,0.585,-0.776,0.608,-0.168,0.827,-0.183,0.532,-0.623,0.662,-0.416,0.999,-0.023,-0.041,-0.836,0.545,0.063,0.23,0.909,0.347,-0.123,-0.986,0.11,rock
4.992716,0.041,0.901,0.431,0.46,-0.684,-0.566,0.62,-0.705,-0.343,0.633,-0.361,0.685,-0.563,0.698,-0.443,0.736,-0.26,0.624,-0.799,0.555,-0.23,0.778,-0.193,0.598,-0.658,0.603,-0.452,0.998,-0.046,0.037,-0.877,0.478,0.053,0.313,0.898,0.31,-0.157,-0.987,0.029,rock
5.017539,0.05,0.922,0.385,0.426,-0.678,-0.599,0.623,-0.715,-0.318,0.587,-0.368,0.721,-0.543,0.745,-0.388,0.694,-0.287,0.66,-0.8,0.584,-0.138,0.74,-0.189,0.645,-0.632,0.663,-0.401,0.994,-0.048,0.095,-0.838,0.539,0.09,0.375,0.879,0.295,-0.117,-0.988,0.1,rock
5.062444,0.05,0.922,0.384,0.383,-0.574,-0.723,0.616,-0.722,-0.315,0.581,-0.37,0.724,-0.651,0.69,-0.316,0.69,-0.289,0.663,-0.873,0.485,-0.058,0.737,-0.187,0.65,-0.714,0.634,-0.297,0.994,-0.046,0.101,-0.842,0.497,0.21,0.379,0.876,0.298,0.0,-1.0,0.022,rock
5.499062,0.004,0.907,0.421,0.286,-0.429,-0.857,0.638,-0.701,-0.319,0.595,-0.385,0.705,-0.784,0.598,-0.165,0.71,-0.292,0.64,-0.94,0.333,0.078,0.754,-0.205,0.625,-0.789,0.607,-0.101,0.996,-0.06,0.068,-0.81,0.424,0.405,0.339,0.893,0.295,0.226,-0.973,-0.045,rock
5.499307,-0.018,0.913,0.407,0.286,-0.429,-0.857,0.668,-0.681,-0.3,0.583,-0.398,0.708,-0.819,0.565,-0.097,0.701,-0.315,0.64,-0.955,0.275,0.11,0.735,-0.225,0.64,-0.828,0.559,-0.039,0.992,-0.086,0.091,-0.803,0.383,0.456,0.356,0.896,0.267,0.271,-0.959,-0.083,rock
5.499436,0.004,0.92,0.392,0.274,-0.297,-0.915,0.655,-0.687,-0.316,0.571,-0.386,0.724,-0.759,0.64,-0.119,0.686,-0.315,0.656,-0.933,0.333,0.133,0.72,-0.217,0.659,-0.772,0.632,-0.07,0.989,-0.084,0.118,-0.785,0.471,0.404,0.376,0.887,0.267,0.211,-0.977,0.0,rock
5.499562,0.05,0.915,0.4,0.437,-0.437,-0.786,0.693,-0.649,-0.314,0.593,-0.36,0.72,-0.707,0.589,-0.393,0.699,-0.28,0.658,-0.922,0.384,-0.038,0.74,-0.189,0.645,-0.745,0.588,-0.314,0.993,-0.054,0.101,-0.859,0.465,0.215,0.355,0.884,0.304,-0.186,-0.978,-0.093,rock
5.499686,0.03,0.894,0.447,0.058,-0.991,-0.117,0.658,-0.688,-0.306,0.624,-0.359,0.694,-0.392,0.48,-0.785,0.731,-0.263,0.629,-0.728,0.485,-0.485,0.774,-0.197,0.601,-0.529,0.397,-0.75,0.998,-0.049,0.04,-0.897,0.367,-0.245,0.3,0.9,0.317,-0.673,-0.718,-0.179,rock
5.499815,-0.011,0.883,0.47,0.058,-0.991,-0.117,0.672,-0.682,-0.29,0.641,-0.381,0.666,-0.172,0.481,-0.86,0.751,-0.273,0.601,-0.498,0.613,-0.613,0.782,-0.223,0.582,-0.348,0.348,-0.87,0.997,-0.071,0.019,-0.815,0.358,-0.456,0.281,0.912,0.298,-0.78,-0.611,-0.136,rock
5.499951,-0.023,0.887,0.462,-0.29,-0.955,0.058,0.689,-0.675,-0.262,0.636,-0.4,0.66,-0.217,0.217,-0.952,0.752,-0.289,0.593,-0.412,0.317,-0.855,0.781,-0.236,0.578,-0.4,0.057,-0.915,0.997,-0.082,0.011,-0.851,0.055,-0.522,0.279,0.918,0.284,-0.765,-0.519,-0.382,rock
5.501949,-0.024,0.886,0.464,-0.222,-0.971,-0.083,0.652,-0.695,-0.302,0.627,-0.409,0.663,-0.302,0.302,-0.905,0.748,-0.302,0.592,-0.535,0.366,-0.761,0.779,-0.242,0.579,-0.493,0.156,-0.856,0.996,-0.086,0.009,-0.897,0.125,-0.424,0.284,0.918,0.277,-0.692,-0.641,-0.333,rock
5.502083,0.001,0.902,0.431,0.0,-0.878,-0.479,0.614,-0.712,-0.339,0.613,-0.401,0.681,-0.497,0.398,-0.771,0.73,-0.301,0.614,-0.719,0.373,-0.586,0.765,-0.228,0.603,-0.644,0.257,-0.721,0.996,-0.076,0.04,-0.96,0.172,-0.221,0.315,0.906,0.283,-0.492,-0.803,-0.337,rock
5.502208,0.024,0.912,0.409,-0.027,-0.819,-0.573,0.614,-0.712,-0.339,0.597,-0.384,0.705,-0.581,0.404,-0.707,0.712,-0.295,0.637,-0.8,0.32,-0.507,0.751,-0.208,0.627,-0.728,0.286,-0.624,0.995,-0.063,0.071,-0.976,0.195,-0.098,0.344,0.892,0.293,-0.376,-0.859,-0.349,rock
5.517949,0.027,0.922,0.387,-0.063,-0.845,-0.532,0.676,-0.664,-0.321,0.578,-0.374,0.725,-0.586,0.363,-0.725,0.692,-0.298,0.658,-0.808,0.299,-0.508,0.735,-0.198,0.649,-0.725,0.261,-0.638,0.993,-0.061,0.102,-0.979,0.168,-0.112,0.367,0.883,0.291,-0.423,-0.816,-0.393,rock
5.563089,0.03,0.912,0.408,-0.156,-0.937,-0.312,0.682,-0.656,-0.325,0.594,-0.368,0.715,-0.454,0.162,-0.876,0.703,-0.287,0.65,-0.678,0.178,-0.713,0.744,-0.196,0.639,-0.637,0.034,-0.771,0.994,-0.057,0.091,-0.948,-0.032,-0.316,0.352,0.886,0.3,-0.577,-0.609,-0.545,rock
5.600604,0.023,0.898,0.439,-0.513,-0.855,-0.068,0.682,-0.656,-0.325,0.613,-0.372,0.697,-0.361,-0.0,-0.933,0.723,-0.279,0.632,-0.488,0.035,-0.872,0.762,-0.203,0.615,-0.537,-0.19,-0.822,0.997,-0.058,0.055,-0.873,-0.218,-0.436,0.32,0.897,0.304,-0.657,-0.418,-0.627,rock
6.011272,0.004,0.886,0.463,-0.485,-0.872,-0.065,0.653,-0.668,-0.357,0.633,-0.379,0.675,-0.356,-0.082,-0.931,0.746,-0.272,0.608,-0.459,-0.031,-0.888,0.781,-0.212,0.587,-0.543,-0.257,-0.8,0.998,-0.06,0.02,-0.854,-0.276,-0.441,0.287,0.908,0.306,-0.636,-0.397,-0.662,rock
6.011433,0.001,0.878,0.478,-0.473,-0.867,-0.158,0.653,-0.668,-0.357,0.64,-0.382,0.667,-0.408,-0.024,-0.913,0.752,-0.271,0.601,-0.511,-0.0,-0.86,0.789,-0.214,0.576,-0.583,-0.203,-0.786,0.998,-0.062,0.01,-0.886,-0.246,-0.394,0.275,0.911,0.306,-0.597,-0.478,-0.645,rock
6.011574,0.012,0.89,0.457,-0.362,-0.893,-0.266,0.655,-0.659,-0.369,0.627,-0.371,0.685,-0.452,0.136,-0.882,0.737,-0.267,0.621,-0.593,0.148,-0.791,0.78,-0.203,0.592,-0.633,-0.023,-0.774,0.998,-0.053,0.027,-0.935,-0.091,-0.342,0.296,0.903,0.312,-0.569,-0.615,-0.546,rock
6.011698,0.043,0.912,0.407,-0.309,-0.927,-0.214,0.644,-0.674,-0.362,0.608,-0.361,0.708,-0.417,0.132,-0.899,0.713,-0.273,0.646,-0.582,0.145,-0.8,0.758,-0.189,0.625,-0.596,-0.046,-0.802,0.996,-0.046,0.072,-0.923,-0.088,-0.374,0.338,0.889,0.31,-0.577,-0.599,-0.555,rock
6.011825,0.059,0.913,0.404,-0.305,-0.942,-0.139,0.639,-0.662,-0.392,0.595,-0.354,0.721,-0.336,0.096,-0.937,0.7,-0.272,0.661,-0.495,0.165,-0.853,0.75,-0.177,0.637,-0.535,-0.076,-0.841,0.996,-0.035,0.087,-0.89,-0.099,-0.445,0.355,0.88,0.316,-0.655,-0.534,-0.534,rock
6.011964,0.067,0.904,0.423,-0.305,-0.942,-0.139,0.639,-0.662,-0.392,0.615,-0.351,0.706,-0.29,-0.058,-0.955,0.718,-0.261,0.645,-0.406,-0.0,-0.914,0.764,-0.179,0.619,-0.482,-0.241,-0.843,0.997,-0.034,0.063,-0.824,-0.265,-0.5,0.333,0.887,0.32,-0.694,-0.333,-0.638,rock
6.012094,0.048,0.876,0.481,-0.739,-0.665,0.111,0.633,-0.659,-0.406,0.651,-0.352,0.673,-0.22,-0.251,-0.943,0.753,-0.243,0.612,-0.265,-0.189,-0.946,0.799,-0.186,0.572,-0.374,-0.442,-0.816,1.0,-0.029,0.004,-0.724,-0.414,-0.552,0.275,0.902,0.332,-0.699,-0.152,-0.699,rock
6.013054,0.043,0.847,0.53,-0.739,-0.665,0.111,0.608,-0.68,-0.411,0.685,-0.351,0.638,-0.26,-0.325,-0.909,0.784,-0.222,0.58,-0.312,-0.312,-0.897,0.827,-0.19,0.528,-0.429,-0.501,-0.751,0.998,-0.023,-0.052,-0.74,-0.493,-0.458,0.229,0.911,0.344,-0.62,-0.124,-0.775,rock
6.013186,0.044,0.837,0.545,-0.669,-0.625,-0.402,0.608,-0.68,-0.411,0.699,-0.355,0.621,-0.519,-0.259,-0.815,0.797,-0.217,0.563,-0.598,-0.341,-0.726,0.84,-0.192,0.507,-0.686,-0.404,-0.605,0.997,-0.023,-0.076,-0.877,-0.438,-0.199,0.205,0.916,0.345,-0.442,-0.295,-0.847,rock
6.016942,0.037,0.829,0.558,-0.64,-0.426,-0.64,0.608,-0.68,-0.411,0.706,-0.358,0.611,-0.725,-0.229,-0.649,0.805,-0.219,0.552,-0.785,-0.372,-0.496,0.843,-0.203,0.499,-0.879,-0.293,-0.377,0.996,-0.034,-0.085,-0.928,-0.363,0.081,0.191,0.922,0.336,-0.237,-0.434,-0.869,rock
6.061328,0.048,0.824,0.564,-0.485,-0.485,-0.728,0.623,-0.644,-0.443,0.717,-0.346,0.606,-0.816,-0.082,-0.572,0.811,-0.204,0.548,-0.889,-0.254,-0.381,0.85,-0.195,0.49,-0.931,-0.089,-0.355,0.996,-0.026,-0.09,-0.963,-0.209,0.168,0.181,0.92,0.347,-0.177,-0.576,-0.798,rock
6.104151,0.059,0.823,0.565,-0.592,-0.547,-0.592,0.623,-0.644,-0.443,0.725,-0.331,0.604,-0.718,-0.151,-0.68,0.815,-0.188,0.548,-0.805,-0.282,-0.523,0.855,-0.184,0.485,-0.867,-0.206,-0.454,0.995,-0.013,-0.097,-0.962,-0.269,0.038,0.17,0.917,0.361,-0.273,-0.506,-0.818,rock
6.520345,0.069,0.82,0.568,-0.471,-0.813,-0.342,0.623,-0.644,-0.443,0.726,-0.326,0.605,-0.588,-0.037,-0.808,0.815,-0.184,0.55,-0.742,-0.124,-0.659,0.856,-0.182,0.483,-0.755,-0.159,-0.636,0.995,-0.01,-0.096,-0.962,-0.192,-0.192,0.168,0.916,0.365,-0.453,-0.529,-0.718,rock
6.520483,0.068,0.813,0.579,-0.447,-0.894,-0.037,0.63,-0.626,-0.46,0.739,-0.323,0.592,-0.365,-0.033,-0.93,0.824,-0.175,0.539,-0.536,-0.038,-0.843,0.864,-0.18,0.471,-0.558,-0.209,-0.803,0.994,-0.009,-0.108,-0.896,-0.199,-0.398,0.153,0.917,0.369,-0.642,-0.418,-0.642,rock
6.520617,0.071,0.804,0.59,-0.514,-0.856,0.057,0.63,-0.626,-0.46,0.742,-0.32,0.589,-0.274,-0.082,-0.958,0.828,-0.17,0.535,-0.382,-0.0,-0.924,0.869,-0.177,0.463,-0.458,-0.229,-0.859,0.993,-0.003,-0.118,-0.822,-0.255,-0.51,0.146,0.916,0.373,-0.695,-0.374,-0.614,rock
6.520745,0.087,0.802,0.591,-0.554,-0.831,0.055,0.63,-0.626,-0.46,0.745,-0.32,0.586,-0.258,-0.155,-0.954,0.828,-0.167,0.535,-0.35,-0.087,-0.933,0.871,-0.17,0.462,-0.455,-0.321,-0.83,0.993,0.006,-0.122,-0.8,-0.32,-0.507,0.149,0.913,0.379,-0.681,-0.328,-0.655,rock
6.520895,0.099,0.8,0.591,-0.617,-0.772,-0.154,0.63,-0.626,-0.46,0.744,-0.312,0.59,-0.385,-0.165,-0.908,0.827,-0.156,0.541,-0.466,-0.155,-0.871,0.875,-0.156,0.458,-0.578,-0.318,-0.751,0.991,0.023,-0.128,-0.861,-0.345,-0.373,0.15,0.908,0.392,-0.58,-0.386,-0.718,rock
6.521017,0.12,0.811,0.573,-0.498,-0.613,-0.613,0.63,-0.626,-0.46,0.736,-0.303,0.605,-0.669,-0.1,-0.736,0.817,-0.154,0.556,-0.776,-0.222,-0.591,0.868,-0.144,0.475,-0.84,-0.183,-0.511,0.993,0.031,-0.11,-0.958,-0.284,-0.035,0.17,0.901,0.4,-0.311,-0.519,-0.796,rock
6.521141,0.107,0.817,0.567,-0.495,-0.315,-0.81,0.63,-0.626,-0.46,0.732,-0.304,0.61,-0.826,-0.118,-0.551,0.813,-0.158,0.56,-0.9,-0.286,-0.327,0.863,-0.151,0.481,-0.957,-0.13,-0.261,0.995,0.022,-0.102,-0.943,-0.236,0.236,0.175,0.903,0.392,-0.084,-0.543,-0.836,rock
6.522235,0.082,0.811,0.58,-0.321,-0.267,-0.909,0.611,-0.594,-0.523,0.734,-0.311,0.603,-0.874,-0.0,-0.486,0.818,-0.168,0.55,-0.962,-0.192,-0.192,0.864,-0.167,0.476,-0.979,0.0,-0.206,0.995,0.005,-0.103,-0.953,-0.095,0.286,0.163,0.911,0.378,-0.052,-0.624,-0.78,rock
6.522364,0.075,0.818,0.571,-0.339,-0.474,-0.813,0.614,-0.585,-0.531,0.733,-0.313,0.604,-0.645,-0.059,-0.762,0.817,-0.171,0.551,-0.863,-0.199,-0.465,0.859,-0.168,0.483,-0.793,-0.132,-0.595,0.996,-0.001,-0.091,-0.981,-0.184,-0.061,0.173,0.912,0.372,-0.455,-0.398,-0.796,rock
6.52249,0.114,0.801,0.588,-0.83,-0.484,0.277,0.59,-0.596,-0.544,0.747,-0.296,0.595,-0.235,-0.411,-0.881,0.826,-0.148,0.545,-0.324,-0.487,-0.811,0.874,-0.153,0.462,-0.424,-0.566,-0.707,0.993,0.022,-0.117,-0.743,-0.473,-0.473,0.149,0.906,0.395,-0.654,0.05,-0.755,rock
6.561554,0.116,0.784,0.61,-0.878,-0.338,0.338,0.571,-0.621,-0.537,0.764,-0.29,0.577,-0.116,-0.349,-0.93,0.839,-0.131,0.528,-0.248,-0.331,-0.91,0.889,-0.147,0.434,-0.277,-0.484,-0.83,0.988,0.031,-0.15,-0.713,-0.389,-0.583,0.115,0.906,0.408,-0.732,0.052,-0.68,rock
6.601703,0.102,0.783,0.613,-0.477,-0.875,0.08,0.601,-0.581,-0.549,0.762,-0.294,0.577,-0.183,-0.122,-0.976,0.838,-0.134,0.529,-0.447,0.0,-0.894,0.888,-0.148,0.436,-0.355,-0.142,-0.924,0.988,0.031,-0.15,-0.83,-0.069,-0.553,0.123,0.907,0.404,-0.802,-0.172,-0.573,rock
7.03123,0.097,0.8,0.592,-0.331,-0.883,-0.331,0.594,-0.579,-0.559,0.753,-0.303,0.584,-0.385,0.0,-0.923,0.832,-0.147,0.535,-0.759,0.0,-0.651,0.879,-0.156,0.45,-0.555,-0.0,-0.832,0.991,0.021,-0.135,-0.946,0.079,-0.315,0.14,0.909,0.392,-0.712,-0.285,-0.641,rock
7.031386,0.083,0.8,0.594,0.408,-0.408,-0.816,0.594,-0.579,-0.559,0.745,-0.312,0.589,-0.527,0.422,-0.738,0.828,-0.159,0.538,-0.949,0.316,-0.0,0.875,-0.164,0.456,-0.684,0.456,-0.57,0.991,0.015,-0.129,-0.894,0.447,0.0,0.144,0.911,0.386,-0.615,-0.615,-0.492,rock
7.031517,0.095,0.807,0.583,0.552,-0.092,-0.829,0.594,-0.579,-0.559,0.741,-0.309,0.596,-0.634,0.724,-0.272,0.824,-0.159,0.544,-0.815,0.445,0.371,0.871,-0.161,0.464,-0.612,0.786,-0.087,0.993,0.016,-0.119,-0.712,0.641,0.285,0.153,0.91,0.385,-0.275,-0.962,-0.0,rock
7.03164,0.098,0.814,0.573,0.623,0.078,-0.778,0.594,-0.579,-0.559,0.731,-0.307,0.61,-0.408,0.898,0.163,0.814,-0.164,0.557,-0.597,0.537,0.597,0.864,-0.155,0.478,-0.272,0.953,0.136,0.994,0.02,-0.104,-0.408,0.816,0.408,0.169,0.907,0.387,0.115,-0.808,0.577,rock
7.031766,0.09,0.824,0.56,0.828,0.311,-0.466,0.594,-0.579,-0.559,0.727,-0.31,0.613,-0.205,0.889,0.41,0.809,-0.169,0.563,-0.447,0.496,0.744,0.857,-0.16,0.491,-0.056,0.958,0.282,0.996,0.011,-0.089,-0.158,0.894,0.42,0.181,0.907,0.379,0.268,-0.358,0.894,rock
7.031901,0.076,0.818,0.57,0.852,0.426,-0.304,0.615,-0.577,-0.538,0.731,-0.315,0.605,0.514,0.686,0.514,0.815,-0.175,0.553,-0.0,0.371,0.928,0.857,-0.17,0.486,0.527,0.738,0.422,0.996,-0.002,-0.092,0.309,0.928,0.206,0.174,0.912,0.37,-0.391,0.651,0.651,rock
7.032023,0.079,0.804,0.59,0.173,0.605,0.777,0.615,-0.577,-0.538,0.743,-0.312,0.592,1.0,-0.0,0.0,0.824,-0.164,0.542,0.62,0.248,0.744,0.869,-0.167,0.466,0.93,0.349,0.116,0.993,0.008,-0.117,0.598,0.717,-0.359,0.152,0.912,0.38,-0.594,0.763,0.254,rock
7.033128,0.075,0.799,0.597,0.108,0.647,0.755,0.615,-0.577,-0.538,0.746,-0.322,0.583,0.986,-0.164,-0.0,0.831,-0.168,0.531,0.549,0.137,0.824,0.874,-0.173,0.454,0.937,0.312,0.156,0.991,0.003,-0.131,0.487,0.811,-0.324,0.141,0.916,0.375,-0.588,0.784,0.196,rock
7.033279,0.046,0.807,0.588,0.351,0.936,0.0,0.615,-0.577,-0.538,0.739,-0.34,0.581,0.832,0.0,0.555,0.83,-0.187,0.525,0.124,0.0,0.992,0.867,-0.195,0.459,0.625,0.625,0.469,0.992,-0.019,-0.127,0.302,0.905,0.302,0.145,0.925,0.351,-0.302,0.905,0.302,rock
7.033412,0.041,0.808,0.588,0.309,0.928,-0.206,0.621,-0.572,-0.535,0.739,-0.348,0.577,0.316,0.0,0.949,0.831,-0.191,0.522,-0.11,-0.11,0.988,0.866,-0.2,0.458,0.298,0.596,0.745,0.992,-0.023,-0.126,0.267,0.802,0.535,0.145,0.926,0.349,-0.0,0.981,0.196,rock
7.062743,0.045,0.808,0.587,0.199,0.896,-0.398,0.636,-0.555,-0.537,0.735,-0.343,0.585,-0.588,0.196,0.784,0.828,-0.19,0.528,-0.445,-0.089,0.891,0.864,-0.196,0.463,-0.248,0.62,0.744,0.992,-0.02,-0.122,-0.115,0.577,0.808,0.147,0.924,0.354,0.707,0.707,-0.0,rock
7.104239,0.055,0.821,0.569,0.329,0.768,-0.549,0.597,-0.582,-0.552,0.726,-0.344,0.596,-0.667,0.333,0.667,0.819,-0.201,0.538,-0.514,-0.0,0.857,0.853,-0.197,0.482,-0.248,0.62,0.744,0.995,-0.025,-0.097,-0.212,0.636,0.742,0.173,0.922,0.346,0.667,0.667,-0.333,rock
7.541162,0.058,0.825,0.563,-0.108,0.97,-0.216,0.597,-0.582,-0.552,0.725,-0.342,0.598,-0.577,-0.577,0.577,0.817,-0.198,0.542,-0.318,-0.424,0.848,0.854,-0.196,0.482,-0.196,0.0,0.981,0.995,-0.025,-0.099,0.0,0.371,0.928,0.169,0.922,0.348,0.0,0.857,-0.514,rock
7.541302,0.046,0.811,0.584,-0.243,0.97,0.0,0.666,-0.561,-0.492,0.735,-0.342,0.586,-0.196,-0.981,0.0,0.826,-0.192,0.53,-0.14,-0.7,0.7,0.861,-0.198,0.468,0.267,-0.535,0.802,0.993,-0.025,-0.116,0.0,-0.447,0.894,0.151,0.924,0.351,-0.329,0.768,-0.549,rock
7.541434,0.04,0.799,0.6,-0.696,0.696,0.174,0.666,-0.561,-0.492,0.744,-0.345,0.572,-0.196,-0.784,-0.588,0.837,-0.19,0.513,-0.408,-0.816,0.408,0.869,-0.206,0.45,-0.447,-0.894,-0.0,0.991,-0.027,-0.133,-1.0,-0.0,0.0,0.131,0.928,0.348,-0.539,0.539,-0.647,rock
7.541566,0.032,0.79,0.612,-0.816,-0.408,-0.408,0.666,-0.561,-0.492,0.755,-0.345,0.557,-0.342,-0.228,-0.912,0.848,-0.182,0.499,-0.87,-0.348,-0.348,0.877,-0.209,0.433,-0.696,-0.174,-0.696,0.988,-0.029,-0.154,-0.992,-0.0,-0.124,0.11,0.93,0.35,-0.659,-0.0,-0.753,rock
7.541697,0.021,0.781,0.624,-0.465,-0.814,-0.349,0.646,-0.561,-0.517,0.762,-0.351,0.544,-0.467,0.117,-0.876,0.855,-0.183,0.486,-0.8,0.145,-0.582,0.882,-0.216,0.419,-0.671,0.067,-0.738,0.985,-0.033,-0.169,-0.968,0.061,-0.242,0.095,0.933,0.346,-0.652,-0.474,-0.592,rock
7.541828,0.017,0.78,0.626,-0.049,-0.873,-0.485,0.646,-0.561,-0.517,0.764,-0.356,0.537,-0.54,0.291,-0.79,0.858,-0.184,0.48,-0.802,0.267,-0.535,0.884,-0.221,0.413,-0.69,0.216,-0.69,0.983,-0.039,-0.178,-0.975,0.156,-0.156,0.088,0.936,0.342,-0.51,-0.722,-0.467,rock
7.541959,0.001,0.778,0.628,-0.077,-0.884,-0.461,0.608,-0.575,-0.547,0.766,-0.365,0.529,-0.573,0.344,-0.744,0.862,-0.19,0.47,-0.802,0.267,-0.535,0.883,-0.233,0.407,-0.73,0.234,-0.642,0.982,-0.049,-0.183,-0.981,0.136,-0.136,0.081,0.94,0.33,-0.437,-0.816,-0.379,rock
7.542986,0.001,0.774,0.633,-0.072,-0.862,-0.503,0.608,-0.575,-0.547,0.767,-0.369,0.525,-0.597,0.376,-0.708,0.865,-0.192,0.464,-0.799,0.306,-0.517,0.885,-0.236,0.401,-0.735,0.267,-0.623,0.981,-0.051,-0.189,-0.982,0.153,-0.109,0.073,0.941,0.33,-0.372,-0.86,-0.349,rock
7.543125,-0.007,0.765,0.644,-0.072,-0.862,-0.503,0.651,-0.518,-0.554,0.773,-0.371,0.514,-0.608,0.382,-0.695,0.872,-0.19,0.452,-0.798,0.284,-0.532,0.89,-0.239,0.388,-0.752,0.245,-0.612,0.978,-0.053,-0.204,-0.987,0.134,-0.084,0.057,0.943,0.329,-0.322,-0.877,-0.358,rock
7.543252,-0.003,0.767,0.642,0.0,-0.839,-0.544,0.651,-0.518,-0.554,0.776,-0.37,0.511,-0.639,0.383,-0.667,0.874,-0.191,0.447,-0.809,0.274,-0.52,0.89,-0.242,0.388,-0.763,0.254,-0.594,0.977,-0.056,-0.204,-0.99,0.125,-0.07,0.058,0.944,0.325,-0.288,-0.893,-0.346,rock
7.56582,-0.003,0.783,0.622,-0.046,-0.836,-0.546,0.637,-0.559,-0.531,0.766,-0.377,0.521,-0.647,0.383,-0.659,0.866,-0.201,0.458,-0.807,0.269,-0.526,0.882,-0.243,0.402,-0.781,0.24,-0.577,0.98,-0.06,-0.187,-0.993,0.105,-0.047,0.075,0.945,0.318,-0.255,-0.9,-0.353,rock
7.603772,0.004,0.789,0.614,-0.076,-0.836,-0.543,0.59,-0.545,-0.596,0.755,-0.377,0.536,-0.655,0.376,-0.655,0.856,-0.209,0.472,-0.812,0.252,-0.527,0.875,-0.244,0.418,-0.786,0.237,-0.571,0.983,-0.062,-0.172,-0.995,0.095,-0.042,0.092,0.945,0.315,-0.239,-0.902,-0.359,rock
8.050892,0.004,0.8,0.6,-0.031,-0.835,-0.55,0.59,-0.545,-0.596,0.748,-0.376,0.547,-0.664,0.381,-0.644,0.851,-0.207,0.484,-0.821,0.247,-0.514,0.872,-0.236,0.429,-0.798,0.234,-0.555,0.986,-0.054,-0.16,-0.995,0.097,-0.029,0.106,0.941,0.321,-0.217,-0.909,-0.356,rock
8.051043,0.017,0.805,0.594,-0.056,-0.805,-0.59,0.627,-0.495,-0.601,0.739,-0.372,0.562,-0.689,0.381,-0.617,0.841,-0.211,0.499,-0.84,0.246,-0.484,0.864,-0.233,0.446,-0.811,0.243,-0.532,0.988,-0.055,-0.144,-0.995,0.098,0.009,0.125,0.939,0.32,-0.182,-0.92,-0.346,rock
8.051186,0.012,0.815,0.579,-0.056,-0.805,-0.59,0.577,-0.536,-0.616,0.725,-0.374,0.578,-0.692,0.38,-0.614,0.828,-0.224,0.515,-0.834,0.243,-0.495,0.851,-0.233,0.47,-0.813,0.24,-0.531,0.992,-0.06,-0.113,-0.995,0.102,-0.0,0.154,0.938,0.311,-0.192,-0.917,-0.349,rock
8.051322,0.02,0.835,0.55,-0.094,-0.82,-0.564,0.574,-0.519,-0.634,0.71,-0.374,0.597,-0.69,0.354,-0.631,0.814,-0.233,0.532,-0.826,0.221,-0.519,0.841,-0.231,0.49,-0.809,0.211,-0.548,0.994,-0.061,-0.09,-0.998,0.067,-0.017,0.176,0.935,0.308,-0.205,-0.904,-0.375,rock
8.051446,0.024,0.84,0.541,-0.111,-0.83,-0.547,0.518,-0.511,-0.686,0.701,-0.374,0.607,-0.684,0.329,-0.651,0.805,-0.237,0.543,-0.816,0.206,-0.541,0.834,-0.226,0.503,-0.81,0.186,-0.557,0.995,-0.058,-0.077,-0.999,0.042,-0.025,0.191,0.931,0.309,-0.215,-0.893,-0.395,rock
8.051569,0.028,0.844,0.536,-0.121,-0.823,-0.555,0.518,-0.511,-0.686,0.694,-0.37,0.617,-0.681,0.328,-0.655,0.798,-0.239,0.553,-0.815,0.202,-0.543,0.83,-0.221,0.512,-0.812,0.179,-0.556,0.996,-0.055,-0.065,-0.999,0.034,-0.026,0.207,0.928,0.311,-0.218,-0.89,-0.401,rock
8.051703,0.045,0.85,0.525,-0.126,-0.82,-0.559,0.518,-0.511,-0.686,0.691,-0.36,0.627,-0.69,0.31,-0.654,0.792,-0.228,0.567,-0.824,0.179,-0.537,0.828,-0.206,0.521,-0.82,0.168,-0.547,0.997,-0.042,-0.058,-1.0,0.026,-0.018,0.215,0.921,0.325,-0.205,-0.884,-0.42,rock
8.05279,0.053,0.856,0.515,-0.126,-0.82,-0.559,0.509,-0.481,-0.714,0.683,-0.35,0.641,-0.688,0.335,-0.643,0.782,-0.224,0.582,-0.823,0.201,-0.531,0.824,-0.193,0.532,-0.816,0.188,-0.547,0.999,-0.031,-0.044,-0.999,0.045,-0.018,0.228,0.915,0.333,-0.21,-0.895,-0.393,rock
8.052939,0.076,0.869,0.488,-0.068,-0.824,-0.562,0.55,-0.478,-0.685,0.669,-0.335,0.663,-0.677,0.348,-0.649,0.765,-0.222,0.605,-0.822,0.22,-0.526,0.811,-0.176,0.558,-0.807,0.206,-0.554,1.0,-0.019,-0.013,-0.997,0.065,-0.028,0.261,0.903,0.342,-0.211,-0.9,-0.383,rock
8.053071,0.107,0.871,0.479,-0.068,-0.824,-0.562,0.549,-0.444,-0.708,0.663,-0.322,0.676,-0.688,0.329,-0.647,0.753,-0.215,0.622,-0.826,0.209,-0.523,0.806,-0.159,0.57,-0.814,0.196,-0.546,1.0,-0.003,0.006,-0.998,0.051,-0.02,0.278,0.893,0.355,-0.21,-0.893,-0.399,rock
8.069315,0.109,0.862,0.495,-0.125,-0.826,-0.55,0.508,-0.475,-0.719,0.67,-0.308,0.675,-0.681,0.323,-0.658,0.757,-0.2,0.622,-0.824,0.2,-0.53,0.813,-0.147,0.563,-0.81,0.185,-0.556,1.0,0.011,-0.003,-0.999,0.046,-0.023,0.266,0.89,0.37,-0.235,-0.881,-0.411,rock
8.10814,0.113,0.861,0.496,-0.136,-0.845,-0.518,0.508,-0.475,-0.719,0.675,-0.302,0.673,-0.661,0.305,-0.686,0.759,-0.193,0.622,-0.806,0.195,-0.559,0.816,-0.141,0.56,-0.797,0.164,-0.582,1.0,0.015,-0.006,-0.997,0.038,-0.063,0.264,0.888,0.376,-0.275,-0.865,-0.419,rock
8.150961,0.115,0.863,0.491,-0.189,-0.852,-0.489,0.435,-0.477,-0.764,0.674,-0.301,0.675,-0.638,0.261,-0.725,0.758,-0.19,0.624,-0.78,0.18,-0.6,0.816,-0.138,0.562,-0.777,0.132,-0.616,1.0,0.018,-0.004,-0.995,0.0,-0.101,0.269,0.886,0.378,-0.316,-0.827,-0.466,rock
8.560282,0.107,0.861,0.497,-0.258,-0.829,-0.497,0.418,-0.47,-0.777,0.675,-0.304,0.673,-0.666,0.205,-0.717,0.759,-0.191,0.622,-0.793,0.106,-0.599,0.818,-0.14,0.558,-0.802,0.07,-0.593,1.0,0.017,-0.01,-0.995,-0.051,-0.086,0.268,0.887,0.376,-0.32,-0.783,-0.534,rock
8.560526,0.1,0.864,0.494,-0.248,-0.788,-0.563,0.418,-0.47,-0.777,0.672,-0.31,0.673,-0.693,0.198,-0.693,0.759,-0.197,0.62,-0.836,0.084,-0.543,0.816,-0.146,0.559,-0.826,0.083,-0.558,1.0,0.011,-0.011,-0.999,-0.02,-0.04,0.268,0.89,0.369,-0.294,-0.798,-0.525,rock
8.560708,0.107,0.861,0.498,-0.235,-0.704,-0.67,0.452,-0.412,-0.791,0.671,-0.311,0.672,-0.745,0.18,-0.642,0.759,-0.2,0.619,-0.877,0.053,-0.478,0.817,-0.146,0.558,-0.855,0.107,-0.508,1.0,0.012,-0.011,-0.999,-0.026,0.026,0.268,0.89,0.369,-0.253,-0.787,-0.562,rock
8.560918,0.104,0.855,0.508,-0.28,-0.679,-0.679,0.452,-0.412,-0.791,0.682,-0.306,0.664,-0.748,0.13,-0.651,0.768,-0.191,0.611,-0.894,-0.0,-0.447,0.823,-0.144,0.549,-0.87,0.07,-0.487,1.0,0.015,-0.021,-0.997,-0.033,0.066,0.254,0.892,0.375,-0.252,-0.719,-0.647,rock
8.561114,0.121,0.845,0.521,-0.368,-0.631,-0.683,0.45,-0.405,-0.796,0.69,-0.29,0.664,-0.738,0.174,-0.652,0.771,-0.17,0.613,-0.927,0.046,-0.371,0.833,-0.127,0.538,-0.876,0.138,-0.461,0.999,0.034,-0.032,-0.996,0.041,0.083,0.241,0.886,0.397,-0.289,-0.723,-0.627,rock
8.561301,0.156,0.86,0.486,0.069,-0.553,-0.83,0.45,-0.405,-0.796,0.674,-0.282,0.683,-0.784,0.196,-0.588,0.752,-0.173,0.636,-0.989,0.066,-0.132,0.815,-0.115,0.568,-0.905,0.302,-0.302,0.999,0.04,0.005,-0.962,0.192,0.192,0.28,0.875,0.396,-0.256,-0.683,-0.683,rock
8.56146,0.132,0.865,0.485,-0.436,0.873,-0.218,0.406,-0.439,-0.801,0.671,-0.286,0.684,-0.371,-0.928,-0.0,0.751,-0.178,0.636,-0.248,-0.744,0.62,0.815,-0.122,0.567,-0.0,-0.6,0.8,0.999,0.032,0.004,0.0,-0.316,0.949,0.273,0.879,0.39,-0.108,0.755,-0.647,rock
8.562582,0.113,0.856,0.505,-0.064,0.893,0.446,0.409,-0.426,-0.807,0.68,-0.293,0.672,0.724,-0.634,0.272,0.764,-0.181,0.62,0.667,-0.333,0.667,0.823,-0.136,0.551,0.864,-0.259,0.432,1.0,0.022,-0.017,0.976,0.098,-0.195,0.253,0.888,0.384,-0.298,0.954,0.0,rock
8.562714,0.106,0.851,0.514,-0.038,0.687,0.725,0.444,-0.407,-0.798,0.68,-0.304,0.667,0.861,-0.431,0.269,0.765,-0.188,0.616,0.852,-0.15,0.501,0.824,-0.141,0.549,0.935,-0.197,0.295,0.999,0.02,-0.025,0.953,0.112,-0.28,0.253,0.89,0.38,-0.299,0.939,0.171,rock
8.564382,0.119,0.861,0.495,-0.038,0.687,0.725,0.448,-0.425,-0.786,0.663,-0.303,0.684,0.793,-0.226,0.566,0.749,-0.193,0.634,0.738,-0.067,0.671,0.809,-0.132,0.573,0.88,-0.0,0.474,1.0,0.024,0.007,0.967,0.251,-0.036,0.288,0.88,0.377,-0.032,0.935,0.354,rock
8.606002,0.131,0.883,0.451,0.293,0.827,0.48,0.474,-0.416,-0.776,0.642,-0.299,0.707,0.688,-0.295,0.663,0.727,-0.2,0.657,0.686,-0.16,0.709,0.791,-0.125,0.6,0.801,-0.069,0.595,0.999,0.024,0.04,0.989,0.118,0.094,0.319,0.871,0.375,0.132,0.926,0.353,rock
8.642668,0.131,0.889,0.439,0.293,0.827,0.48,0.474,-0.416,-0.776,0.634,-0.303,0.712,0.665,-0.341,0.665,0.72,-0.211,0.661,0.698,-0.221,0.681,0.781,-0.13,0.611,0.782,-0.119,0.612,0.998,0.017,0.057,0.993,0.053,0.106,0.333,0.87,0.363,0.167,0.934,0.317,rock
9.078249,0.087,0.881,0.465,0.071,0.865,0.497,0.474,-0.416,-0.776,0.64,-0.322,0.698,0.667,-0.381,0.64,0.732,-0.227,0.643,0.735,-0.249,0.63,0.785,-0.155,0.599,0.786,-0.183,0.59,0.999,-0.007,0.039,0.997,-0.013,0.081,0.31,0.886,0.346,0.153,0.944,0.293,rock
9.0784,0.075,0.863,0.499,0.053,0.866,0.497,0.474,-0.416,-0.776,0.662,-0.332,0.672,0.668,-0.393,0.632,0.756,-0.224,0.615,0.747,-0.264,0.609,0.807,-0.172,0.565,0.789,-0.194,0.583,1.0,-0.017,-0.004,0.998,-0.024,0.059,0.268,0.9,0.344,0.145,0.946,0.289,rock
9.078538,0.065,0.853,0.518,0.099,0.863,0.496,0.543,-0.42,-0.728,0.681,-0.341,0.648,0.673,-0.369,0.641,0.777,-0.22,0.59,0.748,-0.232,0.622,0.82,-0.185,0.541,0.799,-0.168,0.578,0.999,-0.025,-0.032,0.998,0.011,0.065,0.24,0.91,0.338,0.154,0.935,0.319,rock
9.078667,0.055,0.851,0.522,0.087,0.864,0.495,0.528,-0.473,-0.705,0.683,-0.352,0.64,0.676,-0.373,0.636,0.783,-0.228,0.579,0.755,-0.245,0.608,0.821,-0.198,0.535,0.798,-0.185,0.574,0.999,-0.036,-0.038,0.998,-0.01,0.06,0.231,0.917,0.327,0.153,0.939,0.307,rock
9.078798,0.043,0.846,0.532,0.043,0.848,0.528,0.528,-0.473,-0.705,0.691,-0.359,0.628,0.684,-0.403,0.609,0.791,-0.231,0.567,0.771,-0.266,0.578,0.825,-0.209,0.526,0.802,-0.219,0.556,0.998,-0.046,-0.049,0.998,-0.047,0.038,0.218,0.923,0.318,0.135,0.951,0.278,rock
9.078949,0.043,0.842,0.537,0.025,0.84,0.543,0.594,-0.461,-0.659,0.697,-0.359,0.621,0.694,-0.418,0.587,0.797,-0.227,0.56,0.792,-0.27,0.548,0.83,-0.211,0.516,0.809,-0.235,0.539,0.997,-0.046,-0.06,0.997,-0.071,0.009,0.208,0.925,0.318,0.111,0.958,0.265,rock
9.079072,0.044,0.839,0.542,0.008,0.821,0.571,0.629,-0.431,-0.647,0.701,-0.361,0.615,0.701,-0.436,0.564,0.803,-0.227,0.551,0.805,-0.285,0.52,0.835,-0.214,0.507,0.815,-0.266,0.515,0.996,-0.049,-0.071,0.995,-0.094,-0.017,0.199,0.927,0.317,0.089,0.966,0.243,rock
9.080084,0.023,0.838,0.546,0.008,0.821,0.571,0.627,-0.452,-0.635,0.704,-0.367,0.609,0.709,-0.442,0.55,0.808,-0.23,0.543,0.812,-0.287,0.508,0.836,-0.222,0.502,0.818,-0.27,0.507,0.995,-0.057,-0.077,0.994,-0.101,-0.034,0.191,0.931,0.312,0.08,0.968,0.24,rock
9.080217,0.016,0.838,0.545,0.008,0.821,0.571,0.62,-0.448,-0.644,0.7,-0.378,0.606,0.717,-0.437,0.544,0.807,-0.243,0.538,0.822,-0.274,0.5,0.831,-0.234,0.504,0.826,-0.265,0.497,0.995,-0.068,-0.074,0.995,-0.09,-0.041,0.194,0.934,0.299,0.071,0.965,0.251,rock
9.080352,0.012,0.842,0.54,-0.015,0.807,0.59,0.647,-0.467,-0.603,0.701,-0.383,0.602,0.716,-0.448,0.535,0.808,-0.25,0.534,0.823,-0.287,0.489,0.831,-0.241,0.502,0.823,-0.284,0.492,0.994,-0.074,-0.078,0.993,-0.111,-0.048,0.189,0.937,0.294,0.06,0.971,0.233,rock
9.096924,0.021,0.829,0.558,-0.007,0.801,0.599,0.652,-0.464,-0.6,0.71,-0.375,0.596,0.727,-0.441,0.526,0.814,-0.238,0.53,0.829,-0.274,0.487,0.84,-0.234,0.489,0.83,-0.279,0.483,0.993,-0.066,-0.094,0.993,-0.101,-0.062,0.175,0.936,0.304,0.052,0.968,0.244,rock
9.143355,0.012,0.811,0.585,-0.0,0.796,0.606,0.648,-0.478,-0.593,0.723,-0.379,0.578,0.734,-0.449,0.509,0.827,-0.234,0.51,0.844,-0.272,0.462,0.848,-0.243,0.471,0.841,-0.285,0.461,0.991,-0.072,-0.112,0.99,-0.113,-0.083,0.155,0.942,0.298,0.029,0.971,0.237,rock
9.580249,-0.003,0.793,0.609,-0.049,0.767,0.64,0.611,-0.501,-0.613,0.747,-0.382,0.543,0.733,-0.474,0.489,0.851,-0.221,0.477,0.852,-0.299,0.43,0.865,-0.253,0.434,0.835,-0.327,0.443,0.986,-0.075,-0.149,0.984,-0.149,-0.097,0.114,0.948,0.296,0.014,0.979,0.206,rock
9.580534,-0.007,0.756,0.654,-0.029,0.765,0.643,0.611,-0.501,-0.613,0.766,-0.384,0.515,0.743,-0.465,0.48,0.869,-0.208,0.448,0.856,-0.283,0.432,0.884,-0.257,0.39,0.844,-0.311,0.437,0.977,-0.07,-0.201,0.986,-0.129,-0.106,0.059,0.951,0.304,0.007,0.974,0.225,rock
9.58066,-0.015,0.764,0.645,0.015,0.775,0.632,0.611,-0.501,-0.613,0.773,-0.386,0.504,0.745,-0.452,0.491,0.874,-0.206,0.44,0.852,-0.274,0.446,0.885,-0.261,0.386,0.847,-0.295,0.443,0.976,-0.075,-0.204,0.988,-0.112,-0.104,0.055,0.952,0.301,0.015,0.974,0.228,rock
9.580791,-0.003,0.779,0.627,-0.008,0.754,0.657,0.611,-0.501,-0.613,0.761,-0.386,0.521,0.758,-0.453,0.47,0.864,-0.217,0.455,0.867,-0.262,0.425,0.875,-0.263,0.407,0.857,-0.299,0.42,0.98,-0.083,-0.18,0.985,-0.109,-0.134,0.082,0.953,0.292,-0.016,0.971,0.237,rock
9.580972,0.008,0.785,0.619,-0.039,0.729,0.683,0.611,-0.501,-0.613,0.757,-0.382,0.53,0.77,-0.459,0.443,0.859,-0.216,0.464,0.879,-0.266,0.395,0.873,-0.255,0.416,0.865,-0.312,0.392,0.982,-0.073,-0.172,0.979,-0.123,-0.164,0.095,0.949,0.301,-0.047,0.975,0.218,rock
9.581122,0.025,0.782,0.623,-0.047,0.729,0.683,0.608,-0.565,-0.558,0.756,-0.372,0.538,0.776,-0.458,0.433,0.857,-0.205,0.473,0.883,-0.257,0.393,0.877,-0.241,0.416,0.868,-0.313,0.386,0.983,-0.056,-0.177,0.979,-0.123,-0.164,0.095,0.944,0.315,-0.047,0.973,0.226,rock
9.581255,0.013,0.789,0.614,-0.008,0.738,0.675,0.65,-0.564,-0.509,0.749,-0.378,0.544,0.785,-0.417,0.458,0.853,-0.212,0.477,0.874,-0.227,0.429,0.871,-0.245,0.425,0.874,-0.273,0.401,0.984,-0.064,-0.164,0.985,-0.083,-0.149,0.107,0.946,0.306,-0.032,0.965,0.261,rock
9.582634,0.001,0.79,0.614,0.046,0.755,0.655,0.65,-0.564,-0.509,0.745,-0.388,0.542,0.781,-0.39,0.488,0.851,-0.226,0.473,0.865,-0.208,0.457,0.866,-0.257,0.428,0.875,-0.239,0.422,0.984,-0.077,-0.161,0.99,-0.049,-0.131,0.109,0.949,0.295,-0.016,0.957,0.288,rock
9.582765,0.001,0.788,0.615,0.046,0.755,0.655,0.576,-0.645,-0.502,0.75,-0.393,0.531,0.784,-0.38,0.491,0.857,-0.229,0.462,0.866,-0.195,0.46,0.866,-0.265,0.425,0.875,-0.232,0.426,0.983,-0.085,-0.163,0.991,-0.04,-0.127,0.102,0.954,0.283,-0.008,0.953,0.303,rock
9.582901,-0.011,0.768,0.64,0.046,0.755,0.655,0.591,-0.632,-0.502,0.769,-0.391,0.506,0.791,-0.429,0.437,0.872,-0.219,0.437,0.89,-0.224,0.396,0.874,-0.279,0.397,0.88,-0.288,0.377,0.977,-0.1,-0.189,0.978,-0.099,-0.182,0.065,0.959,0.275,-0.065,0.966,0.252,rock
9.596199,-0.026,0.755,0.656,-0.056,0.636,0.769,0.562,-0.693,-0.452,0.783,-0.396,0.48,0.826,-0.45,0.339,0.887,-0.209,0.411,0.927,-0.226,0.299,0.889,-0.281,0.361,0.899,-0.334,0.283,0.968,-0.093,-0.232,0.952,-0.134,-0.275,0.03,0.96,0.28,-0.154,0.964,0.217,rock
9.642693,0.005,0.683,0.731,-0.057,0.717,0.695,0.517,-0.682,-0.517,0.812,-0.391,0.434,0.807,-0.459,0.37,0.914,-0.18,0.363,0.912,-0.243,0.331,0.916,-0.273,0.294,0.883,-0.336,0.328,0.95,-0.071,-0.305,0.965,-0.135,-0.224,-0.031,0.957,0.287,-0.106,0.972,0.211,rock
10.091261,0.015,0.639,0.769,0.044,0.756,0.653,0.517,-0.682,-0.517,0.831,-0.384,0.402,0.76,-0.325,0.562,0.929,-0.154,0.336,0.828,-0.156,0.539,0.934,-0.26,0.246,0.86,-0.147,0.488,0.934,-0.05,-0.353,0.998,0.032,-0.048,-0.087,0.946,0.314,0.069,0.927,0.368,rock
10.091401,-0.016,0.68,0.733,0.246,0.853,0.461,0.532,-0.735,-0.42,0.824,-0.381,0.419,0.686,-0.243,0.686,0.92,-0.168,0.355,0.734,-0.122,0.668,0.92,-0.272,0.282,0.811,-0.049,0.584,0.949,-0.073,-0.308,0.99,0.116,0.083,-0.053,0.952,0.301,0.186,0.88,0.436,rock
10.091537,-0.017,0.734,0.679,0.306,0.805,0.507,0.529,-0.742,-0.411,0.798,-0.385,0.463,0.738,-0.172,0.652,0.897,-0.197,0.397,0.759,-0.042,0.65,0.895,-0.28,0.347,0.849,0.008,0.528,0.966,-0.092,-0.242,0.982,0.188,0.017,0.014,0.958,0.286,0.117,0.858,0.5,rock
10.091673,-0.007,0.759,0.651,0.282,0.758,0.588,0.493,-0.778,-0.389,0.781,-0.393,0.485,0.781,-0.238,0.577,0.883,-0.212,0.42,0.815,-0.075,0.574,0.885,-0.276,0.376,0.88,-0.074,0.469,0.973,-0.091,-0.21,0.991,0.119,-0.059,0.047,0.958,0.282,0.049,0.897,0.44,rock
10.091803,-0.018,0.746,0.666,0.144,0.75,0.646,0.47,-0.778,-0.416,0.786,-0.397,0.474,0.8,-0.295,0.522,0.889,-0.209,0.407,0.852,-0.108,0.513,0.89,-0.282,0.36,0.894,-0.139,0.426,0.969,-0.093,-0.229,0.991,0.059,-0.118,0.028,0.96,0.279,-0.008,0.923,0.385,rock
10.091947,-0.043,0.725,0.687,0.109,0.755,0.646,0.465,-0.813,-0.35,0.794,-0.413,0.446,0.784,-0.326,0.528,0.902,-0.211,0.377,0.847,-0.147,0.51,0.898,-0.293,0.329,0.882,-0.164,0.441,0.959,-0.099,-0.266,0.995,0.027,-0.098,-0.009,0.961,0.276,0.008,0.934,0.357,rock
10.092076,-0.081,0.739,0.669,0.109,0.755,0.646,0.488,-0.794,-0.363,0.771,-0.428,0.472,0.756,-0.272,0.595,0.885,-0.239,0.4,0.799,-0.108,0.592,0.882,-0.304,0.36,0.862,-0.088,0.499,0.966,-0.114,-0.234,0.996,0.091,-0.02,0.029,0.965,0.261,0.078,0.912,0.402,rock
10.09308,-0.063,0.811,0.582,0.198,0.826,0.528,0.488,-0.794,-0.363,0.729,-0.434,0.529,0.757,-0.274,0.593,0.847,-0.275,0.455,0.801,-0.117,0.587,0.844,-0.304,0.442,0.863,-0.105,0.495,0.982,-0.128,-0.142,0.997,0.077,-0.033,0.128,0.962,0.241,0.063,0.92,0.387,rock
10.093216,-0.016,0.837,0.547,0.041,0.81,0.585,0.403,-0.848,-0.345,0.701,-0.422,0.574,0.712,-0.404,0.574,0.818,-0.275,0.505,0.798,-0.249,0.549,0.83,-0.275,0.485,0.826,-0.227,0.516,0.99,-0.102,-0.1,0.999,-0.054,-0.011,0.175,0.949,0.264,0.092,0.957,0.275,rock
10.093457,-0.011,0.836,0.549,0.099,0.874,0.476,0.403,-0.848,-0.345,0.697,-0.402,0.594,0.667,-0.371,0.646,0.812,-0.256,0.525,0.741,-0.24,0.627,0.835,-0.251,0.49,0.789,-0.166,0.592,0.992,-0.078,-0.096,0.997,-0.0,0.075,0.176,0.94,0.292,0.176,0.934,0.311,rock
10.105496,-0.003,0.854,0.52,0.144,0.895,0.422,0.403,-0.848,-0.345,0.677,-0.391,0.623,0.649,-0.286,0.704,0.79,-0.261,0.555,0.701,-0.181,0.69,0.817,-0.24,0.525,0.78,-0.085,0.62,0.996,-0.077,-0.052,0.99,0.077,0.121,0.214,0.932,0.293,0.214,0.898,0.385,rock
10.150754,0.019,0.871,0.491,0.245,0.817,0.521,0.405,-0.871,-0.279,0.661,-0.376,0.649,0.727,-0.217,0.651,0.77,-0.26,0.583,0.755,-0.084,0.65,0.801,-0.225,0.555,0.838,-0.042,0.545,0.998,-0.069,-0.013,0.989,0.141,0.033,0.248,0.922,0.299,0.127,0.887,0.444,rock
10.597921,0.061,0.876,0.478,0.255,0.744,0.617,0.368,-0.88,-0.299,0.657,-0.348,0.669,0.803,-0.169,0.571,0.759,-0.235,0.607,0.806,-0.0,0.592,0.804,-0.187,0.565,0.894,-0.0,0.447,1.0,-0.031,-0.004,0.979,0.19,-0.074,0.261,0.906,0.334,0.03,0.873,0.487,rock
10.600972,0.094,0.889,0.448,0.293,0.756,0.586,0.368,-0.88,-0.299,0.643,-0.331,0.691,0.798,-0.17,0.578,0.736,-0.235,0.635,0.806,-0.0,0.592,0.787,-0.166,0.594,0.892,-0.0,0.451,0.999,-0.016,0.035,0.98,0.188,-0.069,0.304,0.89,0.339,0.038,0.872,0.489,rock
10.601124,0.097,0.885,0.454,0.293,0.756,0.586,0.296,-0.91,-0.291,0.638,-0.335,0.694,0.77,-0.242,0.591,0.734,-0.238,0.636,0.808,-0.087,0.582,0.784,-0.167,0.598,0.872,-0.069,0.484,0.999,-0.018,0.039,0.992,0.115,-0.044,0.309,0.891,0.331,0.06,0.903,0.426,rock
10.601257,0.043,0.882,0.47,0.293,0.756,0.586,0.309,-0.917,-0.252,0.643,-0.358,0.677,0.754,-0.3,0.584,0.746,-0.255,0.615,0.812,-0.143,0.565,0.787,-0.196,0.586,0.859,-0.126,0.496,0.999,-0.046,0.024,0.998,0.056,-0.04,0.29,0.906,0.309,0.07,0.922,0.38,rock
10.60138,0.008,0.878,0.478,0.087,0.801,0.592,0.242,-0.952,-0.188,0.646,-0.37,0.668,0.769,-0.295,0.567,0.756,-0.263,0.599,0.825,-0.13,0.55,0.794,-0.216,0.568,0.873,-0.129,0.471,0.998,-0.064,-0.001,0.996,0.062,-0.062,0.259,0.918,0.3,0.045,0.916,0.398,rock
10.601505,0.026,0.892,0.452,0.204,0.728,0.655,0.242,-0.952,-0.188,0.636,-0.367,0.678,0.83,-0.244,0.502,0.747,-0.266,0.61,0.87,-0.052,0.491,0.783,-0.212,0.584,0.918,-0.096,0.385,0.998,-0.064,0.019,0.982,0.098,-0.159,0.281,0.912,0.299,-0.044,0.902,0.429,rock
10.601625,0.047,0.897,0.439,0.169,0.697,0.697,0.162,-0.961,-0.222,0.628,-0.374,0.683,0.844,-0.26,0.469,0.738,-0.274,0.617,0.889,-0.057,0.455,0.776,-0.209,0.596,0.926,-0.119,0.358,0.998,-0.058,0.031,0.979,0.086,-0.187,0.3,0.907,0.295,-0.069,0.908,0.413,rock
10.602418,0.033,0.88,0.475,0.169,0.697,0.697,0.162,-0.961,-0.222,0.646,-0.384,0.66,0.814,-0.292,0.501,0.758,-0.273,0.593,0.871,-0.103,0.48,0.792,-0.222,0.569,0.905,-0.143,0.401,0.998,-0.064,-0.001,0.988,0.049,-0.146,0.269,0.918,0.292,-0.02,0.923,0.385,rock
10.60256,-0.019,0.883,0.47,0.131,0.775,0.618,0.162,-0.961,-0.222,0.636,-0.405,0.657,0.791,-0.296,0.536,0.755,-0.296,0.584,0.85,-0.121,0.513,0.783,-0.248,0.571,0.886,-0.147,0.44,0.996,-0.094,0.001,0.995,0.041,-0.096,0.271,0.926,0.263,0.02,0.925,0.38,rock
10.602692,0.004,0.893,0.451,0.111,0.764,0.635,0.048,-0.979,-0.199,0.635,-0.398,0.663,0.784,-0.316,0.534,0.751,-0.291,0.593,0.85,-0.143,0.506,0.78,-0.237,0.578,0.881,-0.161,0.444,0.997,-0.082,0.009,0.995,0.026,-0.092,0.282,0.92,0.272,0.025,0.932,0.361,rock
10.610616,0.044,0.864,0.502,0.118,0.808,0.578,0.014,-0.986,-0.165,0.67,-0.38,0.638,0.745,-0.317,0.587,0.781,-0.251,0.571,0.811,-0.156,0.564,0.82,-0.215,0.53,0.849,-0.142,0.508,0.997,-0.05,-0.053,0.999,0.04,-0.026,0.222,0.924,0.312,0.09,0.922,0.378,rock
10.645935,-0.012,0.848,0.53,0.156,0.847,0.508,-0.078,-0.971,-0.227,0.687,-0.401,0.606,0.703,-0.307,0.642,0.801,-0.264,0.537,0.775,-0.174,0.608,0.824,-0.249,0.509,0.821,-0.126,0.556,0.994,-0.084,-0.075,0.999,0.041,0.034,0.193,0.94,0.282,0.146,0.914,0.378,rock
10.689741,-0.061,0.845,0.531,0.118,0.846,0.52,-0.152,-0.97,-0.19,0.683,-0.428,0.592,0.697,-0.327,0.639,0.805,-0.293,0.516,0.771,-0.193,0.607,0.816,-0.287,0.503,0.819,-0.142,0.556,0.989,-0.123,-0.079,0.999,0.029,0.036,0.184,0.951,0.247,0.141,0.919,0.368,rock
11.110549,-0.049,0.848,0.528,0.096,0.818,0.567,-0.115,-0.971,-0.21,0.686,-0.421,0.594,0.722,-0.346,0.599,0.805,-0.285,0.52,0.798,-0.198,0.57,0.819,-0.278,0.501,0.838,-0.166,0.521,0.99,-0.112,-0.081,1.0,0.008,-0.008,0.181,0.949,0.26,0.097,0.934,0.344,rock
11.110949,-0.016,0.84,0.543,0.096,0.8,0.592,-0.115,-0.971,-0.21,0.699,-0.402,0.591,0.74,-0.349,0.574,0.812,-0.259,0.523,0.812,-0.187,0.552,0.835,-0.254,0.487,0.849,-0.17,0.501,0.992,-0.085,-0.098,0.999,0.008,-0.033,0.169,0.943,0.288,0.072,0.936,0.344,rock
11.111129,-0.023,0.83,0.558,0.106,0.823,0.558,-0.194,-0.952,-0.235,0.71,-0.398,0.581,0.728,-0.336,0.597,0.822,-0.247,0.512,0.796,-0.183,0.577,0.846,-0.252,0.471,0.84,-0.155,0.52,0.99,-0.078,-0.118,1.0,0.028,-0.009,0.149,0.943,0.299,0.09,0.931,0.353,rock
11.111252,-0.056,0.832,0.552,0.124,0.83,0.544,-0.253,-0.946,-0.204,0.698,-0.417,0.582,0.715,-0.282,0.639,0.817,-0.268,0.511,0.764,-0.147,0.628,0.835,-0.269,0.48,0.827,-0.094,0.555,0.989,-0.098,-0.106,0.995,0.087,0.044,0.163,0.948,0.274,0.125,0.909,0.397,rock
11.111374,-0.058,0.832,0.552,0.124,0.83,0.544,-0.257,-0.932,-0.255,0.701,-0.427,0.571,0.688,-0.295,0.663,0.821,-0.278,0.499,0.726,-0.167,0.667,0.832,-0.282,0.478,0.804,-0.084,0.588,0.988,-0.11,-0.106,0.992,0.087,0.087,0.159,0.952,0.263,0.167,0.909,0.383,rock
11.111493,-0.041,0.805,0.592,0.117,0.883,0.455,-0.257,-0.932,-0.255,0.727,-0.411,0.55,0.665,-0.34,0.665,0.84,-0.251,0.481,0.717,-0.221,0.662,0.852,-0.274,0.446,0.792,-0.125,0.598,0.985,-0.097,-0.141,0.994,0.043,0.101,0.121,0.952,0.28,0.164,0.93,0.328,rock
11.111614,-0.035,0.789,0.614,0.078,0.862,0.501,-0.257,-0.932,-0.255,0.752,-0.396,0.528,0.679,-0.383,0.627,0.858,-0.224,0.462,0.733,-0.256,0.631,0.871,-0.263,0.414,0.798,-0.17,0.578,0.982,-0.081,-0.173,0.997,0.0,0.071,0.086,0.951,0.299,0.117,0.952,0.284,rock
11.112623,-0.04,0.776,0.629,0.036,0.85,0.525,-0.3,-0.926,-0.227,0.759,-0.394,0.518,0.645,-0.447,0.62,0.864,-0.218,0.454,0.685,-0.307,0.661,0.878,-0.26,0.401,0.773,-0.193,0.604,0.979,-0.075,-0.191,0.995,-0.0,0.105,0.071,0.95,0.305,0.118,0.97,0.213,rock
11.112759,-0.035,0.8,0.599,0.339,0.932,0.127,-0.3,-0.926,-0.227,0.743,-0.39,0.544,0.565,-0.261,0.783,0.849,-0.221,0.479,0.499,-0.192,0.845,0.866,-0.253,0.432,0.706,0.042,0.706,0.985,-0.074,-0.156,0.908,0.272,0.318,0.108,0.946,0.306,0.209,0.919,0.334,rock
11.112906,-0.011,0.837,0.548,0.336,0.94,0.067,-0.264,-0.943,-0.205,0.706,-0.39,0.591,0.503,-0.072,0.862,0.814,-0.246,0.527,0.332,-0.055,0.942,0.838,-0.243,0.488,0.656,0.239,0.716,0.993,-0.074,-0.092,0.786,0.524,0.328,0.175,0.938,0.3,0.199,0.863,0.465,rock
11.149791,-0.003,0.852,0.524,0.267,0.802,0.535,-0.254,-0.933,-0.254,0.693,-0.385,0.61,0.843,-0.241,0.482,0.8,-0.25,0.546,0.513,-0.085,0.854,0.825,-0.237,0.513,0.87,0.097,0.483,0.995,-0.073,-0.065,0.814,0.581,0.0,0.201,0.933,0.3,-0.312,0.937,0.156,rock
11.191824,-0.015,0.818,0.575,-0.218,0.436,0.873,-0.254,-0.935,-0.246,0.712,-0.39,0.584,0.816,-0.408,-0.408,0.821,-0.241,0.518,0.845,-0.169,0.507,0.843,-0.246,0.478,0.973,-0.162,-0.162,0.992,-0.073,-0.105,0.557,0.371,-0.743,0.161,0.94,0.302,-0.699,0.699,-0.155,rock
11.62021,-0.019,0.799,0.601,-0.14,0.14,0.98,-0.277,-0.936,-0.217,0.736,-0.387,0.556,0.136,-0.272,-0.953,0.84,-0.227,0.492,-0.894,-0.0,-0.447,0.862,-0.245,0.443,-0.243,-0.0,-0.97,0.987,-0.067,-0.148,-0.845,0.169,-0.507,0.119,0.943,0.312,-0.83,0.207,-0.518,rock
11.620764,-0.007,0.806,0.591,-0.14,0.14,0.98,-0.31,-0.912,-0.268,0.73,-0.381,0.567,-0.65,0.26,-0.715,0.833,-0.225,0.506,-0.942,0.202,-0.269,0.859,-0.236,0.455,-0.802,0.267,-0.535,0.989,-0.06,-0.132,-0.973,0.229,0.0,0.136,0.939,0.315,-0.458,-0.719,-0.523,rock
11.620913,0.001,0.84,0.543,-0.05,-0.799,-0.599,-0.31,-0.912,-0.268,0.701,-0.383,0.602,-0.607,0.374,-0.701,0.809,-0.243,0.535,-0.89,0.297,-0.346,0.835,-0.236,0.497,-0.734,0.342,-0.587,0.994,-0.068,-0.083,-0.964,0.263,-0.044,0.187,0.934,0.305,-0.449,-0.799,-0.4,rock
11.621039,0.001,0.853,0.521,0.143,-0.809,-0.571,-0.266,-0.929,-0.256,0.686,-0.389,0.615,-0.576,0.177,-0.798,0.794,-0.259,0.549,-0.82,0.102,-0.564,0.821,-0.239,0.519,-0.749,0.094,-0.656,0.996,-0.073,-0.057,-0.991,0.043,-0.129,0.213,0.931,0.295,-0.499,-0.635,-0.59,rock
11.621164,-0.003,0.842,0.539,-0.372,-0.796,-0.478,-0.242,-0.941,-0.238,0.69,-0.387,0.612,-0.583,0.09,-0.807,0.8,-0.252,0.545,-0.823,0.051,-0.566,0.826,-0.236,0.511,-0.776,0.0,-0.631,0.995,-0.068,-0.071,-0.99,-0.045,-0.135,0.203,0.932,0.301,-0.499,-0.59,-0.635,rock
11.621286,0.004,0.838,0.546,-0.372,-0.796,-0.478,-0.266,-0.921,-0.283,0.697,-0.379,0.608,-0.611,0.163,-0.774,0.803,-0.241,0.544,-0.842,0.089,-0.532,0.833,-0.228,0.504,-0.783,0.13,-0.609,0.995,-0.061,-0.081,-0.996,0.04,-0.08,0.193,0.93,0.312,-0.436,-0.698,-0.567,rock
11.621414,-0.003,0.847,0.532,-0.165,-0.827,-0.537,-0.262,-0.946,-0.192,0.691,-0.386,0.611,-0.658,0.292,-0.694,0.799,-0.248,0.548,-0.871,0.189,-0.454,0.829,-0.232,0.509,-0.806,0.22,-0.55,0.995,-0.065,-0.074,-0.99,0.137,-0.034,0.2,0.931,0.306,-0.332,-0.812,-0.48,rock
11.622326,-0.007,0.853,0.521,-0.036,-0.759,-0.65,-0.232,-0.932,-0.278,0.68,-0.393,0.619,-0.704,0.416,-0.576,0.79,-0.263,0.554,-0.904,0.268,-0.335,0.818,-0.237,0.524,-0.802,0.353,-0.481,0.996,-0.074,-0.055,-0.968,0.242,0.061,0.218,0.93,0.295,-0.244,-0.905,-0.348,rock
11.622458,0.001,0.85,0.527,0.037,-0.707,-0.707,-0.232,-0.932,-0.278,0.679,-0.39,0.622,-0.7,0.434,-0.567,0.789,-0.26,0.556,-0.922,0.273,-0.273,0.817,-0.237,0.526,-0.816,0.374,-0.442,0.996,-0.073,-0.052,-0.964,0.249,0.093,0.22,0.93,0.296,-0.22,-0.918,-0.33,rock
11.622584,0.008,0.837,0.546,0.04,-0.764,-0.644,-0.255,-0.935,-0.247,0.695,-0.377,0.612,-0.656,0.426,-0.623,0.801,-0.242,0.548,-0.877,0.304,-0.371,0.829,-0.229,0.51,-0.773,0.336,-0.538,0.995,-0.064,-0.071,-0.975,0.22,-0.0,0.196,0.931,0.309,-0.348,-0.87,-0.348,rock
11.657431,0.004,0.83,0.558,0.138,-0.864,-0.484,-0.255,-0.935,-0.247,0.709,-0.372,0.599,-0.532,0.414,-0.739,0.811,-0.233,0.538,-0.781,0.375,-0.5,0.837,-0.229,0.497,-0.653,0.327,-0.683,0.995,-0.062,-0.082,-0.948,0.251,-0.195,0.18,0.932,0.314,-0.486,-0.82,-0.304,rock
11.702683,0.008,0.836,0.549,0.061,-0.941,-0.334,-0.24,-0.94,-0.24,0.702,-0.373,0.607,-0.348,0.348,-0.87,0.806,-0.237,0.543,-0.597,0.38,-0.706,0.834,-0.227,0.503,-0.528,0.176,-0.83,0.995,-0.06,-0.073,-0.908,0.147,-0.393,0.193,0.93,0.314,-0.644,-0.694,-0.322,rock
12.131018,0.017,0.846,0.533,-0.126,-0.984,-0.126,-0.24,-0.94,-0.24,0.694,-0.376,0.614,-0.378,0.307,-0.874,0.8,-0.238,0.55,-0.597,0.338,-0.727,0.833,-0.219,0.508,-0.552,0.168,-0.816,0.996,-0.051,-0.075,-0.93,0.116,-0.349,0.2,0.927,0.318,-0.613,-0.707,-0.353,rock
12.131159,0.004,0.843,0.538,-0.05,-0.893,-0.447,-0.244,-0.942,-0.231,0.692,-0.383,0.612,-0.505,0.367,-0.781,0.799,-0.248,0.548,-0.74,0.321,-0.592,0.83,-0.227,0.509,-0.687,0.237,-0.687,0.996,-0.059,-0.072,-0.974,0.136,-0.181,0.204,0.929,0.31,-0.455,-0.815,-0.359,rock
12.131298,-0.007,0.832,0.555,0.0,-0.828,-0.56,-0.244,-0.942,-0.231,0.697,-0.391,0.601,-0.611,0.407,-0.679,0.806,-0.253,0.535,-0.826,0.307,-0.472,0.833,-0.239,0.5,-0.75,0.296,-0.591,0.994,-0.071,-0.082,-0.982,0.175,-0.065,0.19,0.935,0.3,-0.331,-0.875,-0.355,rock
12.131427,-0.015,0.83,0.558,0.0,-0.817,-0.577,-0.202,-0.965,-0.169,0.708,-0.386,0.591,-0.628,0.397,-0.669,0.814,-0.244,0.527,-0.816,0.301,-0.494,0.84,-0.24,0.487,-0.759,0.274,-0.59,0.993,-0.072,-0.094,-0.985,0.161,-0.06,0.171,0.937,0.305,-0.323,-0.882,-0.344,rock
12.131565,-0.007,0.831,0.556,-0.02,-0.873,-0.487,-0.183,-0.954,-0.238,0.707,-0.382,0.595,-0.554,0.393,-0.733,0.813,-0.24,0.53,-0.757,0.314,-0.573,0.837,-0.239,0.491,-0.702,0.252,-0.666,0.994,-0.071,-0.087,-0.978,0.14,-0.157,0.176,0.936,0.305,-0.407,-0.851,-0.333,rock
12.131689,0.016,0.842,0.54,-0.069,-0.93,-0.362,-0.218,-0.952,-0.214,0.7,-0.374,0.608,-0.513,0.364,-0.778,0.803,-0.237,0.547,-0.706,0.31,-0.637,0.834,-0.223,0.505,-0.675,0.203,-0.709,0.996,-0.056,-0.072,-0.97,0.115,-0.214,0.196,0.929,0.315,-0.445,-0.821,-0.359,rock
12.13181,0.017,0.846,0.533,-0.085,-0.923,-0.376,-0.165,-0.97,-0.177,0.696,-0.372,0.614,-0.573,0.334,-0.748,0.8,-0.234,0.552,-0.745,0.265,-0.612,0.834,-0.216,0.508,-0.718,0.191,-0.67,0.996,-0.049,-0.073,-0.985,0.078,-0.156,0.2,0.926,0.321,-0.392,-0.832,-0.392,rock
12.132896,0.017,0.844,0.536,-0.064,-0.854,-0.516,-0.165,-0.97,-0.177,0.695,-0.37,0.617,-0.611,0.366,-0.702,0.797,-0.237,0.555,-0.789,0.268,-0.552,0.831,-0.216,0.512,-0.754,0.231,-0.615,0.997,-0.05,-0.065,-0.989,0.105,-0.105,0.204,0.925,0.321,-0.33,-0.865,-0.377,rock
12.13303,0.023,0.847,0.532,-0.047,-0.852,-0.521,-0.177,-0.968,-0.179,0.696,-0.363,0.62,-0.607,0.355,-0.711,0.796,-0.23,0.559,-0.781,0.26,-0.567,0.831,-0.211,0.515,-0.749,0.21,-0.629,0.997,-0.047,-0.063,-0.989,0.087,-0.116,0.204,0.923,0.326,-0.333,-0.863,-0.379,rock
12.13316,0.036,0.847,0.53,-0.086,-0.885,-0.457,-0.177,-0.968,-0.179,0.697,-0.355,0.623,-0.598,0.347,-0.723,0.797,-0.221,0.562,-0.761,0.273,-0.589,0.835,-0.202,0.512,-0.739,0.209,-0.641,0.997,-0.038,-0.066,-0.987,0.082,-0.137,0.202,0.92,0.335,-0.353,-0.861,-0.367,rock
12.166768,0.032,0.855,0.517,-0.086,-0.885,-0.457,-0.124,-0.981,-0.151,0.683,-0.358,0.637,-0.584,0.363,-0.726,0.785,-0.232,0.574,-0.754,0.283,-0.593,0.822,-0.203,0.531,-0.73,0.208,-0.651,0.998,-0.041,-0.044,-0.986,0.09,-0.141,0.223,0.918,0.329,-0.347,-0.866,-0.36,rock
12.210494,0.028,0.866,0.499,-0.053,-0.906,-0.42,-0.085,-0.977,-0.196,0.668,-0.356,0.653,-0.559,0.356,-0.749,0.769,-0.238,0.593,-0.731,0.3,-0.613,0.808,-0.198,0.555,-0.711,0.203,-0.673,0.999,-0.041,-0.017,-0.979,0.1,-0.176,0.252,0.911,0.327,-0.388,-0.853,-0.349,rock
12.641691,0.057,0.873,0.484,-0.066,-0.903,-0.425,-0.094,-0.97,-0.225,0.663,-0.346,0.664,-0.559,0.356,-0.749,0.761,-0.231,0.607,-0.727,0.291,-0.622,0.807,-0.184,0.561,-0.705,0.205,-0.679,1.0,-0.024,-0.008,-0.979,0.102,-0.178,0.262,0.903,0.339,-0.392,-0.85,-0.353,rock
12.641837,0.065,0.878,0.475,-0.053,-0.896,-0.441,-0.058,-0.986,-0.158,0.657,-0.34,0.673,-0.575,0.371,-0.729,0.755,-0.23,0.614,-0.748,0.302,-0.591,0.804,-0.174,0.568,-0.713,0.229,-0.662,1.0,-0.018,-0.001,-0.982,0.113,-0.151,0.271,0.898,0.346,-0.363,-0.869,-0.337,rock
12.641978,0.072,0.883,0.464,-0.04,-0.883,-0.468,-0.069,-0.983,-0.172,0.65,-0.337,0.681,-0.583,0.384,-0.716,0.746,-0.23,0.625,-0.766,0.287,-0.575,0.796,-0.169,0.582,-0.734,0.227,-0.64,1.0,-0.015,0.017,-0.986,0.105,-0.131,0.288,0.893,0.344,-0.34,-0.871,-0.354,rock
12.642102,0.087,0.878,0.471,-0.073,-0.88,-0.469,-0.066,-0.99,-0.122,0.656,-0.323,0.682,-0.586,0.363,-0.725,0.748,-0.216,0.628,-0.761,0.273,-0.589,0.801,-0.157,0.577,-0.739,0.209,-0.641,1.0,-0.004,0.013,-0.988,0.096,-0.123,0.283,0.89,0.358,-0.34,-0.865,-0.369,rock
12.642223,0.091,0.873,0.48,-0.091,-0.884,-0.457,-0.055,-0.981,-0.184,0.662,-0.318,0.679,-0.597,0.335,-0.729,0.752,-0.209,0.626,-0.761,0.254,-0.597,0.807,-0.152,0.571,-0.743,0.19,-0.641,1.0,0.002,0.003,-0.989,0.072,-0.129,0.274,0.89,0.365,-0.358,-0.85,-0.388,rock
12.642346,0.084,0.872,0.482,-0.11,-0.883,-0.457,-0.055,-0.981,-0.184,0.663,-0.315,0.679,-0.588,0.338,-0.735,0.754,-0.205,0.624,-0.762,0.259,-0.594,0.81,-0.152,0.566,-0.737,0.192,-0.648,1.0,0.005,0.001,-0.989,0.073,-0.131,0.27,0.889,0.369,-0.362,-0.845,-0.393,rock
12.642465,0.092,0.883,0.46,-0.08,-0.892,-0.446,-0.055,-0.981,-0.184,0.652,-0.314,0.69,-0.585,0.345,-0.734,0.742,-0.212,0.636,-0.755,0.268,-0.598,0.799,-0.146,0.584,-0.73,0.198,-0.654,1.0,0.006,0.024,-0.985,0.09,-0.149,0.292,0.884,0.365,-0.371,-0.851,-0.371,rock
12.643583,0.098,0.888,0.45,-0.08,-0.892,-0.446,0.0,-0.978,-0.211,0.644,-0.311,0.699,-0.569,0.341,-0.748,0.734,-0.21,0.645,-0.745,0.271,-0.61,0.793,-0.141,0.592,-0.717,0.196,-0.669,0.999,0.01,0.035,-0.982,0.097,-0.161,0.304,0.879,0.367,-0.386,-0.838,-0.386,rock
12.64372,0.102,0.889,0.446,-0.09,-0.898,-0.431,0.007,-0.992,-0.13,0.642,-0.306,0.703,-0.568,0.361,-0.74,0.731,-0.207,0.651,-0.761,0.29,-0.58,0.795,-0.133,0.592,-0.714,0.227,-0.662,0.999,0.019,0.03,-0.981,0.12,-0.155,0.304,0.875,0.376,-0.39,-0.85,-0.354,rock
12.643843,0.104,0.885,0.455,-0.0,-0.861,-0.509,0.025,-0.977,-0.214,0.647,-0.309,0.697,-0.601,0.401,-0.692,0.736,-0.204,0.645,-0.808,0.301,-0.507,0.799,-0.135,0.586,-0.749,0.274,-0.603,1.0,0.019,0.022,-0.983,0.161,-0.089,0.298,0.877,0.376,-0.32,-0.885,-0.339,rock
12.675675,0.08,0.879,0.47,0.0,-0.81,-0.587,0.045,-0.991,-0.127,0.656,-0.32,0.683,-0.654,0.411,-0.635,0.748,-0.21,0.63,-0.841,0.287,-0.459,0.805,-0.151,0.574,-0.785,0.299,-0.542,1.0,0.004,0.007,-0.986,0.164,-0.018,0.281,0.888,0.364,-0.252,-0.91,-0.329,rock
12.715916,0.067,0.868,0.492,0.0,-0.793,-0.61,0.043,-0.98,-0.194,0.672,-0.321,0.668,-0.651,0.391,-0.651,0.762,-0.204,0.615,-0.828,0.289,-0.481,0.815,-0.158,0.557,-0.766,0.28,-0.579,1.0,-0.002,-0.013,-0.986,0.161,-0.036,0.256,0.895,0.366,-0.291,-0.891,-0.349,rock
12.831516,0.094,0.867,0.489,-0.02,-0.847,-0.532,0.081,-0.989,-0.122,0.677,-0.314,0.665,-0.642,0.357,-0.678,0.766,-0.192,0.614,-0.829,0.258,-0.497,0.821,-0.145,0.552,-0.78,0.236,-0.58,1.0,0.014,-0.016,-0.991,0.122,-0.052,0.255,0.889,0.381,-0.297,-0.872,-0.39,rock
12.834873,0.102,0.864,0.494,-0.092,-0.829,-0.552,0.066,-0.992,-0.111,0.681,-0.306,0.665,-0.721,0.344,-0.601,0.768,-0.184,0.614,-0.875,0.21,-0.437,0.826,-0.138,0.546,-0.83,0.242,-0.502,0.999,0.022,-0.026,-0.992,0.118,0.05,0.245,0.888,0.388,-0.194,-0.901,-0.389,rock
12.838992,0.084,0.866,0.494,-0.052,-0.756,-0.653,0.148,-0.981,-0.129,0.677,-0.309,0.668,-0.722,0.361,-0.591,0.764,-0.193,0.616,-0.873,0.218,-0.436,0.819,-0.148,0.555,-0.83,0.249,-0.498,1.0,0.009,-0.011,-0.993,0.112,0.048,0.254,0.891,0.377,-0.187,-0.901,-0.391,rock
12.880559,0.092,0.871,0.483,-0.105,-0.822,-0.56,0.106,-0.976,-0.192,0.677,-0.307,0.669,-0.679,0.281,-0.679,0.763,-0.193,0.617,-0.825,0.168,-0.539,0.815,-0.148,0.56,-0.805,0.148,-0.575,1.0,0.008,-0.003,-0.999,0.016,-0.048,0.258,0.89,0.376,-0.284,-0.836,-0.468,rock
12.917785,0.083,0.862,0.5,-0.105,-0.822,-0.56,0.097,-0.986,-0.134,0.686,-0.301,0.662,-0.599,0.23,-0.767,0.771,-0.181,0.61,-0.737,0.16,-0.657,0.826,-0.144,0.544,-0.749,0.076,-0.658,1.0,0.013,-0.023,-0.985,-0.045,-0.164,0.236,0.891,0.387,-0.383,-0.782,-0.491,rock
12.964176,0.084,0.867,0.491,-0.24,-0.904,-0.353,0.168,-0.974,-0.152,0.682,-0.309,0.663,-0.554,0.189,-0.811,0.77,-0.188,0.61,-0.686,0.14,-0.714,0.824,-0.147,0.547,-0.721,0.014,-0.693,1.0,0.014,-0.022,-0.974,-0.08,-0.213,0.246,0.891,0.382,-0.421,-0.746,-0.516,rock
13.150264,0.082,0.874,0.478,-0.24,-0.904,-0.353,0.122,-0.974,-0.19,0.672,-0.314,0.67,-0.596,0.165,-0.786,0.761,-0.196,0.618,-0.71,0.105,-0.697,0.818,-0.145,0.557,-0.75,0.013,-0.661,1.0,0.014,-0.012,-0.979,-0.1,-0.176,0.259,0.888,0.379,-0.374,-0.761,-0.529,rock
13.151941,0.094,0.876,0.473,-0.278,-0.846,-0.455,0.141,-0.982,-0.129,0.669,-0.308,0.677,-0.642,0.157,-0.751,0.756,-0.195,0.625,-0.747,0.075,-0.66,0.814,-0.14,0.564,-0.787,0.012,-0.617,1.0,0.017,-0.002,-0.987,-0.108,-0.12,0.268,0.885,0.38,-0.317,-0.781,-0.537,rock
13.152076,0.104,0.873,0.477,-0.321,-0.845,-0.428,0.211,-0.963,-0.169,0.677,-0.294,0.675,-0.635,0.127,-0.762,0.76,-0.179,0.625,-0.724,0.047,-0.688,0.82,-0.129,0.557,-0.777,-0.023,-0.629,1.0,0.028,-0.009,-0.978,-0.148,-0.148,0.254,0.883,0.395,-0.344,-0.744,-0.573,rock
13.152199,0.108,0.867,0.487,-0.343,-0.845,-0.411,0.221,-0.962,-0.16,0.681,-0.291,0.672,-0.609,0.13,-0.783,0.764,-0.172,0.622,-0.7,0.056,-0.712,0.826,-0.126,0.549,-0.754,-0.032,-0.657,0.999,0.033,-0.019,-0.974,-0.15,-0.171,0.246,0.882,0.401,-0.357,-0.746,-0.562,rock
13.174122,0.102,0.873,0.478,-0.279,-0.867,-0.413,0.198,-0.954,-0.226,0.671,-0.303,0.676,-0.605,0.164,-0.779,0.759,-0.187,0.623,-0.709,0.095,-0.699,0.819,-0.136,0.558,-0.756,0.0,-0.654,1.0,0.022,-0.014,-0.98,-0.112,-0.163,0.257,0.886,0.386,-0.36,-0.771,-0.525,rock
13.216617,0.096,0.874,0.475,-0.268,-0.866,-0.423,0.221,-0.958,-0.182,0.659,-0.315,0.683,-0.629,0.196,-0.752,0.75,-0.206,0.629,-0.739,0.106,-0.665,0.807,-0.147,0.572,-0.775,0.041,-0.63,1.0,0.009,0.006,-0.988,-0.082,-0.134,0.277,0.888,0.368,-0.324,-0.795,-0.513,rock
13.660251,0.104,0.88,0.464,-0.215,-0.86,-0.464,0.259,-0.923,-0.283,0.652,-0.31,0.692,-0.64,0.21,-0.739,0.741,-0.203,0.64,-0.757,0.113,-0.644,0.8,-0.138,0.584,-0.784,0.055,-0.618,1.0,0.016,0.022,-0.992,-0.066,-0.11,0.297,0.88,0.37,-0.313,-0.805,-0.503,rock
13.660786,0.114,0.879,0.463,-0.264,-0.816,-0.515,0.259,-0.923,-0.283,0.65,-0.315,0.692,-0.703,0.173,-0.69,0.738,-0.21,0.641,-0.804,0.063,-0.591,0.799,-0.14,0.585,-0.829,0.049,-0.557,1.0,0.013,0.021,-0.996,-0.086,-0.037,0.301,0.881,0.364,-0.239,-0.806,-0.541,rock
13.660935,0.09,0.874,0.478,-0.3,-0.729,-0.615,0.252,-0.927,-0.277,0.65,-0.334,0.682,-0.788,0.129,-0.602,0.745,-0.228,0.627,-0.866,-0.029,-0.499,0.798,-0.161,0.58,-0.891,0.015,-0.453,1.0,-0.006,0.015,-0.988,-0.129,0.086,0.3,0.889,0.345,-0.134,-0.791,-0.597,rock
13.661067,0.081,0.866,0.493,-0.3,-0.729,-0.615,0.301,-0.904,-0.303,0.662,-0.345,0.666,-0.894,0.034,-0.447,0.76,-0.229,0.609,-0.924,-0.171,-0.342,0.807,-0.177,0.563,-0.968,-0.035,-0.247,1.0,-0.017,-0.005,-0.941,-0.192,0.279,0.276,0.9,0.337,0.055,-0.733,-0.678,rock
13.661193,0.062,0.838,0.542,-0.419,-0.293,-0.859,0.357,-0.896,-0.264,0.685,-0.346,0.641,-0.954,-0.04,-0.298,0.783,-0.22,0.581,-0.942,-0.288,-0.173,0.826,-0.186,0.533,-0.996,-0.061,-0.061,0.999,-0.022,-0.043,-0.861,-0.235,0.45,0.235,0.911,0.34,0.229,-0.667,-0.709,rock
13.661322,0.064,0.826,0.56,-0.415,-0.138,-0.899,0.279,-0.902,-0.33,0.708,-0.344,0.616,-0.978,-0.111,-0.178,0.803,-0.207,0.558,-0.931,-0.36,-0.063,0.842,-0.191,0.504,-0.994,-0.068,0.09,0.997,-0.025,-0.073,-0.797,-0.243,0.553,0.197,0.919,0.343,0.352,-0.587,-0.728,rock
13.661443,0.067,0.816,0.574,-0.467,-0.052,-0.883,0.368,-0.882,-0.294,0.726,-0.341,0.597,-0.973,-0.195,-0.122,0.819,-0.196,0.539,-0.899,-0.438,-0.0,0.855,-0.194,0.481,-0.974,-0.146,0.171,0.995,-0.023,-0.101,-0.74,-0.31,0.597,0.168,0.922,0.349,0.406,-0.507,-0.761,rock
13.662837,0.058,0.796,0.603,-0.494,-0.099,-0.864,0.388,-0.866,-0.317,0.74,-0.341,0.581,-0.97,-0.184,-0.157,0.832,-0.19,0.522,-0.904,-0.427,-0.025,0.865,-0.201,0.459,-0.977,-0.163,0.136,0.992,-0.026,-0.124,-0.757,-0.313,0.574,0.142,0.926,0.349,0.364,-0.504,-0.784,rock
13.662992,0.05,0.799,0.599,-0.511,-0.223,-0.83,0.362,-0.885,-0.291,0.743,-0.342,0.575,-0.95,-0.173,-0.259,0.835,-0.189,0.517,-0.907,-0.397,-0.142,0.866,-0.205,0.456,-0.989,-0.15,-0.0,0.991,-0.029,-0.128,-0.829,-0.296,0.474,0.138,0.928,0.345,0.22,-0.534,-0.816,rock
13.663118,0.047,0.798,0.601,-0.535,-0.267,-0.802,0.425,-0.835,-0.35,0.742,-0.35,0.572,-0.922,-0.222,-0.318,0.836,-0.195,0.513,-0.878,-0.439,-0.188,0.865,-0.211,0.456,-0.972,-0.235,-0.034,0.991,-0.035,-0.125,-0.837,-0.354,0.418,0.141,0.93,0.339,0.167,-0.467,-0.868,rock
13.67895,0.044,0.791,0.61,-0.696,-0.174,-0.696,0.395,-0.849,-0.352,0.747,-0.353,0.563,-0.868,-0.334,-0.367,0.841,-0.195,0.504,-0.809,-0.539,-0.236,0.869,-0.215,0.446,-0.933,-0.359,-0.036,0.99,-0.038,-0.137,-0.804,-0.454,0.384,0.13,0.933,0.335,0.104,-0.345,-0.933,rock
13.72187,0.031,0.784,0.621,-0.772,-0.154,-0.617,0.446,-0.824,-0.35,0.753,-0.356,0.553,-0.791,-0.467,-0.395,0.848,-0.194,0.493,-0.729,-0.62,-0.292,0.873,-0.22,0.435,-0.884,-0.461,-0.077,0.988,-0.042,-0.15,-0.762,-0.571,0.305,0.117,0.935,0.335,0.0,-0.217,-0.976,rock
14.171065,0.027,0.771,0.636,-0.877,-0.199,-0.438,0.446,-0.824,-0.35,0.764,-0.354,0.539,-0.692,-0.51,-0.51,0.858,-0.186,0.479,-0.653,-0.653,-0.384,0.881,-0.222,0.418,-0.803,-0.562,-0.201,0.985,-0.042,-0.169,-0.755,-0.636,0.159,0.096,0.937,0.336,-0.109,-0.146,-0.983,rock
14.171206,0.032,0.761,0.648,-0.877,-0.199,-0.438,0.413,-0.83,-0.374,0.774,-0.353,0.526,-0.613,-0.541,-0.577,0.867,-0.181,0.465,-0.558,-0.678,-0.478,0.888,-0.224,0.402,-0.718,-0.638,-0.279,0.982,-0.041,-0.185,-0.707,-0.707,0.039,0.08,0.938,0.336,-0.208,-0.104,-0.972,rock
14.171334,0.024,0.751,0.66,-0.889,-0.323,-0.323,0.413,-0.83,-0.374,0.782,-0.358,0.51,-0.577,-0.541,-0.613,0.876,-0.178,0.449,-0.547,-0.665,-0.508,0.893,-0.231,0.385,-0.709,-0.63,-0.315,0.978,-0.044,-0.203,-0.745,-0.667,0.0,0.06,0.941,0.332,-0.241,-0.103,-0.965,rock
14.171455,0.008,0.741,0.671,-0.897,-0.312,-0.312,0.489,-0.794,-0.361,0.79,-0.361,0.496,-0.609,-0.508,-0.609,0.884,-0.174,0.434,-0.577,-0.613,-0.541,0.9,-0.237,0.367,-0.727,-0.582,-0.364,0.974,-0.048,-0.221,-0.759,-0.651,-0.0,0.041,0.943,0.33,-0.262,-0.164,-0.951,rock
14.171579,0.012,0.72,0.694,-0.814,-0.46,-0.354,0.446,-0.798,-0.404,0.802,-0.356,0.479,-0.629,-0.409,-0.661,0.894,-0.162,0.417,-0.63,-0.497,-0.597,0.909,-0.235,0.344,-0.757,-0.494,-0.428,0.968,-0.044,-0.245,-0.826,-0.562,-0.033,0.012,0.941,0.337,-0.304,-0.274,-0.912,rock
14.171701,0.008,0.72,0.693,-0.814,-0.46,-0.354,0.418,-0.816,-0.4,0.803,-0.358,0.477,-0.649,-0.198,-0.734,0.894,-0.166,0.417,-0.703,-0.306,-0.642,0.908,-0.238,0.344,-0.808,-0.299,-0.508,0.968,-0.047,-0.245,-0.923,-0.375,-0.087,0.014,0.943,0.332,-0.336,-0.476,-0.812,rock
14.171822,0.008,0.74,0.673,-0.314,-0.799,-0.513,0.418,-0.816,-0.4,0.796,-0.365,0.483,-0.666,0.027,-0.746,0.89,-0.174,0.422,-0.774,-0.057,-0.631,0.903,-0.241,0.356,-0.816,-0.082,-0.572,0.971,-0.051,-0.232,-0.979,-0.185,-0.079,0.031,0.945,0.325,-0.351,-0.62,-0.701,rock
14.172955,0.021,0.742,0.67,-0.509,-0.712,-0.483,0.418,-0.816,-0.4,0.79,-0.36,0.497,-0.669,0.025,-0.743,0.884,-0.174,0.434,-0.781,-0.081,-0.619,0.901,-0.234,0.366,-0.82,-0.102,-0.564,0.973,-0.045,-0.225,-0.978,-0.201,-0.05,0.041,0.942,0.333,-0.31,-0.646,-0.698,rock
14.173087,0.057,0.752,0.656,-0.235,-0.784,-0.575,0.438,-0.779,-0.45,0.786,-0.345,0.513,-0.689,0.123,-0.714,0.875,-0.164,0.455,-0.824,0.026,-0.566,0.898,-0.215,0.383,-0.832,0.025,-0.555,0.978,-0.028,-0.206,-0.994,-0.097,-0.048,0.063,0.935,0.35,-0.309,-0.722,-0.619,rock
14.173212,0.081,0.755,0.651,-0.303,-0.759,-0.577,0.438,-0.779,-0.45,0.779,-0.331,0.532,-0.697,0.167,-0.697,0.866,-0.158,0.475,-0.848,0.058,-0.526,0.895,-0.198,0.399,-0.826,0.059,-0.561,0.982,-0.013,-0.188,-0.998,-0.055,-0.028,0.082,0.928,0.363,-0.325,-0.738,-0.591,rock
14.181651,0.075,0.757,0.649,-0.267,-0.802,-0.535,0.504,-0.764,-0.404,0.783,-0.321,0.534,-0.648,0.162,-0.745,0.866,-0.148,0.478,-0.819,0.071,-0.57,0.897,-0.19,0.399,-0.786,0.068,-0.615,0.983,-0.007,-0.186,-0.995,-0.0,-0.1,0.079,0.926,0.37,-0.424,-0.707,-0.566,rock
14.226583,0.079,0.756,0.65,-0.183,-0.87,-0.458,0.476,-0.773,-0.42,0.785,-0.315,0.533,-0.495,0.229,-0.838,0.865,-0.144,0.481,-0.777,0.173,-0.605,0.898,-0.185,0.399,-0.682,0.12,-0.722,0.983,-0.0,-0.185,-0.969,0.078,-0.233,0.08,0.923,0.376,-0.562,-0.642,-0.522,rock
14.265796,0.085,0.758,0.647,-0.183,-0.87,-0.458,0.484,-0.742,-0.463,0.781,-0.318,0.538,-0.362,0.226,-0.904,0.863,-0.148,0.484,-0.653,0.272,-0.707,0.896,-0.184,0.404,-0.541,0.098,-0.836,0.984,-0.001,-0.18,-0.925,0.092,-0.37,0.088,0.923,0.374,-0.71,-0.521,-0.474,rock
14.680251,0.071,0.758,0.648,-0.287,-0.958,0.0,0.484,-0.742,-0.463,0.783,-0.323,0.531,-0.241,0.12,-0.963,0.866,-0.148,0.478,-0.594,0.254,-0.763,0.898,-0.189,0.397,-0.473,0.068,-0.878,0.982,-0.005,-0.191,-0.9,0.12,-0.42,0.079,0.926,0.369,-0.814,-0.349,-0.465,rock
14.680844,0.067,0.746,0.662,0.162,-0.973,0.162,0.489,-0.759,-0.43,0.787,-0.329,0.522,-0.156,0.312,-0.937,0.873,-0.148,0.464,-0.684,0.456,-0.57,0.901,-0.196,0.386,-0.389,0.291,-0.874,0.979,-0.01,-0.204,-0.842,0.337,-0.421,0.066,0.928,0.366,-0.884,-0.241,-0.402,rock
14.680994,0.057,0.741,0.669,0.577,-0.577,-0.577,0.432,-0.764,-0.478,0.794,-0.331,0.511,-0.349,0.465,-0.814,0.878,-0.147,0.456,-0.868,0.496,-0.0,0.905,-0.201,0.374,-0.492,0.615,-0.615,0.977,-0.013,-0.214,-0.786,0.612,-0.087,0.051,0.93,0.365,-0.873,-0.436,-0.218,rock
14.681124,0.067,0.742,0.667,0.688,-0.688,-0.229,0.444,-0.776,-0.448,0.797,-0.324,0.51,-0.248,0.62,-0.744,0.878,-0.141,0.456,-0.768,0.64,0.0,0.907,-0.197,0.372,-0.333,0.667,-0.667,0.976,-0.009,-0.216,-0.696,0.696,-0.174,0.048,0.927,0.371,-0.93,-0.349,-0.116,rock
14.681262,0.077,0.757,0.649,0.772,-0.617,-0.154,0.444,-0.776,-0.448,0.789,-0.316,0.527,0.0,0.707,-0.707,0.869,-0.139,0.475,-0.447,0.894,-0.0,0.902,-0.186,0.39,-0.0,0.753,-0.659,0.981,-0.001,-0.194,-0.596,0.745,-0.298,0.069,0.924,0.377,-0.953,-0.286,0.095,rock
14.681389,0.07,0.771,0.632,0.108,-0.647,0.755,0.444,-0.776,-0.448,0.777,-0.318,0.543,0.359,0.359,-0.862,0.858,-0.15,0.491,0.111,0.889,-0.444,0.891,-0.186,0.413,0.248,0.331,-0.91,0.985,-0.007,-0.17,-0.441,0.515,-0.735,0.094,0.924,0.371,-1.0,0.0,-0.0,rock
14.681509,0.06,0.773,0.632,0.233,-0.466,0.854,0.444,-0.776,-0.448,0.772,-0.328,0.544,0.629,0.189,-0.754,0.857,-0.161,0.49,0.572,0.667,-0.477,0.888,-0.195,0.417,0.549,0.137,-0.824,0.986,-0.015,-0.168,-0.142,0.355,-0.924,0.1,0.928,0.36,-0.964,0.268,0.0,rock
14.682314,0.064,0.762,0.644,0.162,0.162,0.973,0.444,-0.776,-0.448,0.774,-0.335,0.537,0.832,0.0,-0.555,0.862,-0.163,0.481,0.858,0.477,-0.191,0.891,-0.197,0.408,0.844,0.0,-0.537,0.983,-0.012,-0.182,0.241,0.402,-0.884,0.091,0.928,0.36,-0.831,0.554,0.055,rock
14.682451,0.077,0.748,0.66,0.162,0.162,0.973,0.479,-0.765,-0.43,0.787,-0.33,0.522,0.976,-0.217,0.0,0.871,-0.149,0.467,0.796,0.1,0.597,0.902,-0.191,0.387,0.976,0.098,0.195,0.979,-0.003,-0.203,0.814,0.465,-0.349,0.068,0.926,0.371,-0.499,0.855,0.142,rock
14.684711,0.061,0.739,0.671,0.198,0.923,0.33,0.479,-0.765,-0.43,0.794,-0.322,0.516,0.768,-0.0,0.64,0.876,-0.138,0.462,0.341,0.085,0.936,0.906,-0.19,0.378,0.697,0.398,0.597,0.978,-0.003,-0.209,0.636,0.742,0.212,0.054,0.926,0.375,-0.183,0.913,0.365,rock
14.727334,0.068,0.757,0.649,0.304,0.836,0.456,0.445,-0.767,-0.462,0.79,-0.319,0.523,0.912,-0.228,0.342,0.871,-0.141,0.47,0.555,-0.0,0.832,0.9,-0.192,0.391,0.896,0.199,0.398,0.981,-0.008,-0.192,0.808,0.577,-0.115,0.067,0.926,0.372,-0.308,0.923,0.231,rock
14.767033,0.081,0.744,0.664,-0.13,0.52,0.844,0.445,-0.767,-0.462,0.8,-0.306,0.517,0.907,-0.412,-0.082,0.876,-0.124,0.466,0.913,-0.183,0.365,0.909,-0.179,0.376,0.97,-0.243,-0.0,0.978,0.007,-0.207,0.796,0.1,-0.597,0.05,0.921,0.387,-0.555,0.832,-0.0,rock
15.190214,0.069,0.737,0.673,-0.236,0.236,0.943,0.468,-0.767,-0.439,0.803,-0.309,0.51,0.842,-0.337,-0.421,0.88,-0.123,0.458,1.0,-0.0,-0.0,0.913,-0.181,0.365,0.894,-0.268,-0.358,0.975,0.007,-0.221,0.404,0.101,-0.909,0.04,0.922,0.386,-0.702,0.702,-0.117,rock
15.190747,0.049,0.757,0.652,-0.11,0.11,0.988,0.439,-0.766,-0.47,0.789,-0.329,0.519,0.818,-0.182,-0.545,0.873,-0.151,0.463,0.98,0.14,-0.14,0.902,-0.198,0.384,0.843,-0.105,-0.527,0.979,-0.012,-0.203,0.236,0.236,-0.943,0.063,0.929,0.365,-0.798,0.599,-0.067,rock
15.190884,0.058,0.759,0.649,-0.0,0.351,0.936,0.439,-0.766,-0.47,0.788,-0.333,0.518,0.814,-0.465,-0.349,0.873,-0.156,0.463,0.905,-0.302,0.302,0.901,-0.199,0.386,0.911,-0.391,-0.13,0.98,-0.012,-0.199,0.617,0.154,-0.772,0.067,0.929,0.363,-0.62,0.757,-0.207,rock
15.191016,0.062,0.728,0.683,-0.198,0.693,0.693,0.392,-0.789,-0.474,0.801,-0.321,0.505,0.447,-0.894,0.0,0.883,-0.133,0.45,0.169,-0.507,0.845,0.913,-0.191,0.361,0.873,-0.218,0.436,0.974,-0.001,-0.229,0.894,0.447,0.0,0.035,0.926,0.377,-0.424,0.848,-0.318,rock
15.191138,0.067,0.736,0.674,0.272,0.953,-0.136,0.392,-0.789,-0.474,0.805,-0.317,0.502,0.447,-0.894,-0.0,0.883,-0.131,0.451,-0.183,-0.365,0.913,0.912,-0.192,0.363,0.707,-0.0,0.707,0.974,-0.003,-0.225,0.0,0.894,0.447,0.035,0.926,0.377,-0.408,0.816,-0.408,rock
15.19126,0.062,0.736,0.674,-0.535,0.802,0.267,0.425,-0.783,-0.455,0.804,-0.313,0.506,0.192,-0.192,-0.962,0.883,-0.125,0.453,-0.707,0.0,0.707,0.913,-0.187,0.362,0.316,0.0,-0.949,0.975,-0.0,-0.224,-0.64,0.426,-0.64,0.036,0.924,0.38,-0.848,0.318,-0.424,rock
15.19138,0.069,0.738,0.671,-0.436,-0.873,0.218,0.425,-0.783,-0.455,0.802,-0.316,0.506,-0.0,-0.0,-1.0,0.882,-0.13,0.453,-0.802,0.267,-0.535,0.912,-0.188,0.365,-0.164,0.0,-0.986,0.974,-0.0,-0.225,-0.802,0.267,-0.535,0.04,0.924,0.38,-0.829,0.092,-0.552,rock
15.192352,0.065,0.739,0.671,-0.236,-0.943,-0.236,0.425,-0.783,-0.455,0.801,-0.317,0.508,-0.216,0.108,-0.97,0.88,-0.132,0.456,-0.87,0.348,-0.348,0.911,-0.188,0.367,-0.429,0.286,-0.857,0.975,0.0,-0.223,-0.883,0.331,-0.331,0.043,0.924,0.379,-0.87,-0.097,-0.483,rock
15.192477,0.066,0.745,0.664,0.0,-0.8,-0.6,0.425,-0.783,-0.455,0.798,-0.317,0.512,-0.424,0.318,-0.848,0.878,-0.133,0.46,-0.927,0.265,-0.265,0.91,-0.188,0.369,-0.598,0.359,-0.717,0.976,0.002,-0.22,-0.913,0.365,-0.183,0.047,0.924,0.379,-0.808,-0.303,-0.505,rock
15.192597,0.07,0.741,0.668,0.137,-0.549,-0.824,0.425,-0.783,-0.455,0.798,-0.317,0.513,-0.656,0.375,-0.656,0.878,-0.134,0.459,-0.958,0.287,-0.0,0.91,-0.187,0.37,-0.704,0.503,-0.503,0.976,0.001,-0.217,-0.907,0.412,0.082,0.048,0.925,0.378,-0.57,-0.684,-0.456,rock
15.230785,0.065,0.746,0.663,0.218,-0.436,-0.873,0.425,-0.783,-0.455,0.795,-0.319,0.516,-0.755,0.42,-0.504,0.875,-0.139,0.463,-0.967,0.242,0.081,0.907,-0.19,0.376,-0.78,0.52,-0.347,0.978,-0.003,-0.21,-0.873,0.436,0.218,0.054,0.925,0.375,-0.444,-0.778,-0.444,rock
15.274591,0.064,0.746,0.663,0.1,-0.597,-0.796,0.43,-0.766,-0.478,0.796,-0.316,0.516,-0.669,0.446,-0.595,0.876,-0.135,0.464,-0.953,0.293,-0.073,0.907,-0.187,0.378,-0.762,0.457,-0.457,0.978,-0.002,-0.209,-0.911,0.391,0.13,0.052,0.925,0.377,-0.437,-0.786,-0.437,rock
15.702268,0.068,0.753,0.655,0.094,-0.656,-0.749,0.468,-0.762,-0.448,0.79,-0.317,0.524,-0.611,0.407,-0.679,0.87,-0.142,0.471,-0.946,0.291,-0.145,0.903,-0.187,0.387,-0.766,0.418,-0.488,0.98,-0.001,-0.199,-0.935,0.351,0.058,0.066,0.925,0.375,-0.457,-0.762,-0.457,rock
15.702416,0.076,0.758,0.648,0.0,-0.659,-0.753,0.468,-0.762,-0.448,0.785,-0.321,0.531,-0.658,0.366,-0.658,0.866,-0.148,0.478,-0.964,0.222,-0.148,0.898,-0.188,0.398,-0.788,0.394,-0.473,0.982,-0.003,-0.191,-0.94,0.336,0.067,0.076,0.925,0.372,-0.426,-0.681,-0.596,rock
15.702541,0.064,0.762,0.645,-0.0,-0.53,-0.848,0.452,-0.796,-0.402,0.777,-0.327,0.538,-0.656,0.375,-0.656,0.861,-0.159,0.483,-0.965,0.263,-0.0,0.894,-0.192,0.405,-0.781,0.488,-0.39,0.984,-0.008,-0.18,-0.912,0.38,0.152,0.088,0.926,0.366,-0.539,-0.647,-0.539,rock
15.702666,0.068,0.756,0.651,-0.348,0.348,-0.87,0.452,-0.796,-0.402,0.783,-0.326,0.53,-0.868,0.0,-0.496,0.866,-0.153,0.476,-0.97,-0.108,0.216,0.897,-0.193,0.398,-0.937,0.312,-0.156,0.982,-0.01,-0.187,-0.883,0.331,0.331,0.078,0.928,0.365,-0.429,-0.286,-0.857,rock
15.702789,0.063,0.748,0.661,-0.577,0.577,-0.577,0.452,-0.796,-0.402,0.789,-0.321,0.524,-0.707,0.0,-0.707,0.871,-0.147,0.469,-0.949,-0.0,0.316,0.901,-0.193,0.388,-0.728,0.485,-0.485,0.98,-0.007,-0.201,-0.885,0.442,0.147,0.063,0.926,0.372,-0.707,0.0,-0.707,rock
15.702919,0.065,0.754,0.654,0.0,-0.832,-0.555,0.452,-0.796,-0.402,0.788,-0.322,0.525,-0.429,0.286,-0.857,0.87,-0.148,0.47,-0.928,0.371,0.0,0.902,-0.192,0.388,-0.514,0.514,-0.686,0.98,-0.006,-0.2,-0.862,0.492,-0.123,0.065,0.927,0.37,-0.862,-0.123,-0.492,rock
15.703039,0.057,0.754,0.654,0.0,-0.832,-0.555,0.431,-0.781,-0.452,0.785,-0.331,0.523,-0.457,0.457,-0.762,0.869,-0.158,0.469,-0.937,0.312,0.156,0.898,-0.203,0.39,-0.514,0.686,-0.514,0.98,-0.017,-0.196,-0.814,0.581,-0.0,0.069,0.931,0.358,-0.857,-0.286,-0.429,rock
15.705609,0.048,0.758,0.651,0.667,-0.333,-0.667,0.517,-0.721,-0.461,0.784,-0.331,0.526,-0.169,0.507,-0.845,0.868,-0.156,0.471,-0.784,0.588,0.196,0.898,-0.2,0.391,-0.333,0.667,-0.667,0.98,-0.015,-0.196,-0.702,0.702,-0.117,0.07,0.929,0.363,-0.953,-0.136,-0.272,rock
15.705743,0.069,0.756,0.651,0.707,-0.707,-0.0,0.442,-0.773,-0.455,0.787,-0.322,0.526,-0.156,0.312,-0.937,0.87,-0.144,0.472,-0.873,0.436,0.218,0.901,-0.191,0.389,-0.174,0.696,-0.696,0.98,-0.006,-0.197,-0.762,0.635,-0.127,0.067,0.926,0.372,-0.962,-0.0,-0.275,rock
15.705877,0.064,0.756,0.652,0.707,-0.707,-0.0,0.442,-0.773,-0.455,0.786,-0.32,0.528,-0.13,0.391,-0.911,0.868,-0.142,0.475,-0.707,0.707,0.0,0.901,-0.188,0.39,-0.14,0.7,-0.7,0.98,-0.004,-0.197,-0.722,0.619,-0.309,0.067,0.925,0.375,-0.943,-0.236,-0.236,rock
15.740052,0.072,0.765,0.64,0.784,-0.588,0.196,0.446,-0.763,-0.468,0.78,-0.323,0.536,0.0,0.496,-0.868,0.862,-0.152,0.483,-0.514,0.857,0.0,0.895,-0.189,0.404,-0.0,0.64,-0.768,0.984,-0.007,-0.181,-0.619,0.722,-0.309,0.082,0.924,0.373,-0.988,-0.11,-0.11,rock
15.784839,0.068,0.76,0.646,0.218,-0.436,0.873,0.446,-0.763,-0.468,0.782,-0.32,0.534,0.331,0.331,-0.883,0.864,-0.147,0.481,-0.236,0.943,-0.236,0.897,-0.187,0.4,0.286,0.429,-0.857,0.983,-0.005,-0.185,-0.492,0.615,-0.615,0.078,0.925,0.373,-0.98,0.178,-0.089,rock
16.213043,0.069,0.757,0.649,0.298,-0.596,0.745,0.446,-0.763,-0.468,0.784,-0.322,0.531,0.424,0.318,-0.848,0.866,-0.146,0.478,0.0,0.986,-0.164,0.899,-0.188,0.395,0.367,0.367,-0.855,0.981,-0.003,-0.192,-0.398,0.597,-0.697,0.074,0.925,0.372,-0.98,0.178,-0.089,rock
16.21385,0.07,0.762,0.644,0.873,-0.218,0.436,0.446,-0.763,-0.468,0.783,-0.325,0.53,0.408,0.408,-0.816,0.867,-0.149,0.476,-0.192,0.962,0.192,0.898,-0.19,0.396,0.298,0.596,-0.745,0.982,-0.005,-0.191,-0.384,0.768,-0.512,0.076,0.925,0.371,-0.97,0.216,-0.108,rock
16.214085,0.069,0.755,0.652,0.728,0.485,0.485,0.446,-0.763,-0.468,0.786,-0.321,0.529,0.371,0.557,-0.743,0.867,-0.145,0.476,-0.196,0.784,0.588,0.901,-0.188,0.39,0.324,0.811,-0.487,0.98,-0.002,-0.197,-0.381,0.889,-0.254,0.068,0.925,0.375,-0.953,0.272,0.136,rock
16.214294,0.059,0.756,0.652,1.0,0.0,0.0,0.446,-0.763,-0.468,0.787,-0.32,0.527,0.174,0.696,-0.696,0.869,-0.145,0.474,-0.557,0.743,0.371,0.901,-0.191,0.389,0.0,0.894,-0.447,0.98,-0.007,-0.198,-0.482,0.843,-0.241,0.066,0.926,0.372,-0.99,-0.0,0.141,rock
16.214493,0.068,0.754,0.653,0.784,-0.588,0.196,0.384,-0.802,-0.457,0.788,-0.321,0.526,0.123,0.492,-0.862,0.869,-0.143,0.473,-0.514,0.857,0.0,0.901,-0.189,0.39,0.117,0.702,-0.702,0.98,-0.004,-0.2,-0.557,0.743,-0.371,0.065,0.925,0.375,-0.995,-0.1,0.0,rock
16.214694,0.08,0.757,0.649,0.588,-0.784,0.196,0.384,-0.802,-0.457,0.788,-0.314,0.53,0.0,0.447,-0.894,0.869,-0.14,0.475,-0.617,0.772,-0.154,0.902,-0.181,0.392,-0.115,0.577,-0.808,0.981,0.002,-0.195,-0.656,0.656,-0.375,0.071,0.922,0.38,-0.99,-0.099,-0.099,rock
16.214852,0.072,0.762,0.644,0.588,-0.784,0.196,0.416,-0.794,-0.443,0.784,-0.315,0.535,0.092,0.37,-0.925,0.864,-0.142,0.482,-0.324,0.811,-0.487,0.899,-0.183,0.398,-0.0,0.406,-0.914,0.982,-0.0,-0.189,-0.667,0.477,-0.572,0.075,0.923,0.378,-0.983,-0.082,-0.164,rock
16.215104,0.076,0.761,0.644,0.137,-0.824,0.549,0.416,-0.794,-0.443,0.784,-0.313,0.536,0.16,0.239,-0.958,0.863,-0.144,0.485,-0.272,0.68,-0.68,0.898,-0.18,0.401,-0.0,0.287,-0.958,0.982,0.003,-0.187,-0.647,0.404,-0.647,0.079,0.921,0.381,-0.972,-0.075,-0.224,rock
16.215232,0.081,0.761,0.644,0.123,-0.862,0.492,0.436,-0.795,-0.421,0.786,-0.312,0.534,0.087,0.262,-0.961,0.866,-0.139,0.481,-0.298,0.745,-0.596,0.901,-0.177,0.395,-0.095,0.286,-0.953,0.981,0.009,-0.191,-0.681,0.426,-0.596,0.075,0.92,0.385,-0.972,-0.075,-0.224,rock
16.215351,0.077,0.756,0.65,0.196,-0.981,0.0,0.436,-0.795,-0.421,0.785,-0.312,0.535,-0.101,0.404,-0.909,0.866,-0.137,0.481,-0.68,0.68,-0.272,0.901,-0.178,0.396,-0.318,0.424,-0.848,0.982,0.007,-0.19,-0.78,0.52,-0.347,0.075,0.92,0.384,-0.921,-0.276,-0.276,rock
16.244602,0.08,0.769,0.634,0.436,-0.873,-0.218,0.436,-0.795,-0.421,0.779,-0.313,0.543,-0.218,0.436,-0.873,0.859,-0.144,0.491,-0.824,0.549,-0.137,0.896,-0.178,0.407,-0.384,0.512,-0.768,0.984,0.006,-0.178,-0.766,0.575,-0.287,0.088,0.921,0.38,-0.905,-0.302,-0.302,rock
16.286999,0.08,0.771,0.631,0.302,-0.905,-0.302,0.385,-0.795,-0.469,0.775,-0.315,0.547,-0.265,0.265,-0.927,0.856,-0.148,0.495,-0.913,0.365,-0.183,0.894,-0.177,0.412,-0.324,0.487,-0.811,0.985,0.004,-0.172,-0.843,0.482,-0.241,0.095,0.92,0.38,-0.889,-0.111,-0.444,rock
16.724951,0.08,0.767,0.636,-0.0,1.0,-0.0,0.427,-0.792,-0.435,0.778,-0.314,0.545,-0.196,0.0,-0.981,0.858,-0.144,0.492,-0.894,0.0,0.447,0.895,-0.177,0.409,-0.577,0.577,-0.577,0.984,0.006,-0.176,-0.857,0.514,-0.0,0.09,0.92,0.382,-0.824,0.137,-0.549,rock
16.725112,0.088,0.761,0.643,-0.316,0.949,-0.0,0.381,-0.817,-0.433,0.784,-0.306,0.541,-0.447,-0.0,-0.894,0.862,-0.133,0.489,-0.8,-0.0,0.6,0.9,-0.172,0.401,-0.667,0.667,-0.333,0.983,0.012,-0.184,-0.8,0.6,0.0,0.08,0.918,0.389,-0.772,0.154,-0.617,rock
16.725249,0.087,0.763,0.641,0.707,0.707,0.0,0.381,-0.817,-0.433,0.784,-0.303,0.542,-0.196,0.0,-0.981,0.86,-0.132,0.492,-0.832,0.0,0.555,0.899,-0.17,0.403,-0.333,0.667,-0.667,0.984,0.013,-0.18,-0.784,0.588,-0.196,0.085,0.916,0.391,-0.802,0.267,-0.535,rock
16.725374,0.084,0.767,0.637,-0.707,0.707,0.0,0.41,-0.813,-0.414,0.78,-0.31,0.543,-0.0,-0.243,-0.97,0.86,-0.14,0.491,-0.707,-0.0,0.707,0.897,-0.176,0.406,-0.0,0.447,-0.894,0.984,0.009,-0.179,-0.802,0.535,-0.267,0.087,0.919,0.384,-0.768,0.384,-0.512,rock
16.725496,0.076,0.761,0.644,-0.243,0.97,0.0,0.41,-0.813,-0.414,0.78,-0.314,0.541,-0.0,-0.316,-0.949,0.862,-0.141,0.487,-0.535,-0.267,0.802,0.898,-0.179,0.403,0.0,0.707,-0.707,0.983,0.005,-0.182,-0.707,0.707,0.0,0.081,0.921,0.38,-0.762,0.457,-0.457,rock
16.725619,0.075,0.762,0.643,0.0,0.97,0.243,0.41,-0.813,-0.414,0.782,-0.313,0.539,0.0,-0.447,-0.894,0.862,-0.141,0.486,-0.535,-0.267,0.802,0.898,-0.178,0.402,0.707,0.707,-0.0,0.983,0.004,-0.182,-0.316,0.949,-0.0,0.081,0.921,0.381,-0.707,0.566,-0.424,rock
16.725736,0.084,0.761,0.644,-0.535,0.802,0.267,0.41,-0.813,-0.414,0.785,-0.308,0.537,0.0,-0.555,-0.832,0.865,-0.134,0.484,-0.302,-0.302,0.905,0.901,-0.173,0.398,0.707,0.0,-0.707,0.982,0.011,-0.19,-0.667,0.667,-0.333,0.076,0.919,0.387,-0.768,0.512,-0.384,rock
16.728658,0.073,0.762,0.644,-0.0,1.0,0.0,0.435,-0.784,-0.443,0.784,-0.314,0.536,0.236,-0.236,-0.943,0.864,-0.141,0.483,-0.447,-0.0,0.894,0.9,-0.18,0.397,0.577,0.577,-0.577,0.982,0.004,-0.19,-0.535,0.802,-0.267,0.076,0.921,0.381,-0.816,0.408,-0.408,rock
16.728784,0.072,0.762,0.644,0.0,0.894,0.447,0.43,-0.798,-0.422,0.781,-0.316,0.539,0.196,0.0,-0.981,0.863,-0.143,0.484,-0.577,0.577,0.577,0.898,-0.181,0.401,0.302,0.302,-0.905,0.983,0.002,-0.185,-0.577,0.577,-0.577,0.081,0.922,0.379,-0.855,0.367,-0.367,rock
16.728916,0.076,0.764,0.64,0.0,0.894,0.447,0.422,-0.79,-0.445,0.782,-0.313,0.539,0.365,0.183,-0.913,0.861,-0.141,0.489,-0.0,0.894,0.447,0.898,-0.178,0.402,0.485,0.485,-0.728,0.983,0.006,-0.184,-0.514,0.686,-0.514,0.082,0.921,0.382,-0.912,0.342,-0.228,rock
16.753696,0.076,0.76,0.645,0.0,0.894,0.447,0.422,-0.79,-0.445,0.785,-0.312,0.535,0.436,-0.218,-0.873,0.864,-0.138,0.485,-0.0,0.0,1.0,0.901,-0.178,0.396,0.707,0.0,-0.707,0.982,0.008,-0.19,-0.485,0.728,-0.485,0.074,0.92,0.385,-0.768,0.549,-0.329,rock
16.802008,0.084,0.76,0.645,0.707,0.707,0.0,0.422,-0.79,-0.445,0.787,-0.309,0.534,0.243,0.0,-0.97,0.864,-0.134,0.485,-0.667,0.333,0.667,0.901,-0.174,0.397,0.333,0.667,-0.667,0.982,0.01,-0.191,-0.557,0.743,-0.371,0.074,0.919,0.387,-0.889,0.381,-0.254,rock
17.232898,0.075,0.763,0.642,0.707,0.707,0.0,0.4,-0.821,-0.406,0.785,-0.311,0.535,0.0,0.0,-1.0,0.865,-0.136,0.483,-0.816,0.408,0.408,0.9,-0.177,0.398,0.0,0.316,-0.949,0.982,0.007,-0.188,-0.743,0.557,-0.371,0.076,0.92,0.384,-0.912,0.228,-0.342,rock
17.233039,0.073,0.759,0.647,-0.667,-0.333,0.667,0.4,-0.821,-0.406,0.785,-0.314,0.534,0.0,-0.0,-1.0,0.865,-0.139,0.482,-0.816,0.408,-0.408,0.901,-0.182,0.395,-0.0,0.243,-0.97,0.981,0.004,-0.193,-0.811,0.324,-0.487,0.072,0.922,0.381,-0.873,0.218,-0.436,rock
17.233167,0.065,0.759,0.648,-0.667,-0.333,0.667,0.396,-0.781,-0.482,0.785,-0.318,0.532,-0.14,0.14,-0.98,0.866,-0.14,0.48,-0.905,0.302,-0.302,0.901,-0.184,0.392,-0.348,0.348,-0.87,0.981,0.002,-0.194,-0.816,0.408,-0.408,0.072,0.923,0.379,-0.914,0.0,-0.406,rock
17.233287,0.074,0.759,0.646,-0.408,-0.816,-0.408,0.396,-0.781,-0.482,0.783,-0.319,0.534,-0.316,0.0,-0.949,0.864,-0.145,0.483,-1.0,0.0,-0.0,0.899,-0.183,0.399,-0.436,0.218,-0.873,0.982,0.0,-0.186,-0.937,0.312,-0.156,0.08,0.923,0.377,-0.808,0.115,-0.577,rock
17.233413,0.08,0.758,0.647,-0.894,-0.447,0.0,0.434,-0.802,-0.412,0.787,-0.312,0.533,-0.141,-0.0,-0.99,0.865,-0.136,0.483,-1.0,0.0,-0.0,0.901,-0.178,0.395,-0.236,0.236,-0.943,0.982,0.007,-0.191,-0.905,0.302,-0.302,0.072,0.92,0.384,-0.843,0.105,-0.527,rock
17.233536,0.08,0.76,0.645,-0.447,-0.894,-0.0,0.384,-0.792,-0.475,0.785,-0.311,0.535,-0.312,0.156,-0.937,0.864,-0.136,0.486,-0.981,0.196,-0.0,0.901,-0.176,0.395,-0.557,0.371,-0.743,0.982,0.008,-0.188,-0.911,0.391,-0.13,0.077,0.92,0.384,-0.868,0.0,-0.496,rock
17.233662,0.08,0.765,0.639,-0.408,-0.408,-0.816,0.41,-0.791,-0.454,0.783,-0.312,0.537,-0.365,-0.183,-0.913,0.864,-0.139,0.485,-0.97,-0.0,0.243,0.899,-0.177,0.4,-0.302,0.302,-0.905,0.983,0.006,-0.186,-0.811,0.487,-0.324,0.08,0.92,0.382,-0.843,0.241,-0.482,rock
17.23662,0.077,0.753,0.653,-0.707,0.707,0.0,0.41,-0.791,-0.454,0.789,-0.308,0.531,-0.196,-0.0,-0.981,0.868,-0.131,0.48,-0.97,0.0,0.243,0.905,-0.175,0.389,-0.302,0.302,-0.905,0.98,0.012,-0.198,-0.845,0.507,-0.169,0.068,0.919,0.389,-0.824,0.137,-0.549,rock
17.236755,0.077,0.758,0.647,0.302,-0.302,-0.905,0.41,-0.791,-0.454,0.786,-0.312,0.534,-0.487,0.324,-0.811,0.866,-0.136,0.482,-0.937,0.156,0.312,0.902,-0.178,0.393,-0.577,0.577,-0.577,0.981,0.008,-0.193,-0.868,0.496,0.0,0.072,0.92,0.384,-0.845,-0.169,-0.507,rock
17.236894,0.076,0.767,0.637,0.555,0.0,-0.832,0.43,-0.8,-0.418,0.78,-0.315,0.54,-0.408,0.408,-0.816,0.861,-0.143,0.488,-0.811,0.324,0.487,0.898,-0.181,0.402,-0.436,0.873,-0.218,0.983,0.003,-0.182,-0.7,0.7,0.14,0.083,0.921,0.379,-0.8,-0.0,-0.6,rock
17.251255,0.076,0.758,0.648,0.0,0.0,-1.0,0.43,-0.8,-0.418,0.785,-0.313,0.535,-0.408,0.408,-0.816,0.864,-0.138,0.483,-0.87,0.348,0.348,0.901,-0.179,0.394,-0.408,0.816,-0.408,0.982,0.006,-0.191,-0.707,0.707,0.0,0.074,0.921,0.383,-0.857,-0.0,-0.514,rock
17.300538,0.072,0.753,0.654,0.577,-0.577,-0.577,0.438,-0.79,-0.429,0.79,-0.31,0.529,-0.384,0.512,-0.768,0.869,-0.132,0.476,-0.824,0.549,0.137,0.904,-0.177,0.388,-0.424,0.707,-0.566,0.98,0.008,-0.199,-0.755,0.647,-0.108,0.064,0.921,0.385,-0.905,-0.302,-0.302,rock
17.740064,0.08,0.758,0.647,0.557,-0.743,-0.371,0.42,-0.813,-0.403,0.788,-0.309,0.533,-0.329,0.549,-0.768,0.866,-0.133,0.481,-0.814,0.581,-0.0,0.903,-0.174,0.393,-0.426,0.64,-0.64,0.981,0.01,-0.192,-0.777,0.605,-0.173,0.072,0.92,0.386,-0.873,-0.436,-0.218,rock
17.740762,0.08,0.763,0.641,0.557,-0.743,-0.371,0.375,-0.8,-0.468,0.784,-0.31,0.537,-0.28,0.466,-0.839,0.862,-0.133,0.49,-0.808,0.577,-0.115,0.899,-0.175,0.402,-0.398,0.597,-0.697,0.983,0.009,-0.184,-0.808,0.566,-0.162,0.081,0.919,0.385,-0.839,-0.466,-0.28,rock
17.740936,0.085,0.764,0.64,0.312,-0.937,-0.156,0.423,-0.787,-0.449,0.783,-0.309,0.541,-0.28,0.466,-0.839,0.862,-0.132,0.49,-0.793,0.566,-0.226,0.899,-0.173,0.402,-0.371,0.557,-0.743,0.983,0.01,-0.182,-0.796,0.557,-0.239,0.082,0.919,0.386,-0.839,-0.466,-0.28,rock
17.741078,0.08,0.771,0.631,0.312,-0.937,-0.156,0.424,-0.816,-0.393,0.779,-0.31,0.545,-0.28,0.466,-0.839,0.858,-0.138,0.495,-0.744,0.62,-0.248,0.896,-0.174,0.408,-0.422,0.527,-0.738,0.984,0.009,-0.176,-0.83,0.498,-0.249,0.09,0.919,0.383,-0.874,-0.389,-0.291,rock
17.741213,0.081,0.769,0.634,0.485,-0.728,-0.485,0.412,-0.789,-0.457,0.776,-0.313,0.547,-0.349,0.465,-0.814,0.857,-0.141,0.496,-0.832,0.555,-0.0,0.896,-0.173,0.41,-0.492,0.615,-0.615,0.984,0.009,-0.176,-0.829,0.552,-0.092,0.092,0.919,0.384,-0.855,-0.367,-0.367,rock
17.741352,0.081,0.766,0.637,0.236,-0.236,-0.943,0.416,-0.794,-0.443,0.777,-0.312,0.547,-0.53,0.53,-0.662,0.857,-0.144,0.494,-0.889,0.381,0.254,0.895,-0.177,0.41,-0.566,0.707,-0.424,0.984,0.006,-0.177,-0.796,0.597,0.1,0.092,0.92,0.382,-0.811,-0.487,-0.324,rock
17.741481,0.075,0.77,0.633,0.316,0.0,-0.949,0.453,-0.807,-0.38,0.778,-0.312,0.545,-0.514,0.514,-0.686,0.858,-0.143,0.494,-0.857,0.286,0.429,0.896,-0.176,0.408,-0.557,0.743,-0.371,0.984,0.007,-0.179,-0.808,0.577,0.115,0.089,0.919,0.383,-0.784,-0.196,-0.588,rock
17.742272,0.08,0.767,0.637,0.436,0.218,-0.873,0.397,-0.804,-0.443,0.778,-0.311,0.545,-0.64,0.426,-0.64,0.858,-0.141,0.493,-0.885,0.147,0.442,0.895,-0.176,0.409,-0.588,0.784,-0.196,0.984,0.007,-0.178,-0.762,0.635,0.127,0.088,0.92,0.382,-0.8,-0.0,-0.6,rock
17.742408,0.08,0.763,0.641,0.0,0.707,-0.707,0.427,-0.792,-0.435,0.779,-0.311,0.544,-0.688,0.229,-0.688,0.858,-0.141,0.493,-0.845,0.169,0.507,0.898,-0.176,0.404,-0.535,0.802,-0.267,0.983,0.008,-0.181,-0.772,0.617,0.154,0.085,0.92,0.383,-0.784,0.196,-0.588,rock
17.742534,0.08,0.769,0.634,0.333,0.667,-0.667,0.423,-0.799,-0.428,0.777,-0.312,0.547,-0.535,0.267,-0.802,0.857,-0.144,0.495,-0.8,0.0,0.6,0.895,-0.177,0.409,-0.408,0.816,-0.408,0.984,0.006,-0.176,-0.696,0.696,0.174,0.09,0.92,0.381,-0.743,0.371,-0.557,rock
17.762161,0.075,0.765,0.64,-0.0,0.894,-0.447,0.395,-0.812,-0.43,0.778,-0.312,0.544,-0.236,0.236,-0.943,0.859,-0.141,0.493,-0.784,0.196,0.588,0.896,-0.178,0.407,-0.267,0.802,-0.535,0.984,0.005,-0.178,-0.707,0.707,-0.0,0.084,0.921,0.381,-0.845,0.169,-0.507,rock
17.805739,0.079,0.768,0.635,1.0,-0.0,-0.0,0.395,-0.812,-0.43,0.778,-0.315,0.544,0.0,0.196,-0.981,0.859,-0.142,0.492,-0.816,0.408,0.408,0.894,-0.179,0.41,-0.0,0.555,-0.832,0.984,0.003,-0.176,-0.667,0.667,-0.333,0.088,0.921,0.378,-0.889,0.254,-0.381,rock
18.256255,0.075,0.763,0.642,-0.577,0.577,0.577,0.395,-0.812,-0.43,0.78,-0.313,0.542,0.196,0.0,-0.981,0.861,-0.139,0.489,-0.816,0.408,0.408,0.898,-0.179,0.403,0.0,0.555,-0.832,0.983,0.005,-0.184,-0.743,0.557,-0.371,0.082,0.921,0.381,-0.889,0.254,-0.381,rock
18.256407,0.079,0.765,0.639,0.0,-0.0,0.0,0.395,-0.812,-0.43,0.783,-0.309,0.54,0.0,0.164,-0.986,0.863,-0.136,0.487,-0.832,0.555,0.0,0.9,-0.174,0.399,-0.0,0.447,-0.894,0.983,0.009,-0.185,-0.745,0.596,-0.298,0.078,0.92,0.385,-0.93,0.116,-0.349,rock
18.256552,0.078,0.762,0.642,0.0,-0.949,0.316,0.395,-0.812,-0.43,0.782,-0.31,0.541,0.0,0.124,-0.992,0.862,-0.139,0.488,-0.802,0.535,-0.267,0.899,-0.177,0.401,-0.156,0.312,-0.937,0.984,0.006,-0.181,-0.728,0.485,-0.485,0.081,0.92,0.383,-0.909,0.101,-0.404,rock
18.256678,0.075,0.766,0.638,-0.0,-0.894,0.447,0.448,-0.778,-0.441,0.778,-0.314,0.544,0.192,0.192,-0.962,0.858,-0.145,0.492,-0.174,0.696,-0.696,0.896,-0.179,0.406,0.0,0.217,-0.976,0.984,0.003,-0.177,-0.597,0.398,-0.697,0.087,0.921,0.379,-0.946,0.079,-0.315,rock
18.256806,0.075,0.777,0.625,-0.196,-0.784,0.588,0.419,-0.801,-0.428,0.772,-0.325,0.546,0.116,-0.349,-0.93,0.855,-0.156,0.495,-0.408,-0.408,-0.816,0.892,-0.182,0.413,-0.192,-0.192,-0.962,0.985,-0.0,-0.172,-0.781,0.0,-0.625,0.099,0.923,0.372,-0.802,0.267,-0.535,rock
18.256937,0.077,0.763,0.641,-0.196,-0.784,0.588,0.356,-0.825,-0.438,0.779,-0.32,0.539,-0.0,-0.832,-0.555,0.86,-0.146,0.488,-0.688,-0.229,0.688,0.897,-0.181,0.402,-0.577,0.577,-0.577,0.983,0.001,-0.183,-0.688,0.688,0.229,0.082,0.922,0.378,-0.707,0.424,-0.566,rock
18.257063,0.08,0.76,0.645,0.267,0.802,-0.535,0.45,-0.771,-0.45,0.783,-0.312,0.538,-0.447,0.0,-0.894,0.862,-0.136,0.488,-0.784,0.196,0.588,0.9,-0.177,0.397,-0.302,0.905,-0.302,0.982,0.006,-0.186,-0.696,0.696,0.174,0.076,0.92,0.385,-0.913,0.183,-0.365,rock
18.258107,0.088,0.765,0.638,0.0,0.0,-1.0,0.45,-0.771,-0.45,0.783,-0.307,0.541,-0.485,0.485,-0.728,0.86,-0.135,0.492,-0.811,0.324,0.487,0.899,-0.171,0.403,-0.485,0.728,-0.485,0.983,0.012,-0.184,-0.7,0.7,0.14,0.082,0.918,0.387,-0.857,0.0,-0.514,rock
18.258237,0.071,0.764,0.641,-0.0,0.707,-0.707,0.481,-0.758,-0.44,0.781,-0.315,0.539,-0.436,0.218,-0.873,0.862,-0.143,0.486,-0.873,0.218,0.436,0.898,-0.182,0.402,-0.577,0.577,-0.577,0.983,-0.0,-0.184,-0.781,0.625,-0.0,0.078,0.922,0.378,-0.885,0.147,-0.442,rock
18.258361,0.068,0.769,0.636,0.0,-1.0,0.0,0.407,-0.785,-0.467,0.778,-0.319,0.541,-0.272,0.136,-0.953,0.86,-0.147,0.488,-0.873,0.436,-0.218,0.895,-0.183,0.406,-0.324,0.487,-0.811,0.984,-0.0,-0.18,-0.768,0.512,-0.384,0.085,0.922,0.378,-0.936,-0.0,-0.351,rock
18.267088,0.076,0.769,0.635,0.0,-1.0,-0.0,0.456,-0.798,-0.394,0.774,-0.319,0.547,-0.14,0.14,-0.98,0.857,-0.149,0.494,-0.943,0.236,-0.236,0.893,-0.184,0.412,-0.183,0.365,-0.913,0.985,-0.002,-0.171,-0.816,0.408,-0.408,0.093,0.923,0.374,-0.889,0.111,-0.444,rock
18.313877,0.077,0.767,0.637,0.0,-0.707,0.707,0.425,-0.797,-0.429,0.777,-0.315,0.546,0.11,0.11,-0.988,0.858,-0.144,0.493,-0.577,0.577,-0.577,0.895,-0.178,0.408,-0.0,0.275,-0.962,0.984,0.004,-0.177,-0.684,0.456,-0.57,0.089,0.92,0.381,-0.953,0.095,-0.286,rock
18.351319,0.082,0.769,0.634,0.707,-0.707,0.0,0.425,-0.797,-0.429,0.778,-0.314,0.544,-0.156,0.312,-0.937,0.858,-0.145,0.493,-0.894,0.447,0.0,0.897,-0.175,0.406,-0.196,0.588,-0.784,0.984,0.007,-0.179,-0.745,0.596,-0.298,0.089,0.919,0.384,-0.911,0.13,-0.391,rock
18.784365,0.073,0.769,0.635,0.577,0.577,-0.577,0.425,-0.797,-0.429,0.776,-0.315,0.547,-0.183,0.365,-0.913,0.856,-0.148,0.496,-0.816,0.408,0.408,0.894,-0.18,0.411,-0.229,0.688,-0.688,0.985,0.001,-0.173,-0.772,0.617,-0.154,0.092,0.921,0.378,-0.911,0.13,-0.391,rock
18.786389,0.085,0.771,0.631,0.577,0.577,-0.577,0.449,-0.79,-0.418,0.776,-0.313,0.548,0.0,0.371,-0.928,0.856,-0.142,0.497,-0.577,0.577,0.577,0.895,-0.174,0.411,0.229,0.688,-0.688,0.985,0.009,-0.174,-0.487,0.811,-0.324,0.092,0.919,0.384,-0.953,0.272,-0.136,rock
18.786522,0.085,0.766,0.637,0.707,0.707,-0.0,0.459,-0.775,-0.435,0.778,-0.312,0.545,-0.0,0.555,-0.832,0.859,-0.14,0.493,-0.557,0.371,0.743,0.897,-0.175,0.406,0.0,0.97,-0.243,0.984,0.007,-0.18,-0.447,0.894,-0.0,0.087,0.92,0.383,-0.986,0.164,-0.0,rock
18.786654,0.075,0.77,0.633,0.707,0.707,-0.0,0.467,-0.782,-0.413,0.777,-0.316,0.545,0.229,0.688,-0.688,0.858,-0.145,0.492,-0.426,0.64,0.64,0.895,-0.18,0.409,0.218,0.873,-0.436,0.984,0.004,-0.176,-0.442,0.885,-0.147,0.089,0.921,0.38,-0.949,0.316,-0.0,rock
18.786779,0.075,0.77,0.633,0.905,0.302,0.302,0.467,-0.782,-0.413,0.777,-0.316,0.545,0.196,0.588,-0.784,0.859,-0.144,0.492,-0.426,0.64,0.64,0.894,-0.18,0.41,0.183,0.913,-0.365,0.984,0.002,-0.175,-0.442,0.885,-0.147,0.09,0.921,0.38,-0.986,0.164,-0.0,rock
18.786912,0.072,0.772,0.632,0.707,-0.0,0.707,0.467,-0.782,-0.413,0.778,-0.316,0.543,0.0,0.316,-0.949,0.859,-0.146,0.491,-0.688,0.688,0.229,0.894,-0.183,0.409,0.0,0.707,-0.707,0.984,0.0,-0.178,-0.566,0.707,-0.424,0.087,0.922,0.378,-0.985,0.123,-0.123,rock
18.787036,0.075,0.77,0.633,0.577,-0.577,0.577,0.392,-0.784,-0.482,0.775,-0.318,0.546,0.0,0.394,-0.919,0.857,-0.146,0.493,-0.6,0.8,0.0,0.893,-0.18,0.413,0.0,0.625,-0.781,0.985,0.002,-0.173,-0.598,0.717,-0.359,0.093,0.921,0.378,-0.988,0.11,-0.11,rock
18.788386,0.078,0.773,0.63,-0.0,-0.447,0.894,0.392,-0.784,-0.482,0.776,-0.316,0.546,0.14,0.14,-0.98,0.857,-0.146,0.494,-0.667,0.667,-0.333,0.893,-0.18,0.412,0.0,0.371,-0.928,0.985,0.003,-0.172,-0.662,0.53,-0.53,0.09,0.921,0.379,-0.928,0.206,-0.309,rock
18.788516,0.07,0.767,0.638,-0.0,-0.447,0.894,0.447,-0.792,-0.415,0.779,-0.312,0.544,0.243,0.0,-0.97,0.859,-0.14,0.493,0.169,0.507,-0.845,0.895,-0.18,0.409,0.196,-0.0,-0.981,0.985,0.001,-0.174,-0.477,0.191,-0.858,0.084,0.921,0.381,-0.953,0.136,-0.272,rock
18.788643,0.092,0.771,0.63,-0.154,-0.772,0.617,0.427,-0.792,-0.435,0.778,-0.31,0.546,0.274,0.069,-0.959,0.857,-0.138,0.497,0.105,0.527,-0.843,0.896,-0.171,0.409,0.152,0.0,-0.988,0.984,0.013,-0.177,-0.523,0.224,-0.822,0.091,0.917,0.389,-0.972,0.057,-0.229,rock
18.816274,0.083,0.771,0.631,-0.894,0.0,0.447,0.399,-0.815,-0.42,0.772,-0.318,0.55,0.11,-0.11,-0.988,0.854,-0.149,0.498,-0.535,0.267,-0.802,0.893,-0.175,0.414,0.0,-0.0,-1.0,0.985,0.007,-0.171,-0.68,0.272,-0.68,0.099,0.919,0.381,-0.88,0.176,-0.44,rock
18.85339,0.081,0.773,0.63,-0.408,0.816,-0.408,0.399,-0.815,-0.42,0.774,-0.313,0.55,-0.365,-0.183,-0.913,0.854,-0.144,0.5,-0.943,-0.236,0.236,0.894,-0.172,0.413,-0.408,0.408,-0.816,0.985,0.012,-0.173,-0.873,0.436,-0.218,0.096,0.917,0.386,-0.802,0.267,-0.535,rock
19.27227,0.092,0.769,0.632,-0.333,0.667,-0.667,0.399,-0.815,-0.42,0.778,-0.302,0.551,-0.243,-0.0,-0.97,0.856,-0.133,0.499,-0.832,-0.0,0.555,0.896,-0.166,0.411,-0.408,0.408,-0.816,0.985,0.017,-0.174,-0.784,0.588,-0.196,0.092,0.914,0.395,-0.802,0.267,-0.535,rock
19.272408,0.088,0.769,0.633,0.0,-0.0,1.0,0.426,-0.811,-0.402,0.781,-0.303,0.546,-0.0,0.0,-1.0,0.858,-0.133,0.496,-0.949,0.316,0.0,0.898,-0.166,0.408,-0.302,0.302,-0.905,0.984,0.017,-0.177,-0.811,0.487,-0.324,0.088,0.915,0.393,-0.843,0.241,-0.482,rock
19.272537,0.08,0.76,0.645,-0.577,-0.577,-0.577,0.426,-0.811,-0.402,0.784,-0.309,0.539,-0.164,0.0,-0.986,0.862,-0.134,0.489,-0.905,0.302,0.302,0.9,-0.174,0.401,-0.302,0.302,-0.905,0.983,0.011,-0.184,-0.845,0.507,-0.169,0.081,0.918,0.389,-0.862,0.123,-0.492,rock
19.272664,0.083,0.762,0.642,-1.0,-0.0,-0.0,0.429,-0.803,-0.414,0.785,-0.303,0.54,-0.141,0.0,-0.99,0.861,-0.129,0.491,-0.943,0.236,-0.236,0.9,-0.169,0.401,-0.365,0.183,-0.913,0.983,0.013,-0.183,-0.857,0.429,-0.286,0.08,0.916,0.393,-0.848,0.0,-0.53,rock
19.272793,0.082,0.769,0.633,-0.192,-0.962,0.192,0.429,-0.803,-0.414,0.782,-0.307,0.543,-0.11,0.11,-0.988,0.859,-0.137,0.493,-0.743,0.371,-0.557,0.897,-0.173,0.407,-0.272,0.136,-0.953,0.984,0.01,-0.178,-0.848,0.318,-0.424,0.085,0.918,0.387,-0.891,-0.089,-0.445,rock
19.272925,0.073,0.767,0.638,-0.485,-0.728,0.485,0.391,-0.799,-0.457,0.783,-0.31,0.54,-0.0,-0.0,-1.0,0.863,-0.138,0.487,-0.442,0.147,-0.885,0.898,-0.18,0.403,-0.195,-0.098,-0.976,0.984,0.002,-0.181,-0.745,0.083,-0.662,0.078,0.921,0.382,-0.893,-0.064,-0.446,rock
19.273049,0.083,0.762,0.642,-0.236,-0.754,0.613,0.431,-0.799,-0.42,0.785,-0.302,0.541,0.232,0.0,-0.973,0.861,-0.13,0.491,0.125,0.314,-0.941,0.9,-0.17,0.4,0.099,-0.099,-0.99,0.983,0.012,-0.184,-0.521,0.047,-0.852,0.079,0.917,0.392,-0.959,-0.04,-0.28,rock
19.274154,0.103,0.764,0.637,-0.236,-0.754,0.613,0.422,-0.771,-0.478,0.784,-0.302,0.543,0.186,-0.093,-0.978,0.859,-0.127,0.495,0.066,0.132,-0.989,0.901,-0.159,0.403,0.0,-0.217,-0.976,0.983,0.026,-0.18,-0.564,-0.102,-0.82,0.091,0.912,0.4,-0.91,0.0,-0.414,rock
19.274291,0.126,0.749,0.651,-0.905,-0.302,-0.302,0.422,-0.771,-0.478,0.789,-0.29,0.542,-0.212,-0.212,-0.954,0.861,-0.111,0.496,-0.784,-0.196,-0.588,0.91,-0.142,0.39,-0.507,-0.169,-0.845,0.979,0.048,-0.2,-0.962,0.0,-0.275,0.075,0.905,0.42,-0.749,0.094,-0.656,rock
19.274425,0.112,0.745,0.658,-0.074,0.446,-0.892,0.406,-0.805,-0.432,0.795,-0.28,0.538,-0.976,0.195,0.098,0.865,-0.102,0.491,-0.844,-0.13,0.52,0.913,-0.142,0.382,-0.786,0.437,0.437,0.978,0.046,-0.205,-0.596,0.298,0.745,0.064,0.905,0.421,0.53,-0.53,-0.662,rock
