time,s1_X,s1_Y,s1_Z,s1_gyro_x,s1_gyro_y,s1_gyro_z,s1_mag_x,s1_mag_y,s1_mag_z,s2_X,s2_Y,s2_Z,s2_gyro_x,s2_gyro_y,s2_gyro_z,s3_X,s3_Y,s3_Z,s3_gyro_x,s3_gyro_y,s3_gyro_z,s4_X,s4_Y,s4_Z,s4_gyro_x,s4_gyro_y,s4_gyro_z,s5_X,s5_Y,s5_Z,s5_gyro_x,s5_gyro_y,s5_gyro_z,s6_X,s6_Y,s6_Z,s6_gyro_x,s6_gyro_y,s6_gyro_z,label
0.034428,-0.178,0.744,0.644,-0.189,0.629,0.754,0.804,-0.504,-0.315,0.745,-0.584,0.323,0.84,-0.538,0.067,0.966,-0.219,0.136,0.993,-0.11,0.037,0.922,0.048,0.384,0.836,0.155,0.526,0.925,0.078,0.373,0.704,0.235,0.67,0.07,0.908,0.412,-0.315,0.883,0.347,scissors
0.079255,-0.19,0.748,0.636,-0.147,0.662,0.735,0.804,-0.504,-0.315,0.752,-0.578,0.315,0.841,-0.535,0.076,0.97,-0.208,0.127,0.987,-0.158,0.039,0.914,0.068,0.399,0.84,0.14,0.525,0.917,0.098,0.387,0.708,0.223,0.67,0.055,0.907,0.417,-0.285,0.89,0.356,scissors
0.124175,-0.182,0.746,0.64,0.179,0.718,0.673,0.783,-0.527,-0.331,0.759,-0.572,0.312,0.837,-0.523,0.157,0.972,-0.201,0.124,0.975,-0.054,0.217,0.909,0.07,0.411,0.831,0.046,0.554,0.915,0.095,0.393,0.648,0.149,0.747,0.046,0.906,0.421,-0.286,0.857,0.429,scissors
0.163481,-0.166,0.74,0.652,0.0,0.678,0.735,0.783,-0.527,-0.331,0.757,-0.572,0.316,0.862,-0.492,0.123,0.971,-0.202,0.127,0.966,0.0,0.258,0.912,0.055,0.406,0.823,0.051,0.566,0.915,0.085,0.394,0.584,0.159,0.796,0.053,0.905,0.423,-0.318,0.848,0.424,scissors
0.207957,-0.178,0.756,0.63,-0.061,0.791,0.609,0.789,-0.545,-0.282,0.754,-0.575,0.319,0.807,-0.587,0.073,0.97,-0.206,0.13,0.95,-0.173,0.259,0.912,0.062,0.405,0.892,0.074,0.446,0.918,0.085,0.388,0.61,0.271,0.745,0.053,0.906,0.419,-0.319,0.893,0.319,scissors
0.246802,-0.179,0.743,0.645,-0.076,0.841,0.535,0.776,-0.55,-0.309,0.749,-0.582,0.317,0.745,-0.662,0.083,0.968,-0.216,0.132,0.913,-0.183,0.365,0.918,0.05,0.392,0.908,0.0,0.419,0.924,0.074,0.374,0.653,0.218,0.725,0.064,0.91,0.41,-0.276,0.897,0.345,scissors
0.286539,-0.18,0.75,0.637,-0.076,0.841,0.535,0.796,-0.534,-0.285,0.753,-0.574,0.321,0.759,-0.651,-0.0,0.97,-0.202,0.137,0.953,-0.136,0.272,0.912,0.061,0.406,0.943,0.105,0.314,0.916,0.088,0.391,0.52,0.347,0.78,0.058,0.904,0.423,-0.473,0.867,0.158,scissors
0.329712,-0.16,0.754,0.637,-0.226,0.793,0.566,0.796,-0.534,-0.285,0.751,-0.572,0.33,0.745,-0.596,-0.298,0.968,-0.204,0.146,0.962,-0.192,0.192,0.917,0.033,0.397,0.857,0.286,0.429,0.923,0.06,0.38,0.207,0.518,0.83,0.069,0.901,0.427,-0.612,0.786,0.087,scissors
0.372662,-0.161,0.753,0.637,-0.212,0.636,0.742,0.796,-0.534,-0.285,0.753,-0.569,0.331,0.768,-0.512,-0.384,0.968,-0.203,0.149,0.973,-0.162,-0.162,0.914,0.039,0.403,0.855,0.367,0.367,0.919,0.069,0.387,0.267,0.535,0.802,0.068,0.9,0.43,-0.662,0.745,0.083,scissors
0.410439,-0.161,0.753,0.637,-0.298,0.596,0.745,0.796,-0.534,-0.285,0.751,-0.571,0.331,0.651,-0.391,-0.651,0.967,-0.207,0.147,0.943,-0.236,-0.236,0.916,0.037,0.398,0.707,0.566,0.424,0.921,0.066,0.383,0.185,0.647,0.74,0.071,0.902,0.426,-0.749,0.656,-0.094,scissors
0.453033,-0.162,0.752,0.638,-0.53,0.53,0.662,0.793,-0.517,-0.322,0.749,-0.575,0.329,0.577,-0.577,-0.577,0.966,-0.214,0.143,0.816,-0.408,-0.408,0.919,0.033,0.394,0.744,0.62,0.248,0.924,0.06,0.377,0.174,0.696,0.696,0.074,0.905,0.419,-0.655,0.737,-0.164,scissors
0.491024,-0.17,0.75,0.64,-0.477,0.572,0.667,0.793,-0.517,-0.322,0.753,-0.573,0.323,0.572,-0.667,-0.477,0.968,-0.211,0.137,0.802,-0.535,-0.267,0.917,0.04,0.397,0.784,0.588,0.196,0.92,0.068,0.385,0.352,0.704,0.616,0.065,0.904,0.422,-0.531,0.834,-0.152,scissors
0.536393,-0.159,0.744,0.649,-0.451,0.631,0.631,0.785,-0.546,-0.293,0.761,-0.563,0.322,0.468,-0.749,-0.468,0.972,-0.193,0.136,0.745,-0.596,-0.298,0.906,0.054,0.42,0.87,0.483,0.097,0.913,0.075,0.402,0.426,0.681,0.596,0.052,0.899,0.434,-0.523,0.822,-0.224,scissors
0.574907,-0.154,0.735,0.661,-0.451,0.631,0.631,0.793,-0.539,-0.284,0.766,-0.557,0.32,0.309,-0.619,-0.722,0.973,-0.184,0.136,0.426,-0.64,-0.64,0.905,0.05,0.422,0.707,0.707,0.0,0.909,0.076,0.411,0.191,0.858,0.477,0.047,0.897,0.44,-0.667,0.667,-0.333,scissors
0.616281,-0.154,0.75,0.643,-0.824,0.137,0.549,0.757,-0.558,-0.339,0.76,-0.562,0.327,0.199,-0.398,-0.896,0.971,-0.192,0.143,0.0,-0.447,-0.894,0.911,0.036,0.41,0.688,0.688,0.229,0.915,0.064,0.399,0.0,0.874,0.486,0.059,0.898,0.437,-0.755,0.504,-0.42,scissors
0.660507,-0.159,0.757,0.633,-0.905,-0.302,0.302,0.757,-0.558,-0.339,0.749,-0.573,0.334,0.12,-0.241,-0.963,0.965,-0.212,0.153,-0.535,0.267,-0.802,0.919,0.028,0.394,0.365,0.913,0.183,0.922,0.056,0.382,-0.207,0.83,0.518,0.077,0.902,0.425,-0.874,0.291,-0.389,scissors
0.69972,-0.16,0.768,0.62,0.0,0.781,0.625,0.754,-0.565,-0.335,0.738,-0.585,0.337,0.371,-0.557,-0.743,0.961,-0.228,0.155,0.707,-0.707,0.0,0.922,0.031,0.385,0.857,0.286,0.429,0.929,0.053,0.366,0.248,0.62,0.744,0.091,0.906,0.413,-0.688,0.688,-0.229,scissors
0.743819,-0.164,0.759,0.63,-0.634,0.724,0.272,0.754,-0.565,-0.335,0.739,-0.585,0.332,0.349,-0.814,-0.465,0.962,-0.227,0.152,0.555,-0.832,0.0,0.926,0.023,0.377,0.936,0.351,-0.0,0.929,0.05,0.367,0.57,0.684,0.456,0.087,0.907,0.412,-0.358,0.894,-0.268,scissors
0.782996,-0.165,0.756,0.633,-0.348,0.87,0.348,0.754,-0.565,-0.335,0.753,-0.572,0.325,0.432,-0.864,-0.259,0.967,-0.208,0.143,0.656,-0.749,-0.094,0.917,0.033,0.397,0.925,0.37,-0.092,0.922,0.063,0.383,0.572,0.667,0.477,0.066,0.904,0.423,-0.287,0.933,-0.215,scissors
0.827868,-0.153,0.74,0.655,-0.646,0.574,0.503,0.791,-0.527,-0.31,0.769,-0.554,0.32,0.394,-0.788,-0.473,0.974,-0.181,0.133,0.619,-0.722,-0.309,0.901,0.06,0.431,0.789,0.614,-0.0,0.906,0.086,0.415,0.394,0.788,0.473,0.041,0.896,0.442,-0.458,0.85,-0.261,scissors
0.867173,-0.147,0.739,0.658,-0.743,0.371,0.557,0.822,-0.486,-0.297,0.77,-0.55,0.322,0.228,-0.608,-0.76,0.974,-0.18,0.139,0.29,-0.677,-0.677,0.904,0.043,0.426,0.445,0.891,-0.089,0.904,0.075,0.421,0.156,0.937,0.312,0.044,0.895,0.445,-0.575,0.639,-0.511,scissors
0.912361,-0.151,0.751,0.643,0.243,-0.0,0.97,0.769,-0.558,-0.314,0.761,-0.557,0.333,0.391,-0.13,-0.911,0.97,-0.192,0.148,0.0,-0.243,-0.97,0.91,0.032,0.414,0.183,0.913,0.365,0.915,0.058,0.399,-0.29,0.677,0.677,0.065,0.896,0.44,-0.839,0.466,-0.28,scissors
0.9596,-0.155,0.763,0.627,-0.514,-0.0,0.857,0.817,-0.508,-0.272,0.752,-0.567,0.337,0.535,-0.267,-0.802,0.967,-0.203,0.154,0.555,0.0,-0.832,0.914,0.029,0.404,0.348,0.87,0.348,0.92,0.058,0.389,-0.083,0.662,0.745,0.075,0.9,0.429,-0.818,0.545,-0.182,scissors
0.995892,-0.156,0.754,0.638,-0.566,0.424,0.707,0.817,-0.508,-0.272,0.752,-0.57,0.331,0.651,-0.391,-0.651,0.967,-0.205,0.149,0.832,-0.0,-0.555,0.916,0.033,0.399,0.514,0.686,0.514,0.918,0.061,0.391,0.0,0.614,0.789,0.071,0.901,0.428,-0.753,0.659,-0.0,scissors
1.036491,-0.164,0.747,0.644,0.267,0.802,0.535,0.77,-0.539,-0.34,0.76,-0.564,0.321,0.64,-0.426,-0.64,0.971,-0.194,0.139,0.894,-0.0,0.447,0.911,0.041,0.411,0.905,0.302,0.302,0.913,0.068,0.401,-0.0,0.496,0.868,0.057,0.901,0.431,-0.768,0.64,0.0,scissors
1.078441,-0.157,0.747,0.646,0.183,0.913,0.365,0.788,-0.532,-0.31,0.76,-0.563,0.324,0.802,-0.267,-0.535,0.971,-0.194,0.14,0.447,0.0,0.894,0.911,0.04,0.411,0.802,-0.267,0.535,0.913,0.068,0.402,-0.136,0.272,0.953,0.059,0.9,0.432,-0.772,0.617,0.154,scissors
1.123713,-0.152,0.751,0.643,0.485,0.485,0.728,0.753,-0.582,-0.308,0.758,-0.562,0.33,0.667,0.333,-0.667,0.969,-0.197,0.147,-0.0,0.832,0.555,0.912,0.033,0.409,0.447,-0.0,0.894,0.915,0.059,0.398,-0.391,0.13,0.911,0.065,0.899,0.433,-0.953,0.272,0.136,scissors
1.162793,-0.149,0.755,0.639,0.64,0.426,0.64,0.81,-0.495,-0.315,0.754,-0.565,0.335,0.743,0.371,-0.557,0.968,-0.201,0.153,0.236,0.943,0.236,0.915,0.025,0.403,0.192,0.192,0.962,0.919,0.049,0.391,-0.212,0.212,0.954,0.072,0.899,0.433,-0.912,0.342,0.228,scissors
1.207,-0.148,0.766,0.626,0.64,0.426,0.64,0.796,-0.51,-0.326,0.754,-0.562,0.339,0.381,-0.254,-0.889,0.968,-0.196,0.155,0.316,0.0,-0.949,0.912,0.029,0.41,0.348,0.87,0.348,0.916,0.057,0.398,-0.198,0.693,0.693,0.071,0.896,0.437,-0.864,0.432,-0.259,scissors
1.246084,-0.142,0.747,0.65,-0.808,0.115,0.577,0.796,-0.51,-0.326,0.752,-0.566,0.339,0.596,-0.298,-0.745,0.966,-0.204,0.159,0.577,0.577,-0.577,0.914,0.025,0.406,0.64,0.64,0.426,0.916,0.051,0.399,-0.0,0.581,0.814,0.075,0.897,0.435,-0.848,0.53,-0.0,scissors
1.29088,-0.154,0.753,0.64,0.229,0.688,0.688,0.796,-0.51,-0.326,0.758,-0.56,0.334,0.8,-0.0,-0.6,0.968,-0.198,0.155,0.667,0.667,0.333,0.911,0.033,0.412,0.555,0.0,0.832,0.914,0.06,0.401,-0.116,0.349,0.93,0.068,0.898,0.435,-0.843,0.482,0.241,scissors
1.330232,-0.15,0.75,0.644,0.371,0.557,0.743,0.75,-0.56,-0.352,0.755,-0.564,0.334,0.943,0.236,-0.236,0.967,-0.203,0.154,0.196,0.784,0.588,0.912,0.032,0.408,0.436,-0.218,0.873,0.916,0.056,0.396,-0.124,0.0,0.992,0.072,0.898,0.434,-0.816,0.408,0.408,scissors
1.375371,-0.152,0.757,0.636,0.424,0.707,0.566,0.76,-0.55,-0.346,0.754,-0.565,0.334,0.981,-0.0,-0.196,0.966,-0.205,0.154,0.64,0.426,0.64,0.912,0.031,0.408,0.688,-0.229,0.688,0.918,0.055,0.392,-0.0,0.11,0.994,0.073,0.899,0.431,-0.717,0.598,0.359,scissors
1.420442,-0.149,0.754,0.64,0.0,0.514,0.857,0.76,-0.55,-0.346,0.756,-0.563,0.334,0.845,-0.169,-0.507,0.967,-0.201,0.154,0.905,0.302,0.302,0.912,0.031,0.409,0.588,0.196,0.784,0.916,0.057,0.398,-0.105,0.314,0.943,0.069,0.898,0.435,-0.793,0.566,0.226,scissors
1.459057,-0.149,0.759,0.634,0.174,0.696,0.696,0.751,-0.568,-0.338,0.757,-0.561,0.335,0.696,-0.174,-0.696,0.968,-0.199,0.154,0.894,0.447,0.0,0.912,0.028,0.41,0.485,0.485,0.728,0.917,0.05,0.395,-0.218,0.436,0.873,0.072,0.897,0.437,-0.843,0.527,0.105,scissors
1.500424,-0.145,0.758,0.636,0.174,0.696,0.696,0.735,-0.604,-0.308,0.753,-0.559,0.348,0.667,-0.333,-0.667,0.965,-0.194,0.177,0.0,0.707,-0.707,0.913,0.024,0.406,0.64,0.426,0.64,0.918,0.05,0.393,-0.111,0.444,0.889,0.081,0.9,0.429,-0.824,0.549,0.137,scissors
1.546512,-0.154,0.754,0.639,0.0,0.625,0.781,0.735,-0.604,-0.308,0.757,-0.561,0.335,0.487,-0.324,-0.811,0.968,-0.2,0.153,0.408,0.816,-0.408,0.913,0.028,0.406,0.577,0.577,0.577,0.915,0.058,0.399,-0.105,0.527,0.843,0.073,0.897,0.435,-0.843,0.527,0.105,scissors
1.589508,-0.149,0.761,0.632,-0.0,0.514,0.857,0.735,-0.604,-0.308,0.756,-0.563,0.333,0.512,-0.384,-0.768,0.967,-0.201,0.154,0.667,-0.333,-0.667,0.913,0.03,0.407,0.557,0.743,0.371,0.918,0.056,0.394,-0.115,0.577,0.808,0.072,0.898,0.434,-0.784,0.588,-0.196,scissors
1.629098,-0.15,0.758,0.635,-0.457,0.457,0.762,0.757,-0.584,-0.293,0.755,-0.563,0.336,0.651,-0.391,-0.651,0.967,-0.202,0.156,0.728,-0.485,-0.485,0.913,0.029,0.407,0.557,0.743,0.371,0.917,0.053,0.395,-0.0,0.581,0.814,0.073,0.898,0.434,-0.749,0.656,-0.094,scissors
1.671631,-0.149,0.754,0.64,-0.514,0.514,0.686,0.757,-0.584,-0.293,0.761,-0.558,0.332,0.512,-0.384,-0.768,0.969,-0.193,0.152,0.426,-0.64,-0.64,0.909,0.033,0.415,0.588,0.784,0.196,0.913,0.058,0.403,-0.117,0.702,0.702,0.066,0.896,0.439,-0.724,0.634,-0.272,scissors
1.714508,-0.146,0.749,0.646,-0.267,0.535,0.802,0.757,-0.584,-0.293,0.762,-0.555,0.333,0.507,-0.169,-0.845,0.97,-0.19,0.153,0.408,-0.816,-0.408,0.908,0.033,0.418,0.333,0.667,0.667,0.912,0.058,0.407,-0.267,0.535,0.802,0.065,0.896,0.439,-0.793,0.566,-0.226,scissors
1.760029,-0.145,0.758,0.636,-0.667,0.333,0.667,0.764,-0.549,-0.339,0.756,-0.56,0.339,0.549,-0.137,-0.824,0.967,-0.201,0.156,0.485,-0.728,-0.485,0.916,0.015,0.401,0.728,0.485,0.485,0.918,0.041,0.394,-0.137,0.549,0.824,0.076,0.898,0.434,-0.742,0.636,-0.212,scissors
1.802178,-0.145,0.758,0.637,-0.514,0.514,0.686,0.764,-0.552,-0.334,0.761,-0.556,0.334,0.597,-0.1,-0.796,0.97,-0.193,0.149,0.384,-0.768,-0.512,0.913,0.026,0.408,0.962,0.192,0.192,0.916,0.048,0.398,0.0,0.64,0.768,0.067,0.897,0.436,-0.616,0.704,-0.352,scissors
1.847986,-0.146,0.753,0.642,-0.745,0.298,0.596,0.762,-0.562,-0.323,0.762,-0.552,0.34,0.587,0.073,-0.807,0.971,-0.185,0.15,0.426,-0.681,-0.596,0.908,0.034,0.418,0.894,0.447,0.0,0.912,0.056,0.406,0.248,0.744,0.62,0.063,0.895,0.442,-0.595,0.669,-0.446,scissors
1.894041,-0.136,0.752,0.645,-0.894,0.0,0.447,0.762,-0.562,-0.323,0.763,-0.548,0.342,0.477,0.08,-0.875,0.971,-0.186,0.148,0.272,-0.634,-0.724,0.909,0.033,0.415,0.0,0.981,-0.196,0.91,0.057,0.411,-0.241,0.843,0.482,0.064,0.894,0.443,-0.686,0.514,-0.514,scissors
1.932555,-0.142,0.751,0.645,-0.707,0.707,0.0,0.779,-0.546,-0.308,0.762,-0.548,0.345,0.582,0.364,-0.727,0.972,-0.184,0.146,0.287,-0.766,-0.575,0.91,0.028,0.413,0.0,1.0,-0.0,0.914,0.052,0.403,-0.391,0.651,0.651,0.066,0.895,0.441,-0.667,0.572,-0.477,scissors
1.978618,-0.131,0.751,0.648,-0.667,0.667,0.333,0.74,-0.577,-0.346,0.763,-0.542,0.352,0.614,0.383,-0.69,0.973,-0.18,0.147,0.457,-0.762,-0.457,0.91,0.023,0.415,0.667,0.667,0.333,0.914,0.046,0.404,-0.137,0.549,0.824,0.064,0.894,0.443,-0.677,0.677,-0.29,scissors
2.016075,-0.134,0.754,0.643,-0.667,0.667,0.333,0.755,-0.571,-0.323,0.763,-0.539,0.356,0.619,0.309,-0.722,0.973,-0.178,0.149,0.333,-0.667,-0.667,0.909,0.026,0.416,0.302,0.905,0.302,0.91,0.055,0.411,-0.127,0.635,0.762,0.061,0.893,0.447,-0.766,0.575,-0.287,scissors
2.06301,-0.138,0.758,0.637,0.316,0.0,0.949,0.744,-0.581,-0.329,0.76,-0.543,0.357,0.597,0.398,-0.697,0.972,-0.185,0.147,0.302,-0.302,-0.905,0.912,0.023,0.409,-0.267,0.802,0.535,0.917,0.043,0.396,-0.422,0.527,0.738,0.067,0.895,0.44,-0.858,0.477,-0.191,scissors
2.102594,-0.146,0.753,0.642,0.0,0.447,0.894,0.794,-0.546,-0.266,0.759,-0.543,0.359,0.647,0.108,-0.755,0.972,-0.183,0.147,0.447,-0.0,-0.894,0.913,0.02,0.407,0.0,0.928,0.371,0.916,0.048,0.399,-0.212,0.636,0.742,0.067,0.895,0.442,-0.858,0.477,-0.191,scissors
2.146907,-0.135,0.76,0.636,-0.0,0.447,0.894,0.794,-0.546,-0.266,0.758,-0.543,0.363,0.707,-0.0,-0.707,0.972,-0.182,0.148,0.707,0.0,-0.707,0.913,0.02,0.407,0.426,0.64,0.64,0.917,0.044,0.397,-0.115,0.577,0.808,0.07,0.894,0.442,-0.796,0.597,-0.1,scissors
2.185773,-0.135,0.751,0.647,-0.333,0.667,0.667,0.794,-0.546,-0.266,0.762,-0.541,0.357,0.745,-0.298,-0.596,0.974,-0.178,0.143,0.905,-0.302,-0.302,0.911,0.024,0.412,0.743,0.557,0.371,0.915,0.045,0.401,0.0,0.581,0.814,0.062,0.895,0.443,-0.755,0.647,-0.108,scissors
2.231574,-0.139,0.746,0.651,-0.174,0.696,0.696,0.724,-0.597,-0.346,0.764,-0.539,0.356,0.667,-0.333,-0.667,0.974,-0.176,0.142,1.0,0.0,-0.0,0.909,0.028,0.415,0.743,0.557,0.371,0.912,0.052,0.407,-0.0,0.581,0.814,0.058,0.894,0.444,-0.814,0.581,-0.0,scissors
2.269229,-0.139,0.751,0.645,0.426,0.64,0.64,0.724,-0.597,-0.346,0.763,-0.539,0.357,0.667,-0.333,-0.667,0.974,-0.176,0.143,0.0,0.894,0.447,0.91,0.023,0.414,0.802,0.267,0.535,0.915,0.045,0.402,-0.13,0.391,0.911,0.062,0.895,0.441,-0.885,0.442,0.147,scissors
2.315811,-0.141,0.751,0.645,-0.248,0.744,0.62,0.727,-0.611,-0.313,0.764,-0.539,0.356,0.625,-0.625,-0.469,0.974,-0.178,0.142,0.949,-0.316,0.0,0.909,0.028,0.415,0.857,0.429,0.286,0.912,0.056,0.407,0.226,0.566,0.793,0.057,0.895,0.443,-0.647,0.755,-0.108,scissors
2.35234,-0.145,0.749,0.647,-0.424,0.707,0.566,0.727,-0.611,-0.313,0.768,-0.534,0.354,0.457,-0.457,-0.762,0.975,-0.173,0.14,0.816,-0.408,-0.408,0.905,0.034,0.424,0.667,0.667,0.333,0.91,0.057,0.411,0.108,0.755,0.647,0.053,0.894,0.446,-0.784,0.588,-0.196,scissors
2.398858,-0.136,0.754,0.643,-0.485,0.485,0.728,0.725,-0.63,-0.278,0.763,-0.539,0.356,0.557,-0.371,-0.743,0.973,-0.179,0.143,0.707,0.707,0.0,0.909,0.024,0.415,0.743,0.557,0.371,0.912,0.053,0.407,0.115,0.577,0.808,0.061,0.895,0.442,-0.814,0.581,-0.0,scissors
2.440439,-0.14,0.75,0.647,-0.174,0.696,0.696,0.741,-0.587,-0.327,0.762,-0.541,0.356,0.514,-0.686,-0.514,0.973,-0.181,0.142,1.0,0.0,-0.0,0.907,0.035,0.419,0.811,0.487,0.324,0.911,0.058,0.409,0.115,0.577,0.808,0.062,0.896,0.439,-0.704,0.704,-0.101,scissors
2.482867,-0.143,0.748,0.648,-0.662,0.53,0.53,0.735,-0.604,-0.308,0.763,-0.542,0.353,0.469,-0.625,-0.625,0.973,-0.182,0.142,0.894,-0.0,-0.447,0.911,0.029,0.412,0.857,0.429,0.286,0.912,0.054,0.407,0.226,0.566,0.793,0.06,0.897,0.438,-0.704,0.704,-0.101,scissors
2.521938,-0.15,0.751,0.643,0.0,0.707,0.707,0.721,-0.611,-0.328,0.769,-0.537,0.346,0.424,-0.566,-0.707,0.976,-0.174,0.132,0.485,-0.728,-0.485,0.907,0.037,0.419,0.696,0.696,0.174,0.908,0.062,0.414,0.0,0.759,0.651,0.048,0.897,0.44,-0.677,0.677,-0.29,scissors
2.566184,-0.14,0.746,0.651,0.0,0.707,0.707,0.768,-0.553,-0.324,0.77,-0.538,0.344,0.728,-0.485,-0.485,0.975,-0.177,0.131,0.408,-0.408,0.816,0.903,0.046,0.427,0.97,0.0,0.243,0.908,0.069,0.412,0.0,0.447,0.894,0.05,0.898,0.436,-0.635,0.762,-0.127,scissors
2.605414,-0.136,0.733,0.666,-0.408,0.816,0.408,0.768,-0.553,-0.324,0.77,-0.537,0.345,0.324,-0.487,-0.811,0.975,-0.175,0.134,0.218,-0.873,-0.436,0.908,0.031,0.418,0.447,0.894,-0.0,0.908,0.054,0.415,-0.329,0.768,0.549,0.047,0.896,0.442,-0.667,0.667,-0.333,scissors
2.650106,-0.152,0.757,0.636,-0.667,0.667,0.333,0.768,-0.553,-0.324,0.771,-0.533,0.348,0.485,-0.485,-0.728,0.977,-0.166,0.134,0.0,-1.0,0.0,0.902,0.044,0.43,0.707,0.707,0.0,0.905,0.069,0.419,-0.424,0.566,0.707,0.045,0.894,0.445,-0.717,0.598,-0.359,scissors
2.689435,-0.139,0.741,0.657,-0.97,0.0,0.243,0.73,-0.574,-0.372,0.764,-0.541,0.352,0.236,-0.236,-0.943,0.974,-0.178,0.141,-1.0,0.0,0.0,0.91,0.027,0.414,0.408,0.816,0.408,0.911,0.05,0.409,-0.566,0.424,0.707,0.056,0.897,0.438,-0.885,0.442,-0.147,scissors
2.734723,-0.141,0.751,0.645,0.267,0.802,0.535,0.699,-0.634,-0.33,0.768,-0.538,0.348,0.324,-0.487,-0.811,0.975,-0.175,0.135,0.333,-0.667,-0.667,0.906,0.035,0.423,0.447,0.894,0.0,0.91,0.056,0.411,-0.229,0.688,0.688,0.051,0.896,0.44,-0.722,0.619,-0.309,scissors
2.776579,-0.143,0.736,0.661,-0.873,0.218,0.436,0.699,-0.634,-0.33,0.771,-0.535,0.345,0.0,0.0,-1.0,0.976,-0.173,0.132,-0.816,0.408,-0.408,0.905,0.037,0.423,-0.447,0.894,-0.0,0.907,0.06,0.417,-0.485,0.485,0.728,0.045,0.897,0.441,-0.927,0.265,-0.265,scissors
2.821862,-0.142,0.744,0.653,-0.0,0.0,1.0,0.716,-0.631,-0.298,0.768,-0.538,0.347,-0.0,0.196,-0.981,0.975,-0.174,0.136,-0.832,0.555,0.0,0.906,0.038,0.422,-0.447,0.894,-0.0,0.906,0.062,0.419,-0.651,0.391,0.651,0.052,0.895,0.442,-0.953,0.136,-0.272,scissors
2.866017,-0.135,0.751,0.647,-0.0,0.0,1.0,0.745,-0.585,-0.32,0.764,-0.539,0.354,-0.236,0.236,-0.943,0.973,-0.18,0.145,-0.667,0.667,0.333,0.91,0.021,0.414,-0.894,0.447,0.0,0.911,0.045,0.409,-0.68,0.272,0.68,0.061,0.895,0.441,-1.0,-0.0,-0.0,scissors
2.905476,-0.134,0.759,0.638,0.905,0.302,0.302,0.745,-0.585,-0.32,0.763,-0.538,0.358,0.0,0.447,-0.894,0.972,-0.178,0.15,-0.485,0.728,0.485,0.908,0.025,0.418,-0.707,0.0,0.707,0.913,0.046,0.406,-0.596,0.298,0.745,0.064,0.894,0.444,-0.986,0.164,-0.0,scissors
2.953115,-0.128,0.753,0.645,0.667,0.667,0.333,0.745,-0.585,-0.32,0.758,-0.543,0.362,0.707,0.0,-0.707,0.971,-0.182,0.155,-0.267,0.535,0.802,0.912,0.013,0.409,0.408,-0.408,0.816,0.917,0.033,0.398,-0.272,0.136,0.953,0.071,0.895,0.439,-0.913,0.365,0.183,scissors
2.988254,-0.135,0.755,0.641,0.183,0.913,0.365,0.734,-0.585,-0.346,0.76,-0.54,0.36,0.816,-0.408,-0.408,0.972,-0.181,0.153,0.0,0.555,0.832,0.911,0.016,0.413,0.802,-0.267,0.535,0.913,0.04,0.405,0.0,0.275,0.962,0.068,0.894,0.442,-0.811,0.487,0.324,scissors
3.030581,-0.138,0.755,0.641,0.487,0.811,0.324,0.734,-0.585,-0.346,0.765,-0.537,0.356,0.894,-0.0,-0.447,0.973,-0.177,0.149,0.0,0.316,0.949,0.906,0.028,0.422,0.667,-0.333,0.667,0.909,0.051,0.413,-0.14,0.14,0.98,0.059,0.893,0.446,-0.845,0.507,0.169,scissors
3.070532,-0.134,0.752,0.645,0.487,0.811,0.324,0.744,-0.583,-0.325,0.763,-0.539,0.357,0.905,0.302,-0.302,0.972,-0.181,0.151,0.267,0.535,0.802,0.91,0.019,0.414,0.535,-0.267,0.802,0.913,0.042,0.406,-0.241,0.12,0.963,0.065,0.895,0.442,-0.857,0.429,0.286,scissors
3.116938,-0.139,0.753,0.643,0.333,0.667,0.667,0.723,-0.603,-0.336,0.762,-0.542,0.355,0.943,-0.236,-0.236,0.973,-0.181,0.146,0.485,0.485,0.728,0.91,0.025,0.413,0.784,-0.196,0.588,0.911,0.048,0.41,0.0,0.243,0.97,0.061,0.896,0.44,-0.707,0.566,0.424,scissors
3.157108,-0.144,0.749,0.647,0.333,0.667,0.667,0.722,-0.609,-0.328,0.766,-0.54,0.349,0.97,-0.0,-0.243,0.974,-0.179,0.141,0.408,0.408,0.816,0.907,0.032,0.42,0.784,-0.196,0.588,0.91,0.052,0.412,0.12,0.241,0.963,0.056,0.896,0.44,-0.707,0.566,0.424,scissors
3.201385,-0.137,0.749,0.648,0.267,0.802,0.535,0.722,-0.609,-0.328,0.767,-0.538,0.348,0.832,0.0,-0.555,0.974,-0.177,0.14,0.0,0.707,0.707,0.905,0.034,0.423,0.667,-0.333,0.667,0.908,0.058,0.416,-0.136,0.272,0.953,0.054,0.896,0.441,-0.885,0.442,0.147,scissors
3.240549,-0.14,0.749,0.648,0.436,0.218,0.873,0.722,-0.609,-0.328,0.768,-0.538,0.347,0.688,0.229,-0.688,0.974,-0.176,0.141,-0.302,0.905,0.302,0.905,0.035,0.423,0.408,0.408,0.816,0.91,0.05,0.412,-0.241,0.482,0.843,0.053,0.895,0.442,-0.953,0.272,0.136,scissors
3.283452,-0.14,0.749,0.648,0.555,0.0,0.832,0.759,-0.572,-0.312,0.764,-0.543,0.348,0.588,0.196,-0.784,0.973,-0.184,0.141,-0.316,0.949,0.0,0.909,0.029,0.415,0.0,0.316,0.949,0.909,0.055,0.413,-0.318,0.424,0.848,0.059,0.898,0.435,-0.963,0.241,0.12,scissors
3.327731,-0.149,0.75,0.644,0.316,-0.0,0.949,0.748,-0.579,-0.325,0.768,-0.539,0.347,0.192,0.192,-0.962,0.975,-0.175,0.138,-0.535,0.802,-0.267,0.906,0.04,0.422,-0.485,0.728,0.485,0.906,0.064,0.419,-0.57,0.456,0.684,0.051,0.897,0.439,-0.988,0.11,-0.11,scissors
3.370419,-0.142,0.748,0.648,0.316,-0.0,0.949,0.764,-0.579,-0.285,0.765,-0.544,0.345,-0.0,0.514,-0.857,0.973,-0.185,0.141,-0.707,0.707,-0.0,0.91,0.033,0.414,-0.802,0.535,0.267,0.91,0.053,0.412,-0.722,0.309,0.619,0.059,0.9,0.433,-0.985,-0.123,-0.123,scissors
3.410985,-0.149,0.754,0.64,0.894,-0.447,0.0,0.764,-0.579,-0.285,0.764,-0.544,0.347,-0.183,0.365,-0.913,0.973,-0.184,0.142,-0.8,0.6,-0.0,0.908,0.041,0.418,-0.832,0.555,-0.0,0.909,0.06,0.413,-0.684,0.456,0.57,0.059,0.898,0.436,-0.962,-0.0,-0.275,scissors
3.456782,-0.141,0.749,0.647,0.267,-0.802,-0.535,0.764,-0.579,-0.285,0.763,-0.544,0.35,-0.408,0.408,-0.816,0.972,-0.184,0.144,-0.919,0.394,-0.0,0.91,0.032,0.414,-0.962,0.192,-0.192,0.91,0.053,0.411,-0.905,0.302,0.302,0.062,0.898,0.435,-0.855,-0.367,-0.367,scissors
3.494701,-0.142,0.756,0.638,0.485,-0.728,-0.485,0.764,-0.579,-0.285,0.761,-0.544,0.353,-0.384,0.512,-0.768,0.971,-0.187,0.149,-0.868,0.496,-0.0,0.911,0.025,0.411,-0.962,0.192,-0.192,0.913,0.048,0.406,-0.905,0.302,0.302,0.068,0.898,0.435,-0.855,-0.367,-0.367,scissors
3.537624,-0.139,0.757,0.639,0.577,-0.577,-0.577,0.764,-0.579,-0.285,0.76,-0.545,0.355,-0.457,0.457,-0.762,0.971,-0.187,0.152,-0.962,0.275,-0.0,0.912,0.022,0.41,-0.873,0.218,-0.436,0.914,0.04,0.403,-0.855,0.367,0.367,0.071,0.897,0.435,-0.855,-0.367,-0.367,scissors
3.575528,-0.135,0.757,0.639,0.0,-0.555,-0.832,0.764,-0.579,-0.285,0.76,-0.544,0.356,-0.487,0.324,-0.811,0.97,-0.188,0.155,-0.953,0.272,0.136,0.911,0.022,0.412,-0.802,0.267,-0.535,0.911,0.045,0.409,-0.857,0.286,0.429,0.073,0.896,0.438,-0.857,-0.286,-0.429,scissors
3.62087,-0.141,0.754,0.641,0.267,-0.535,-0.802,0.764,-0.579,-0.285,0.762,-0.541,0.356,-0.566,0.424,-0.707,0.971,-0.183,0.153,-0.953,0.272,0.136,0.908,0.027,0.417,-0.894,0.0,-0.447,0.91,0.048,0.412,-0.943,0.236,0.236,0.066,0.894,0.443,-0.816,-0.408,-0.408,scissors
3.66031,-0.134,0.757,0.64,0.196,-0.588,-0.784,0.791,-0.544,-0.281,0.757,-0.544,0.362,-0.514,0.514,-0.686,0.968,-0.19,0.162,-0.937,0.312,0.156,0.913,0.014,0.408,-0.97,-0.0,-0.243,0.914,0.036,0.403,-0.873,0.218,0.436,0.078,0.895,0.44,-0.857,-0.429,-0.286,scissors
3.70442,-0.133,0.766,0.629,0.0,-1.0,0.0,0.733,-0.592,-0.336,0.758,-0.543,0.362,-0.302,0.302,-0.905,0.969,-0.188,0.163,-0.962,0.192,-0.192,0.912,0.015,0.41,-0.802,0.535,-0.267,0.914,0.034,0.405,-0.816,0.408,0.408,0.079,0.894,0.44,-0.911,-0.13,-0.391,scissors
3.744281,-0.131,0.758,0.639,0.894,-0.447,-0.0,0.744,-0.616,-0.259,0.758,-0.542,0.363,-0.348,0.348,-0.87,0.969,-0.186,0.161,-0.857,0.514,0.0,0.91,0.018,0.413,-0.905,0.302,-0.302,0.912,0.042,0.409,-0.768,0.384,0.512,0.076,0.893,0.444,-0.953,-0.136,-0.272,scissors
3.78816,-0.127,0.757,0.641,-0.577,-0.577,-0.577,0.693,-0.632,-0.347,0.759,-0.541,0.362,-0.156,0.312,-0.937,0.969,-0.188,0.162,-0.928,0.371,-0.0,0.912,0.013,0.41,-0.802,0.535,-0.267,0.914,0.033,0.404,-0.768,0.384,0.512,0.08,0.894,0.44,-0.953,-0.136,-0.272,scissors
3.830627,-0.131,0.765,0.631,0.707,0.707,0.0,0.719,-0.61,-0.334,0.758,-0.541,0.363,-0.236,0.236,-0.943,0.968,-0.188,0.164,-0.943,0.236,0.236,0.911,0.018,0.411,-0.577,0.577,-0.577,0.913,0.037,0.406,-0.625,0.469,0.625,0.078,0.894,0.442,-0.949,0.0,-0.316,scissors
3.869539,-0.135,0.761,0.635,0.577,0.577,-0.577,0.719,-0.61,-0.334,0.757,-0.542,0.364,-0.535,0.267,-0.802,0.968,-0.186,0.166,-0.816,0.408,0.408,0.91,0.02,0.414,-0.894,-0.0,-0.447,0.911,0.044,0.411,-0.745,0.298,0.596,0.078,0.893,0.443,-0.981,-0.0,-0.196,scissors
3.912384,-0.126,0.762,0.635,0.707,0.707,0.0,0.75,-0.599,-0.28,0.755,-0.543,0.366,-0.302,0.302,-0.905,0.967,-0.191,0.171,-0.873,0.436,0.218,0.915,0.005,0.403,-1.0,0.0,0.0,0.916,0.028,0.4,-0.68,0.272,0.68,0.087,0.893,0.442,-0.986,0.0,-0.164,scissors
3.948964,-0.134,0.766,0.628,0.577,0.577,0.577,0.75,-0.599,-0.28,0.755,-0.544,0.366,0.236,0.236,-0.943,0.966,-0.193,0.17,-0.667,0.667,0.333,0.913,0.013,0.407,-0.0,0.707,0.707,0.916,0.034,0.4,-0.408,0.408,0.816,0.085,0.894,0.44,-0.953,0.272,-0.136,scissors
3.994955,-0.139,0.763,0.632,0.577,0.577,0.577,0.75,-0.599,-0.28,0.755,-0.546,0.363,0.236,0.236,-0.943,0.967,-0.192,0.165,-0.894,0.447,0.0,0.914,0.015,0.405,-0.577,0.577,0.577,0.915,0.039,0.402,-0.512,0.384,0.768,0.081,0.895,0.438,-0.953,0.272,-0.136,scissors
4.033854,-0.139,0.757,0.639,1.0,0.0,0.0,0.732,-0.613,-0.298,0.757,-0.546,0.358,0.0,0.447,-0.894,0.969,-0.189,0.16,-0.667,0.667,0.333,0.913,0.02,0.407,-0.707,0.0,0.707,0.913,0.04,0.407,-0.62,0.248,0.744,0.076,0.897,0.436,-0.986,0.164,-0.0,scissors
4.075602,-0.141,0.758,0.636,0.928,0.371,0.0,0.732,-0.613,-0.298,0.763,-0.542,0.352,-0.0,0.447,-0.894,0.971,-0.183,0.154,-0.688,0.688,0.229,0.907,0.038,0.419,-1.0,-0.0,-0.0,0.909,0.058,0.414,-0.744,0.248,0.62,0.063,0.896,0.439,-0.99,-0.0,-0.141,scissors
4.121409,-0.145,0.738,0.659,0.894,0.447,-0.0,0.743,-0.606,-0.284,0.77,-0.544,0.333,-0.298,0.745,-0.596,0.974,-0.182,0.138,-0.824,0.549,0.137,0.906,0.049,0.42,-0.981,-0.196,0.0,0.906,0.068,0.418,-0.843,0.105,0.527,0.047,0.9,0.432,-0.911,-0.391,-0.13,scissors
4.165805,-0.168,0.722,0.671,0.324,-0.811,-0.487,0.743,-0.606,-0.284,0.78,-0.541,0.315,-0.477,0.572,-0.667,0.978,-0.172,0.115,-0.854,0.513,-0.085,0.898,0.079,0.434,-0.97,-0.0,-0.243,0.895,0.097,0.434,-0.933,0.254,0.254,0.022,0.903,0.429,-0.724,-0.634,-0.272,scissors
4.204043,-0.164,0.714,0.68,0.303,-0.808,-0.505,0.745,-0.595,-0.301,0.791,-0.533,0.3,-0.577,0.577,-0.577,0.982,-0.163,0.098,-0.905,0.422,-0.06,0.89,0.096,0.447,-0.933,0.0,-0.359,0.886,0.112,0.449,-0.983,0.184,0.0,0.001,0.902,0.431,-0.538,-0.74,-0.404,scissors
4.248283,-0.156,0.712,0.685,0.154,-0.772,-0.617,0.745,-0.595,-0.301,0.792,-0.532,0.299,-0.678,0.542,-0.497,0.982,-0.161,0.099,-0.936,0.341,-0.085,0.89,0.091,0.447,-0.921,0.048,-0.388,0.888,0.104,0.447,-0.982,0.134,-0.134,0.001,0.901,0.433,-0.376,-0.799,-0.47,scissors
4.29016,-0.163,0.722,0.672,0.163,-0.774,-0.611,0.745,-0.595,-0.301,0.788,-0.534,0.307,-0.659,0.55,-0.513,0.98,-0.167,0.107,-0.939,0.313,-0.139,0.894,0.085,0.441,-0.924,0.121,-0.362,0.892,0.099,0.44,-0.973,0.144,-0.18,0.012,0.901,0.433,-0.338,-0.826,-0.451,scissors
4.335312,-0.165,0.726,0.667,0.129,-0.805,-0.579,0.727,-0.604,-0.326,0.785,-0.535,0.312,-0.679,0.561,-0.473,0.979,-0.168,0.114,-0.934,0.33,-0.137,0.896,0.08,0.437,-0.929,0.09,-0.36,0.893,0.1,0.439,-0.971,0.118,-0.206,0.019,0.9,0.435,-0.293,-0.849,-0.439,scissors
4.380049,-0.159,0.731,0.664,0.138,-0.802,-0.581,0.727,-0.604,-0.326,0.782,-0.54,0.312,-0.675,0.571,-0.467,0.977,-0.177,0.118,-0.943,0.298,-0.149,0.899,0.075,0.43,-0.931,0.082,-0.356,0.897,0.092,0.432,-0.966,0.104,-0.235,0.027,0.902,0.43,-0.29,-0.845,-0.449,scissors
4.419518,-0.163,0.725,0.669,0.138,-0.802,-0.581,0.741,-0.589,-0.323,0.784,-0.538,0.31,-0.68,0.563,-0.469,0.978,-0.173,0.115,-0.947,0.277,-0.162,0.898,0.081,0.433,-0.928,0.073,-0.366,0.893,0.098,0.438,-0.962,0.072,-0.264,0.022,0.902,0.431,-0.244,-0.852,-0.463,scissors
4.463797,-0.154,0.735,0.661,0.133,-0.774,-0.619,0.741,-0.589,-0.323,0.781,-0.538,0.319,-0.701,0.573,-0.425,0.976,-0.176,0.125,-0.952,0.269,-0.145,0.901,0.07,0.428,-0.927,0.022,-0.375,0.9,0.085,0.427,-0.96,0.043,-0.277,0.031,0.901,0.433,-0.218,-0.873,-0.436,scissors
4.505862,-0.145,0.742,0.655,0.133,-0.774,-0.619,0.736,-0.585,-0.34,0.774,-0.541,0.329,-0.689,0.587,-0.425,0.973,-0.183,0.137,-0.951,0.277,-0.139,0.906,0.05,0.421,-0.933,0.021,-0.36,0.904,0.074,0.421,-0.962,0.061,-0.266,0.046,0.9,0.434,-0.206,-0.887,-0.413,scissors
4.544939,-0.135,0.747,0.651,0.149,-0.788,-0.597,0.736,-0.585,-0.34,0.768,-0.541,0.343,-0.678,0.596,-0.431,0.97,-0.19,0.151,-0.945,0.295,-0.138,0.909,0.036,0.414,-0.944,0.0,-0.329,0.909,0.053,0.413,-0.967,0.042,-0.252,0.062,0.898,0.436,-0.212,-0.89,-0.403,scissors
4.585282,-0.127,0.753,0.646,0.149,-0.788,-0.597,0.796,-0.534,-0.285,0.768,-0.536,0.351,-0.666,0.604,-0.437,0.97,-0.183,0.162,-0.937,0.319,-0.14,0.909,0.027,0.416,-0.944,0.022,-0.329,0.909,0.044,0.414,-0.967,0.042,-0.252,0.068,0.894,0.443,-0.232,-0.886,-0.401,scissors
4.628514,-0.116,0.761,0.638,0.203,-0.767,-0.609,0.796,-0.534,-0.285,0.762,-0.535,0.364,-0.645,0.645,-0.409,0.966,-0.188,0.177,-0.937,0.333,-0.104,0.912,0.009,0.41,-0.948,-0.023,-0.316,0.913,0.028,0.407,-0.976,-0.0,-0.217,0.086,0.889,0.449,-0.222,-0.908,-0.355,scissors
4.674326,-0.104,0.78,0.617,0.27,-0.761,-0.589,0.796,-0.534,-0.285,0.749,-0.539,0.384,-0.646,0.669,-0.369,0.959,-0.199,0.202,-0.932,0.355,-0.067,0.921,-0.026,0.389,-0.963,-0.048,-0.265,0.921,-0.0,0.39,-0.978,-0.045,-0.205,0.115,0.887,0.448,-0.212,-0.92,-0.33,scissors
4.712308,-0.098,0.797,0.596,0.324,-0.745,-0.583,0.772,-0.534,-0.346,0.737,-0.542,0.403,-0.62,0.701,-0.351,0.953,-0.205,0.224,-0.922,0.384,-0.051,0.924,-0.048,0.379,-0.97,-0.086,-0.228,0.929,-0.029,0.369,-0.989,-0.055,-0.137,0.139,0.881,0.451,-0.253,-0.926,-0.281,scissors
4.757948,-0.083,0.8,0.594,0.467,-0.722,-0.51,0.758,-0.566,-0.324,0.728,-0.541,0.422,-0.542,0.759,-0.361,0.947,-0.213,0.24,-0.88,0.474,0.0,0.926,-0.073,0.371,-0.986,-0.118,-0.118,0.931,-0.048,0.361,-0.997,-0.071,-0.0,0.159,0.876,0.455,-0.345,-0.919,-0.191,scissors
4.796828,-0.079,0.805,0.588,0.467,-0.722,-0.51,0.777,-0.541,-0.321,0.718,-0.546,0.431,-0.348,0.87,-0.348,0.941,-0.221,0.255,-0.752,0.652,0.1,0.93,-0.097,0.353,-0.957,-0.205,0.205,0.937,-0.071,0.342,-0.937,-0.156,0.312,0.179,0.875,0.45,-0.54,-0.84,0.06,scissors
4.837765,-0.083,0.813,0.577,0.467,-0.722,-0.51,0.757,-0.544,-0.361,0.72,-0.545,0.431,0.408,0.816,-0.408,0.942,-0.219,0.254,-0.176,0.968,0.176,0.929,-0.081,0.361,-0.309,-0.206,0.928,0.935,-0.058,0.35,-0.446,-0.074,0.892,0.17,0.875,0.454,-0.83,-0.249,0.498,scissors
4.880888,-0.094,0.806,0.584,0.638,0.319,0.701,0.795,-0.53,-0.295,0.724,-0.543,0.426,0.94,0.342,-0.0,0.945,-0.213,0.249,0.513,0.807,0.293,0.925,-0.061,0.375,0.222,-0.148,0.964,0.931,-0.036,0.362,0.123,-0.123,0.985,0.159,0.875,0.457,-0.65,0.26,0.715,scissors
4.920472,-0.107,0.797,0.595,0.398,0.455,0.796,0.795,-0.53,-0.295,0.727,-0.548,0.413,0.987,0.141,0.071,0.947,-0.22,0.235,0.673,0.673,0.306,0.928,-0.053,0.368,0.42,-0.12,0.9,0.93,-0.023,0.367,0.316,-0.053,0.947,0.152,0.88,0.45,-0.548,0.438,0.712,scissors
4.965927,-0.118,0.804,0.583,0.45,0.585,0.675,0.802,-0.532,-0.271,0.726,-0.553,0.408,0.972,-0.057,0.229,0.947,-0.223,0.229,0.816,0.435,0.381,0.929,-0.041,0.367,0.612,-0.204,0.764,0.933,-0.014,0.36,0.461,-0.138,0.876,0.15,0.885,0.441,-0.374,0.607,0.701,scissors
5.004742,-0.122,0.799,0.588,0.333,0.624,0.707,0.756,-0.578,-0.307,0.725,-0.556,0.406,0.943,-0.149,0.298,0.948,-0.227,0.226,0.861,0.335,0.383,0.93,-0.035,0.366,0.647,-0.185,0.74,0.933,-0.008,0.359,0.462,-0.084,0.883,0.15,0.886,0.438,-0.343,0.643,0.685,scissors
5.438274,-0.131,0.805,0.579,0.333,0.624,0.707,0.775,-0.583,-0.244,0.725,-0.557,0.404,0.943,-0.149,0.298,0.948,-0.227,0.225,0.9,0.284,0.331,0.929,-0.024,0.368,0.652,-0.14,0.745,0.933,0.001,0.359,0.462,-0.084,0.883,0.146,0.888,0.437,-0.343,0.685,0.643,scissors
5.43849,-0.137,0.813,0.566,0.464,0.649,0.603,0.77,-0.566,-0.295,0.716,-0.564,0.41,0.919,-0.108,0.379,0.943,-0.238,0.234,0.841,0.263,0.473,0.933,-0.028,0.358,0.658,-0.253,0.709,0.934,0.007,0.356,0.472,-0.236,0.849,0.155,0.887,0.434,-0.281,0.655,0.702,scissors
5.438619,-0.132,0.814,0.565,0.513,0.607,0.607,0.77,-0.566,-0.295,0.714,-0.565,0.414,0.959,0.0,0.282,0.942,-0.237,0.239,0.816,0.408,0.408,0.934,-0.036,0.355,0.542,-0.217,0.812,0.939,-0.005,0.344,0.342,-0.147,0.928,0.164,0.886,0.433,-0.342,0.587,0.734,scissors
5.438748,-0.125,0.815,0.565,0.451,0.551,0.702,0.692,-0.651,-0.313,0.714,-0.562,0.417,0.954,0.0,0.298,0.943,-0.233,0.239,0.816,0.408,0.408,0.932,-0.029,0.362,0.526,-0.234,0.818,0.936,0.002,0.352,0.298,-0.149,0.943,0.16,0.885,0.437,-0.366,0.575,0.732,scissors
5.438871,-0.136,0.799,0.585,0.491,0.552,0.674,0.692,-0.651,-0.313,0.727,-0.557,0.401,0.964,0.148,0.222,0.949,-0.224,0.222,0.707,0.566,0.424,0.926,-0.011,0.377,0.436,-0.218,0.873,0.93,0.016,0.368,0.173,-0.115,0.978,0.138,0.887,0.44,-0.485,0.485,0.728,scissors
5.438991,-0.136,0.794,0.593,0.574,0.503,0.646,0.768,-0.597,-0.231,0.737,-0.547,0.396,0.953,0.286,-0.095,0.953,-0.209,0.218,0.588,0.784,0.196,0.923,-0.012,0.386,0.196,-0.0,0.981,0.925,0.016,0.38,-0.132,0.066,0.989,0.127,0.884,0.45,-0.758,0.379,0.531,scissors
5.439112,-0.096,0.812,0.576,0.53,-0.662,0.53,0.734,-0.597,-0.323,0.731,-0.538,0.42,0.609,0.508,-0.609,0.948,-0.203,0.243,0.0,0.992,-0.124,0.921,-0.038,0.387,-0.265,0.265,0.927,0.927,-0.016,0.376,-0.493,0.211,0.844,0.153,0.874,0.462,-0.97,0.0,0.243,scissors
5.439935,-0.088,0.83,0.55,0.0,-0.707,0.707,0.734,-0.597,-0.323,0.713,-0.541,0.446,0.402,0.241,-0.884,0.937,-0.218,0.275,0.0,0.581,-0.814,0.927,-0.077,0.366,-0.207,0.83,0.518,0.932,-0.041,0.359,-0.612,0.501,0.612,0.184,0.867,0.463,-0.972,0.194,-0.13,scissors
5.440064,-0.079,0.837,0.542,-0.527,-0.422,0.738,0.73,-0.6,-0.327,0.706,-0.541,0.456,0.22,-0.275,-0.936,0.933,-0.221,0.285,0.14,-0.14,-0.98,0.93,-0.095,0.356,0.062,0.998,0.0,0.937,-0.068,0.342,-0.43,0.816,0.387,0.199,0.863,0.463,-0.801,0.4,-0.445,scissors
5.440188,-0.067,0.827,0.558,-0.814,-0.153,0.56,0.73,-0.6,-0.327,0.701,-0.543,0.463,0.552,-0.245,-0.797,0.929,-0.223,0.294,0.573,0.0,-0.819,0.931,-0.104,0.351,0.338,0.878,0.338,0.937,-0.089,0.339,-0.101,0.704,0.704,0.205,0.86,0.467,-0.837,0.523,-0.157,scissors
5.459219,-0.08,0.844,0.53,-0.079,0.315,0.946,0.739,-0.612,-0.281,0.695,-0.542,0.473,0.725,-0.242,-0.645,0.925,-0.226,0.307,0.762,0.127,-0.635,0.931,-0.11,0.347,0.422,0.738,0.527,0.937,-0.085,0.34,-0.067,0.599,0.798,0.218,0.856,0.469,-0.8,0.6,-0.0,scissors
5.498866,-0.055,0.852,0.52,-0.079,0.315,0.946,0.689,-0.658,-0.305,0.672,-0.555,0.49,0.923,-0.385,-0.0,0.911,-0.254,0.326,0.98,0.089,0.178,0.938,-0.151,0.312,0.807,0.073,0.587,0.946,-0.133,0.296,0.465,0.199,0.863,0.256,0.854,0.452,-0.439,0.816,0.376,scissors
5.946704,-0.061,0.849,0.525,-0.035,0.773,0.633,0.681,-0.665,-0.305,0.677,-0.55,0.489,0.813,-0.529,0.244,0.914,-0.244,0.325,0.96,-0.125,0.25,0.934,-0.145,0.325,0.887,-0.0,0.463,0.944,-0.12,0.306,0.76,0.076,0.646,0.245,0.853,0.46,-0.177,0.887,0.426,scissors
5.946846,-0.074,0.817,0.572,-0.135,0.673,0.727,0.73,-0.645,-0.226,0.713,-0.526,0.464,0.84,-0.529,0.124,0.933,-0.204,0.297,0.986,-0.132,0.099,0.921,-0.092,0.379,0.875,0.125,0.469,0.928,-0.072,0.364,0.74,0.185,0.647,0.188,0.855,0.483,-0.252,0.897,0.364,scissors
5.946983,-0.079,0.809,0.583,-0.09,0.658,0.748,0.73,-0.645,-0.226,0.727,-0.524,0.444,0.853,-0.506,0.126,0.942,-0.195,0.274,0.99,-0.099,0.099,0.919,-0.079,0.387,0.862,0.123,0.492,0.925,-0.058,0.375,0.714,0.155,0.683,0.168,0.862,0.479,-0.259,0.891,0.374,scissors
5.947109,-0.083,0.817,0.571,-0.088,0.643,0.76,0.73,-0.645,-0.226,0.723,-0.531,0.441,0.84,-0.529,0.124,0.941,-0.202,0.27,0.987,-0.127,0.096,0.921,-0.061,0.385,0.869,0.12,0.48,0.927,-0.045,0.372,0.757,0.151,0.636,0.168,0.865,0.472,-0.252,0.897,0.364,scissors
5.947242,-0.084,0.818,0.57,-0.155,0.683,0.714,0.73,-0.645,-0.226,0.722,-0.534,0.441,0.823,-0.56,0.099,0.942,-0.203,0.269,0.983,-0.17,0.068,0.922,-0.064,0.381,0.88,0.13,0.456,0.927,-0.047,0.372,0.769,0.192,0.609,0.172,0.865,0.471,-0.243,0.911,0.334,scissors
5.947381,-0.079,0.817,0.571,-0.127,0.732,0.669,0.649,-0.673,-0.355,0.719,-0.534,0.445,0.8,-0.566,0.2,0.939,-0.207,0.274,0.963,-0.206,0.172,0.925,-0.083,0.371,0.907,0.032,0.421,0.93,-0.065,0.362,0.793,0.132,0.595,0.179,0.864,0.47,-0.155,0.928,0.34,scissors
5.947505,-0.069,0.82,0.568,-0.114,0.77,0.628,0.695,-0.65,-0.307,0.726,-0.521,0.45,0.782,-0.594,0.188,0.942,-0.19,0.278,0.958,-0.256,0.128,0.917,-0.079,0.39,0.916,0.061,0.397,0.924,-0.061,0.377,0.822,0.152,0.548,0.172,0.857,0.485,-0.142,0.939,0.313,scissors
5.948505,-0.065,0.81,0.582,-0.174,0.725,0.667,0.667,-0.679,-0.307,0.732,-0.512,0.45,0.793,-0.595,0.132,0.943,-0.184,0.278,0.974,-0.202,0.101,0.914,-0.082,0.397,0.903,0.097,0.419,0.919,-0.06,0.389,0.784,0.196,0.588,0.164,0.855,0.491,-0.179,0.927,0.329,scissors
5.948631,-0.058,0.824,0.563,-0.181,0.665,0.725,0.667,-0.679,-0.307,0.725,-0.514,0.458,0.81,-0.583,0.065,0.939,-0.188,0.287,0.979,-0.202,0.034,0.916,-0.095,0.389,0.878,0.188,0.439,0.923,-0.074,0.377,0.745,0.259,0.615,0.179,0.853,0.491,-0.259,0.922,0.288,scissors
5.948754,-0.055,0.83,0.555,-0.234,0.642,0.73,0.641,-0.718,-0.271,0.714,-0.522,0.467,0.791,-0.609,0.061,0.934,-0.2,0.297,0.968,-0.25,0.0,0.921,-0.104,0.375,0.887,0.207,0.414,0.928,-0.089,0.362,0.765,0.276,0.582,0.196,0.851,0.487,-0.248,0.937,0.248,scissors
5.961306,-0.067,0.833,0.549,-0.234,0.642,0.73,0.642,-0.692,-0.329,0.709,-0.528,0.467,0.728,-0.67,0.146,0.931,-0.208,0.3,0.939,-0.333,0.091,0.925,-0.109,0.365,0.948,0.118,0.296,0.931,-0.092,0.354,0.84,0.218,0.498,0.202,0.854,0.479,-0.134,0.961,0.24,scissors
6.006184,-0.042,0.832,0.553,-0.234,0.794,0.561,0.632,-0.689,-0.355,0.716,-0.518,0.468,0.671,-0.721,0.174,0.932,-0.198,0.302,0.922,-0.374,0.1,0.92,-0.121,0.374,0.961,0.123,0.246,0.928,-0.106,0.357,0.881,0.201,0.428,0.201,0.848,0.49,-0.068,0.977,0.204,scissors
6.457473,-0.027,0.821,0.571,-0.348,0.757,0.553,0.634,-0.718,-0.287,0.727,-0.496,0.476,0.652,-0.742,0.157,0.937,-0.169,0.307,0.91,-0.409,0.068,0.908,-0.112,0.403,0.962,0.131,0.24,0.917,-0.099,0.386,0.897,0.224,0.381,0.186,0.837,0.514,-0.064,0.983,0.171,scissors
6.457612,-0.031,0.836,0.547,-0.316,0.759,0.569,0.634,-0.718,-0.287,0.712,-0.504,0.489,0.652,-0.742,0.157,0.928,-0.185,0.322,0.91,-0.409,0.068,0.914,-0.133,0.384,0.962,0.131,0.24,0.922,-0.113,0.371,0.884,0.227,0.408,0.209,0.836,0.507,-0.064,0.979,0.192,scissors
6.457755,-0.039,0.85,0.525,-0.243,0.771,0.588,0.557,-0.751,-0.353,0.694,-0.527,0.491,0.676,-0.715,0.179,0.919,-0.217,0.328,0.928,-0.363,0.081,0.927,-0.152,0.344,0.957,0.115,0.268,0.935,-0.134,0.328,0.888,0.197,0.415,0.235,0.846,0.479,-0.056,0.973,0.225,scissors
6.457881,-0.063,0.827,0.559,-0.291,0.76,0.582,0.557,-0.751,-0.353,0.72,-0.531,0.447,0.64,-0.741,0.202,0.94,-0.205,0.274,0.906,-0.41,0.103,0.925,-0.088,0.37,0.973,0.082,0.214,0.928,-0.074,0.364,0.926,0.168,0.337,0.179,0.864,0.471,0.016,0.978,0.208,scissors
6.458005,-0.1,0.775,0.623,-0.299,0.808,0.508,0.66,-0.697,-0.281,0.757,-0.515,0.402,0.619,-0.762,0.19,0.959,-0.174,0.225,0.895,-0.431,0.116,0.91,-0.029,0.413,0.977,0.095,0.189,0.913,-0.013,0.407,0.936,0.164,0.312,0.112,0.872,0.476,0.031,0.985,0.172,scissors
6.458134,-0.073,0.777,0.625,-0.299,0.808,0.508,0.568,-0.745,-0.349,0.767,-0.495,0.407,0.651,-0.754,0.086,0.961,-0.151,0.232,0.905,-0.426,0.0,0.899,-0.024,0.438,0.948,0.2,0.249,0.901,-0.007,0.433,0.912,0.282,0.298,0.108,0.861,0.497,-0.067,0.989,0.134,scissors
6.458261,-0.076,0.802,0.593,-0.453,0.671,0.587,0.612,-0.731,-0.302,0.747,-0.515,0.42,0.653,-0.756,-0.034,0.952,-0.182,0.245,0.88,-0.466,-0.086,0.913,-0.048,0.404,0.941,0.276,0.195,0.919,-0.04,0.391,0.895,0.345,0.283,0.137,0.87,0.473,-0.098,0.994,0.049,scissors
6.459304,-0.11,0.779,0.617,-0.399,0.707,0.584,0.593,-0.726,-0.348,0.751,-0.535,0.386,0.671,-0.738,0.067,0.958,-0.197,0.209,0.907,-0.42,0.0,0.918,-0.008,0.397,0.959,0.176,0.224,0.916,0.015,0.401,0.908,0.243,0.341,0.109,0.887,0.448,-0.048,0.988,0.143,scissors
6.459454,-0.117,0.747,0.655,-0.267,0.769,0.581,0.584,-0.746,-0.321,0.77,-0.53,0.356,0.677,-0.725,0.126,0.967,-0.186,0.176,0.918,-0.396,0.032,0.914,0.007,0.406,0.958,0.152,0.243,0.912,0.024,0.409,0.907,0.219,0.36,0.081,0.893,0.442,-0.045,0.983,0.179,scissors
6.45958,-0.108,0.736,0.669,-0.313,0.739,0.597,0.584,-0.746,-0.321,0.791,-0.506,0.344,0.677,-0.721,0.147,0.974,-0.156,0.162,0.921,-0.386,0.045,0.897,0.029,0.441,0.96,0.131,0.247,0.896,0.039,0.442,0.91,0.209,0.358,0.047,0.885,0.464,-0.028,0.98,0.199,scissors
6.474905,-0.112,0.714,0.691,-0.316,0.721,0.616,0.547,-0.76,-0.351,0.81,-0.485,0.33,0.685,-0.715,0.137,0.982,-0.122,0.146,0.923,-0.384,0.031,0.881,0.053,0.47,0.954,0.151,0.258,0.877,0.066,0.476,0.89,0.234,0.39,0.014,0.878,0.479,-0.059,0.979,0.193,scissors
6.512769,-0.118,0.719,0.685,-0.301,0.698,0.65,0.547,-0.76,-0.351,0.807,-0.495,0.323,0.689,-0.722,0.066,0.981,-0.135,0.14,0.938,-0.341,-0.068,0.889,0.046,0.456,0.928,0.192,0.32,0.884,0.064,0.464,0.86,0.26,0.438,0.021,0.883,0.469,-0.125,0.968,0.219,scissors
6.966726,-0.125,0.721,0.682,-0.308,0.6,0.738,0.547,-0.76,-0.351,0.801,-0.508,0.316,0.753,-0.657,0.016,0.98,-0.148,0.134,0.963,-0.249,-0.1,0.895,0.053,0.443,0.892,0.261,0.369,0.89,0.067,0.451,0.816,0.314,0.486,0.022,0.893,0.45,-0.215,0.953,0.215,scissors
6.966863,-0.143,0.711,0.688,-0.308,0.6,0.738,0.534,-0.744,-0.401,0.803,-0.513,0.302,0.768,-0.64,0.0,0.981,-0.152,0.12,0.955,-0.28,-0.099,0.888,0.087,0.452,0.895,0.247,0.371,0.887,0.089,0.454,0.822,0.316,0.474,0.012,0.899,0.438,-0.213,0.957,0.197,scissors
6.966997,-0.14,0.708,0.692,-0.284,0.678,0.678,0.515,-0.759,-0.399,0.797,-0.525,0.297,0.752,-0.654,0.082,0.979,-0.168,0.115,0.95,-0.311,-0.016,0.901,0.072,0.427,0.918,0.19,0.348,0.894,0.082,0.441,0.858,0.243,0.453,0.02,0.905,0.426,-0.125,0.968,0.219,scissors
6.967121,-0.131,0.723,0.678,-0.246,0.737,0.63,0.494,-0.789,-0.364,0.791,-0.523,0.317,0.74,-0.646,0.189,0.976,-0.171,0.137,0.941,-0.329,0.078,0.903,0.054,0.427,0.944,0.076,0.32,0.898,0.064,0.435,0.898,0.139,0.418,0.04,0.9,0.435,-0.031,0.961,0.275,scissors
6.967242,-0.1,0.746,0.658,-0.246,0.737,0.63,0.518,-0.743,-0.424,0.784,-0.515,0.347,0.734,-0.633,0.245,0.971,-0.169,0.168,0.943,-0.305,0.131,0.909,0.0,0.416,0.941,0.042,0.337,0.91,0.013,0.415,0.913,0.112,0.393,0.071,0.891,0.448,-0.014,0.953,0.304,scissors
6.967372,-0.072,0.746,0.662,-0.165,0.764,0.623,0.461,-0.821,-0.336,0.787,-0.502,0.359,0.742,-0.618,0.26,0.971,-0.158,0.179,0.952,-0.269,0.146,0.907,-0.019,0.421,0.933,0.024,0.359,0.907,-0.007,0.42,0.894,0.086,0.441,0.072,0.883,0.463,-0.012,0.94,0.341,scissors
6.967495,-0.093,0.723,0.684,-0.154,0.748,0.646,0.476,-0.784,-0.398,0.8,-0.492,0.343,0.756,-0.605,0.249,0.977,-0.141,0.161,0.96,-0.248,0.129,0.898,0.016,0.44,0.925,0.042,0.378,0.896,0.031,0.444,0.881,0.097,0.462,0.042,0.884,0.466,-0.021,0.937,0.348,scissors
6.968525,-0.116,0.719,0.685,-0.129,0.735,0.666,0.437,-0.798,-0.415,0.8,-0.505,0.324,0.786,-0.572,0.235,0.978,-0.152,0.139,0.974,-0.203,0.101,0.902,0.037,0.43,0.904,0.059,0.423,0.9,0.053,0.432,0.864,0.101,0.493,0.032,0.896,0.442,-0.068,0.926,0.371,scissors
6.968653,-0.144,0.714,0.686,-0.139,0.705,0.696,0.401,-0.817,-0.414,0.795,-0.524,0.304,0.795,-0.558,0.237,0.978,-0.173,0.121,0.975,-0.197,0.103,0.908,0.062,0.414,0.9,0.055,0.432,0.901,0.077,0.428,0.862,0.083,0.5,0.025,0.907,0.421,-0.055,0.922,0.383,scissors
6.968777,-0.134,0.726,0.674,-0.079,0.743,0.664,0.359,-0.832,-0.423,0.792,-0.526,0.31,0.8,-0.533,0.276,0.976,-0.177,0.124,0.973,-0.18,0.144,0.911,0.061,0.409,0.898,0.018,0.44,0.903,0.078,0.422,0.861,0.045,0.507,0.032,0.906,0.422,-0.035,0.909,0.415,scissors
6.982876,-0.133,0.747,0.651,-0.025,0.752,0.659,0.359,-0.832,-0.423,0.783,-0.531,0.323,0.808,-0.492,0.325,0.973,-0.187,0.132,0.969,-0.171,0.18,0.916,0.046,0.399,0.887,-0.035,0.461,0.909,0.069,0.41,0.85,-0.018,0.526,0.049,0.908,0.416,0.009,0.893,0.451,scissors
7.028198,-0.14,0.752,0.644,0.0,0.737,0.675,0.266,-0.859,-0.438,0.771,-0.547,0.327,0.824,-0.457,0.335,0.969,-0.205,0.136,0.968,-0.174,0.182,0.926,0.037,0.375,0.871,-0.049,0.489,0.924,0.054,0.38,0.839,-0.033,0.543,0.064,0.915,0.398,0.008,0.89,0.457,scissors
7.067586,-0.159,0.731,0.664,-0.023,0.736,0.676,0.266,-0.859,-0.438,0.776,-0.55,0.311,0.818,-0.471,0.332,0.972,-0.203,0.116,0.972,-0.166,0.166,0.925,0.065,0.374,0.877,-0.03,0.48,0.918,0.081,0.387,0.846,-0.015,0.533,0.037,0.921,0.388,-0.008,0.893,0.45,scissors
7.473673,-0.177,0.702,0.69,-0.014,0.749,0.663,0.203,-0.87,-0.45,0.792,-0.545,0.274,0.797,-0.492,0.35,0.979,-0.189,0.074,0.97,-0.147,0.191,0.913,0.109,0.394,0.885,-0.044,0.464,0.904,0.123,0.409,0.856,-0.03,0.516,-0.003,0.924,0.382,0.0,0.884,0.468,scissors
7.47646,-0.182,0.689,0.701,-0.028,0.764,0.644,0.203,-0.87,-0.45,0.8,-0.54,0.261,0.788,-0.493,0.368,0.982,-0.181,0.058,0.968,-0.138,0.211,0.907,0.121,0.402,0.885,-0.065,0.461,0.897,0.138,0.42,0.859,-0.044,0.51,-0.022,0.924,0.383,0.014,0.876,0.481,scissors
7.476599,-0.168,0.695,0.7,-0.028,0.763,0.645,0.172,-0.881,-0.44,0.807,-0.526,0.267,0.79,-0.5,0.355,0.984,-0.167,0.065,0.971,-0.137,0.194,0.9,0.119,0.418,0.883,-0.049,0.466,0.895,0.131,0.427,0.857,-0.021,0.514,-0.027,0.918,0.395,-0.0,0.881,0.472,scissors
7.476722,-0.161,0.701,0.694,-0.042,0.713,0.699,0.12,-0.903,-0.413,0.806,-0.526,0.27,0.816,-0.484,0.318,0.983,-0.168,0.068,0.981,-0.115,0.158,0.902,0.113,0.416,0.872,-0.014,0.489,0.893,0.134,0.43,0.839,0.014,0.545,-0.021,0.918,0.396,-0.049,0.883,0.466,scissors
7.476853,-0.176,0.698,0.694,-0.028,0.71,0.703,0.095,-0.899,-0.427,0.805,-0.531,0.266,0.832,-0.466,0.301,0.983,-0.174,0.061,0.988,-0.078,0.135,0.905,0.117,0.408,0.858,0.0,0.513,0.899,0.133,0.417,0.821,0.021,0.571,-0.021,0.922,0.386,-0.077,0.873,0.482,scissors
7.476976,-0.195,0.693,0.694,-0.041,0.686,0.727,0.095,-0.899,-0.427,0.802,-0.544,0.247,0.84,-0.47,0.271,0.982,-0.182,0.041,0.99,-0.085,0.113,0.904,0.144,0.402,0.857,0.028,0.515,0.899,0.155,0.41,0.817,0.043,0.575,-0.032,0.931,0.365,-0.097,0.88,0.464,scissors
7.477101,-0.217,0.676,0.704,-0.069,0.688,0.722,0.008,-0.894,-0.448,0.797,-0.555,0.24,0.841,-0.456,0.292,0.98,-0.197,0.034,0.989,-0.078,0.127,0.906,0.16,0.391,0.852,0.007,0.524,0.894,0.173,0.413,0.802,0.021,0.598,-0.035,0.934,0.356,-0.083,0.869,0.487,scissors
7.477854,-0.229,0.695,0.681,-0.0,0.725,0.689,0.017,-0.887,-0.461,0.799,-0.556,0.229,0.825,-0.462,0.326,0.981,-0.19,0.026,0.982,-0.09,0.165,0.892,0.198,0.405,0.862,-0.03,0.505,0.879,0.208,0.429,0.82,-0.008,0.572,-0.051,0.931,0.36,-0.052,0.867,0.496,scissors
7.477987,-0.246,0.723,0.646,0.0,0.741,0.672,-0.067,-0.9,-0.431,0.778,-0.572,0.258,0.821,-0.44,0.364,0.975,-0.216,0.057,0.975,-0.067,0.21,0.912,0.155,0.379,0.854,-0.075,0.514,0.901,0.176,0.396,0.811,-0.059,0.583,-0.005,0.935,0.354,-0.033,0.85,0.525,scissors
7.488568,-0.203,0.754,0.625,-0.0,0.68,0.733,-0.112,-0.862,-0.495,0.759,-0.582,0.293,0.863,-0.432,0.261,0.967,-0.238,0.095,0.994,-0.036,0.099,0.928,0.104,0.358,0.831,0.052,0.554,0.924,0.125,0.361,0.789,0.062,0.612,0.046,0.935,0.351,-0.148,0.861,0.487,scissors
7.52653,-0.189,0.732,0.654,-0.062,0.655,0.753,-0.112,-0.862,-0.495,0.772,-0.559,0.301,0.859,-0.444,0.255,0.973,-0.209,0.102,0.994,-0.038,0.103,0.911,0.135,0.39,0.829,0.055,0.556,0.902,0.145,0.406,0.788,0.065,0.612,0.028,0.922,0.386,-0.138,0.863,0.486,scissors
7.57238,-0.175,0.764,0.621,0.051,0.769,0.637,-0.133,-0.863,-0.487,0.752,-0.567,0.337,0.775,-0.425,0.467,0.964,-0.224,0.143,0.936,-0.085,0.341,0.926,0.089,0.368,0.851,-0.185,0.492,0.913,0.102,0.395,0.823,-0.179,0.538,0.078,0.915,0.395,0.084,0.819,0.567,scissors
7.991508,-0.152,0.815,0.559,0.051,0.769,0.637,-0.157,-0.861,-0.483,0.714,-0.578,0.395,0.711,-0.383,0.59,0.942,-0.259,0.211,0.881,-0.076,0.468,0.947,-0.025,0.321,0.824,-0.334,0.459,0.947,-0.004,0.32,0.806,-0.316,0.501,0.163,0.906,0.391,0.184,0.767,0.615,scissors
7.991645,-0.105,0.829,0.55,0.139,0.833,0.536,-0.103,-0.872,-0.478,0.717,-0.553,0.424,0.758,-0.435,0.485,0.942,-0.235,0.24,0.935,-0.081,0.346,0.939,-0.065,0.338,0.855,-0.204,0.476,0.943,-0.039,0.33,0.831,-0.17,0.53,0.169,0.89,0.424,0.079,0.822,0.564,scissors
7.991779,-0.098,0.794,0.6,0.139,0.833,0.536,-0.135,-0.863,-0.487,0.761,-0.514,0.396,0.808,-0.464,0.363,0.964,-0.171,0.204,0.972,-0.081,0.223,0.911,0.001,0.413,0.867,-0.069,0.493,0.911,0.024,0.411,0.83,-0.04,0.557,0.095,0.882,0.462,-0.03,0.858,0.513,scissors
7.991913,-0.116,0.765,0.633,0.047,0.694,0.718,-0.178,-0.871,-0.459,0.772,-0.508,0.382,0.841,-0.432,0.327,0.968,-0.162,0.191,0.979,-0.035,0.201,0.905,0.02,0.426,0.846,-0.045,0.53,0.902,0.035,0.43,0.798,-0.035,0.601,0.082,0.882,0.465,-0.08,0.847,0.526,scissors
7.992038,-0.105,0.821,0.561,0.047,0.694,0.718,-0.193,-0.842,-0.503,0.736,-0.534,0.416,0.848,-0.405,0.342,0.95,-0.208,0.232,0.977,-0.013,0.213,0.928,-0.043,0.37,0.83,-0.072,0.553,0.93,-0.023,0.368,0.787,-0.049,0.615,0.152,0.884,0.442,-0.086,0.831,0.55,scissors
7.992158,-0.089,0.842,0.532,-0.033,0.696,0.718,-0.193,-0.842,-0.503,0.702,-0.552,0.449,0.848,-0.448,0.283,0.931,-0.241,0.274,0.987,-0.059,0.153,0.941,-0.094,0.326,0.847,0.0,0.531,0.945,-0.071,0.321,0.797,0.034,0.603,0.205,0.88,0.429,-0.113,0.868,0.484,scissors
7.992277,-0.096,0.826,0.556,-0.051,0.701,0.711,-0.193,-0.842,-0.503,0.71,-0.548,0.443,0.842,-0.47,0.263,0.936,-0.235,0.263,0.988,-0.087,0.13,0.938,-0.073,0.339,0.86,0.032,0.51,0.941,-0.051,0.335,0.809,0.053,0.585,0.189,0.881,0.435,-0.105,0.881,0.461,scissors
7.993315,-0.108,0.825,0.554,-0.02,0.737,0.676,-0.193,-0.842,-0.503,0.709,-0.553,0.437,0.819,-0.474,0.323,0.936,-0.241,0.257,0.978,-0.097,0.183,0.941,-0.061,0.334,0.87,-0.031,0.493,0.941,-0.036,0.338,0.83,-0.011,0.557,0.187,0.885,0.426,-0.052,0.876,0.48,scissors
7.993452,-0.114,0.827,0.55,0.01,0.773,0.634,-0.248,-0.818,-0.519,0.706,-0.561,0.431,0.796,-0.482,0.367,0.935,-0.248,0.253,0.966,-0.125,0.228,0.943,-0.06,0.328,0.882,-0.071,0.466,0.946,-0.041,0.323,0.848,-0.041,0.528,0.188,0.889,0.417,-0.01,0.873,0.487,scissors
7.993574,-0.113,0.819,0.563,0.009,0.774,0.633,-0.249,-0.807,-0.536,0.718,-0.554,0.422,0.789,-0.493,0.365,0.941,-0.236,0.241,0.964,-0.138,0.226,0.939,-0.054,0.339,0.885,-0.067,0.462,0.942,-0.031,0.334,0.853,-0.039,0.52,0.169,0.891,0.421,0.0,0.879,0.478,scissors
8.01929,-0.12,0.8,0.587,-0.047,0.747,0.663,-0.27,-0.793,-0.547,0.736,-0.537,0.412,0.794,-0.506,0.337,0.951,-0.21,0.228,0.972,-0.129,0.198,0.928,-0.021,0.372,0.886,-0.039,0.462,0.927,0.004,0.374,0.85,-0.01,0.527,0.137,0.887,0.44,-0.019,0.88,0.474,scissors
8.063403,-0.116,0.798,0.591,-0.047,0.747,0.663,-0.278,-0.765,-0.582,0.744,-0.531,0.406,0.816,-0.477,0.328,0.955,-0.198,0.22,0.972,-0.105,0.209,0.924,-0.015,0.382,0.872,-0.051,0.487,0.924,0.006,0.381,0.837,-0.021,0.547,0.13,0.886,0.444,-0.031,0.87,0.491,scissors
8.497148,-0.119,0.789,0.602,0.0,0.738,0.675,-0.28,-0.799,-0.532,0.754,-0.531,0.388,0.809,-0.477,0.344,0.961,-0.192,0.199,0.97,-0.099,0.221,0.919,0.012,0.394,0.875,-0.053,0.48,0.917,0.03,0.398,0.83,-0.033,0.557,0.104,0.891,0.442,-0.021,0.869,0.494,scissors
8.497299,-0.155,0.745,0.649,0.0,0.738,0.675,-0.332,-0.744,-0.58,0.78,-0.518,0.35,0.811,-0.487,0.324,0.973,-0.168,0.16,0.969,-0.124,0.211,0.903,0.058,0.426,0.881,-0.048,0.471,0.897,0.079,0.434,0.83,-0.012,0.558,0.052,0.895,0.442,-0.036,0.874,0.485,scissors
8.49746,-0.151,0.739,0.657,0.0,0.738,0.675,-0.332,-0.744,-0.58,0.792,-0.512,0.333,0.825,-0.477,0.304,0.978,-0.155,0.141,0.975,-0.1,0.201,0.893,0.081,0.442,0.87,-0.028,0.491,0.889,0.095,0.448,0.819,0.0,0.574,0.029,0.896,0.443,-0.071,0.875,0.48,scissors
8.497589,-0.153,0.735,0.66,-0.04,0.736,0.676,-0.312,-0.779,-0.544,0.797,-0.508,0.326,0.818,-0.502,0.279,0.979,-0.153,0.133,0.976,-0.113,0.188,0.89,0.089,0.447,0.876,-0.0,0.483,0.883,0.102,0.459,0.808,0.037,0.588,0.021,0.895,0.445,-0.091,0.887,0.453,scissors
8.497719,-0.152,0.742,0.653,-0.047,0.752,0.658,-0.312,-0.779,-0.544,0.794,-0.51,0.33,0.798,-0.549,0.249,0.978,-0.155,0.138,0.967,-0.153,0.204,0.891,0.083,0.446,0.899,-0.0,0.437,0.885,0.095,0.456,0.811,0.051,0.583,0.031,0.895,0.445,-0.096,0.909,0.406,scissors
8.497844,-0.131,0.742,0.658,-0.182,0.764,0.619,-0.312,-0.779,-0.544,0.794,-0.507,0.336,0.699,-0.699,0.147,0.977,-0.151,0.149,0.964,-0.222,0.148,0.893,0.061,0.446,0.929,0.066,0.365,0.891,0.071,0.449,0.792,0.172,0.586,0.039,0.892,0.45,-0.162,0.942,0.292,scissors
8.497964,-0.125,0.736,0.665,-0.343,0.643,0.685,-0.33,-0.727,-0.602,0.803,-0.493,0.333,0.648,-0.747,-0.149,0.98,-0.135,0.144,0.942,-0.332,-0.055,0.882,0.075,0.465,0.9,0.331,0.284,0.876,0.086,0.475,0.726,0.436,0.532,0.021,0.886,0.464,-0.355,0.931,0.089,scissors
8.498899,-0.14,0.731,0.668,-0.738,0.527,0.422,-0.33,-0.727,-0.602,0.796,-0.508,0.328,-0.0,-0.768,-0.64,0.978,-0.152,0.144,-0.316,-0.949,0.0,0.888,0.087,0.451,0.762,0.457,-0.457,0.881,0.097,0.464,0.236,0.943,0.236,0.03,0.894,0.448,-0.577,0.577,-0.577,scissors
8.499047,-0.167,0.758,0.631,-0.447,-0.0,-0.894,-0.328,-0.719,-0.612,0.775,-0.536,0.335,-0.745,-0.083,-0.662,0.969,-0.195,0.153,-0.941,-0.282,-0.188,0.912,0.048,0.408,-0.424,0.318,-0.848,0.91,0.066,0.41,-0.781,0.488,-0.39,0.066,0.906,0.419,-0.432,-0.259,-0.864,scissors
8.499173,-0.136,0.754,0.643,-0.625,-0.469,-0.625,-0.338,-0.729,-0.595,0.774,-0.532,0.344,-0.706,-0.059,-0.706,0.969,-0.188,0.161,-0.905,-0.302,-0.302,0.911,0.043,0.411,-0.512,0.384,-0.768,0.906,0.059,0.419,-0.694,0.568,-0.442,0.072,0.9,0.43,-0.302,-0.302,-0.905,scissors
8.516143,-0.141,0.763,0.631,-0.417,-0.476,-0.774,-0.333,-0.749,-0.573,0.768,-0.533,0.355,-0.866,0.108,-0.487,0.966,-0.191,0.173,-0.949,-0.3,-0.1,0.911,0.038,0.41,-0.588,0.107,-0.802,0.908,0.055,0.415,-0.781,0.279,-0.558,0.082,0.898,0.432,-0.114,-0.511,-0.852,scissors
8.560601,-0.142,0.78,0.61,-0.082,-0.412,-0.907,-0.331,-0.705,-0.627,0.756,-0.541,0.369,-0.892,0.297,-0.34,0.96,-0.204,0.19,-0.988,-0.152,0.038,0.919,0.017,0.393,-0.706,-0.042,-0.706,0.916,0.039,0.4,-0.807,0.09,-0.583,0.105,0.898,0.427,0.0,-0.73,-0.684,scissors
9.014573,-0.131,0.785,0.606,0.04,-0.398,-0.916,-0.331,-0.705,-0.627,0.749,-0.541,0.382,-0.854,0.407,-0.325,0.956,-0.214,0.202,-0.991,-0.073,0.11,0.926,-0.008,0.378,-0.698,-0.164,-0.698,0.923,0.015,0.383,-0.804,-0.042,-0.593,0.122,0.896,0.426,0.044,-0.789,-0.613,scissors
9.014712,-0.123,0.781,0.612,0.138,-0.368,-0.92,-0.331,-0.705,-0.627,0.757,-0.531,0.38,-0.869,0.391,-0.304,0.959,-0.198,0.2,-0.994,-0.079,0.079,0.918,-0.004,0.396,-0.722,-0.127,-0.68,0.917,0.018,0.398,-0.845,-0.0,-0.534,0.11,0.892,0.438,0.047,-0.793,-0.607,scissors
9.014837,-0.115,0.767,0.631,0.0,-0.565,-0.825,-0.331,-0.705,-0.627,0.765,-0.522,0.377,-0.854,0.407,-0.325,0.963,-0.185,0.195,-0.999,0.038,0.038,0.912,0.003,0.41,-0.802,-0.084,-0.591,0.911,0.022,0.412,-0.91,0.0,-0.414,0.098,0.89,0.444,-0.045,-0.81,-0.585,scissors
9.014962,-0.132,0.763,0.632,0.0,-0.727,-0.687,-0.288,-0.74,-0.607,0.766,-0.527,0.367,-0.804,0.421,-0.421,0.964,-0.188,0.188,-0.991,0.11,-0.073,0.915,0.011,0.404,-0.86,0.039,-0.508,0.911,0.033,0.412,-0.938,0.075,-0.338,0.092,0.895,0.437,-0.201,-0.803,-0.562,scissors
9.015084,-0.14,0.77,0.623,0.155,-0.736,-0.659,-0.288,-0.74,-0.607,0.759,-0.538,0.368,-0.788,0.488,-0.375,0.961,-0.203,0.188,-0.977,0.209,-0.035,0.92,0.008,0.393,-0.902,0.0,-0.431,0.916,0.03,0.399,-0.945,-0.0,-0.327,0.104,0.898,0.427,-0.189,-0.871,-0.454,scissors
9.015205,-0.144,0.777,0.613,0.155,-0.736,-0.659,-0.278,-0.748,-0.603,0.756,-0.54,0.369,-0.768,0.549,-0.329,0.96,-0.205,0.189,-0.955,0.296,-0.0,0.919,0.016,0.393,-0.92,-0.035,-0.389,0.917,0.035,0.396,-0.95,-0.098,-0.295,0.111,0.898,0.426,-0.18,-0.9,-0.396,scissors
9.015338,-0.138,0.776,0.615,0.296,-0.692,-0.659,-0.275,-0.758,-0.592,0.754,-0.544,0.368,-0.73,0.63,-0.265,0.959,-0.211,0.189,-0.948,0.316,0.032,0.923,0.008,0.386,-0.941,-0.097,-0.324,0.92,0.034,0.39,-0.977,-0.095,-0.189,0.11,0.901,0.42,-0.173,-0.934,-0.311,scissors
9.016451,-0.152,0.76,0.632,0.276,-0.765,-0.582,-0.292,-0.775,-0.56,0.773,-0.532,0.346,-0.673,0.642,-0.367,0.969,-0.186,0.165,-0.935,0.351,-0.058,0.909,0.044,0.414,-0.962,-0.03,-0.271,0.905,0.068,0.419,-0.99,-0.028,-0.141,0.069,0.901,0.428,-0.245,-0.92,-0.307,scissors
9.016579,-0.16,0.736,0.658,0.276,-0.765,-0.582,-0.292,-0.775,-0.56,0.787,-0.522,0.328,-0.658,0.658,-0.366,0.975,-0.17,0.145,-0.925,0.37,-0.092,0.898,0.078,0.434,-0.965,-0.047,-0.259,0.892,0.097,0.441,-0.987,-0.023,-0.161,0.04,0.901,0.431,-0.243,-0.925,-0.292,scissors
9.016703,-0.167,0.743,0.648,0.132,-0.813,-0.567,-0.292,-0.775,-0.56,0.784,-0.532,0.319,-0.659,0.62,-0.426,0.974,-0.18,0.136,-0.931,0.323,-0.171,0.905,0.071,0.419,-0.95,0.039,-0.31,0.901,0.091,0.425,-0.974,0.037,-0.225,0.044,0.907,0.418,-0.257,-0.89,-0.376,scissors
9.016825,-0.18,0.743,0.645,0.126,-0.831,-0.542,-0.279,-0.783,-0.556,0.787,-0.533,0.312,-0.64,0.59,-0.492,0.975,-0.181,0.129,-0.925,0.292,-0.243,0.903,0.087,0.421,-0.938,0.134,-0.318,0.899,0.105,0.425,-0.961,0.13,-0.244,0.033,0.909,0.415,-0.296,-0.854,-0.427,scissors
9.059796,-0.186,0.736,0.651,0.126,-0.831,-0.542,-0.268,-0.778,-0.568,0.789,-0.533,0.307,-0.64,0.587,-0.496,0.976,-0.178,0.123,-0.912,0.308,-0.27,0.898,0.111,0.427,-0.939,0.159,-0.304,0.891,0.131,0.435,-0.96,0.141,-0.243,0.026,0.909,0.416,-0.299,-0.859,-0.416,scissors
9.098587,-0.184,0.75,0.635,0.093,-0.848,-0.522,-0.27,-0.811,-0.518,0.777,-0.543,0.319,-0.66,0.583,-0.473,0.972,-0.193,0.135,-0.922,0.3,-0.246,0.908,0.098,0.408,-0.943,0.122,-0.311,0.902,0.118,0.415,-0.956,0.109,-0.272,0.047,0.911,0.41,-0.262,-0.872,-0.414,scissors
9.51677,-0.183,0.772,0.609,0.104,-0.819,-0.565,-0.282,-0.806,-0.521,0.76,-0.558,0.335,-0.694,0.58,-0.428,0.965,-0.215,0.154,-0.929,0.31,-0.2,0.932,0.047,0.359,-0.942,0.069,-0.327,0.916,0.102,0.388,-0.947,0.067,-0.316,0.074,0.913,0.402,-0.206,-0.9,-0.384,scissors
9.516944,-0.177,0.787,0.591,0.131,-0.794,-0.593,-0.279,-0.841,-0.463,0.748,-0.564,0.35,-0.705,0.576,-0.413,0.957,-0.231,0.174,-0.94,0.285,-0.185,0.928,0.063,0.368,-0.936,0.062,-0.348,0.931,0.071,0.358,-0.939,0.044,-0.342,0.103,0.914,0.394,-0.18,-0.898,-0.402,scissors
9.517074,-0.162,0.808,0.567,0.105,-0.8,-0.59,-0.27,-0.834,-0.481,0.737,-0.566,0.369,-0.705,0.569,-0.424,0.951,-0.237,0.198,-0.944,0.244,-0.22,0.934,0.039,0.354,-0.928,0.081,-0.363,0.936,0.059,0.348,-0.93,0.073,-0.359,0.123,0.911,0.393,-0.177,-0.884,-0.434,scissors
9.517213,-0.164,0.8,0.577,0.054,-0.809,-0.585,-0.27,-0.834,-0.481,0.737,-0.571,0.362,-0.714,0.541,-0.444,0.952,-0.243,0.189,-0.944,0.223,-0.245,0.94,0.03,0.34,-0.919,0.106,-0.38,0.937,0.062,0.345,-0.928,0.092,-0.361,0.125,0.913,0.389,-0.183,-0.875,-0.449,scissors
9.517362,-0.184,0.795,0.578,0.029,-0.811,-0.584,-0.248,-0.861,-0.445,0.736,-0.577,0.354,-0.713,0.54,-0.447,0.953,-0.248,0.176,-0.947,0.192,-0.256,0.938,0.055,0.342,-0.912,0.115,-0.395,0.936,0.081,0.342,-0.923,0.1,-0.372,0.115,0.917,0.382,-0.18,-0.862,-0.474,scissors
9.517492,-0.189,0.796,0.576,0.034,-0.804,-0.593,-0.248,-0.861,-0.445,0.74,-0.578,0.344,-0.725,0.517,-0.456,0.955,-0.245,0.165,-0.95,0.173,-0.259,0.939,0.062,0.339,-0.899,0.127,-0.419,0.936,0.09,0.341,-0.912,0.12,-0.393,0.107,0.92,0.376,-0.174,-0.851,-0.496,scissors
9.517614,-0.19,0.791,0.581,0.006,-0.802,-0.597,-0.155,-0.895,-0.419,0.74,-0.581,0.339,-0.734,0.504,-0.454,0.955,-0.248,0.163,-0.953,0.16,-0.258,0.938,0.078,0.337,-0.894,0.13,-0.428,0.935,0.103,0.339,-0.903,0.125,-0.411,0.103,0.922,0.373,-0.162,-0.848,-0.505,scissors
9.518534,-0.187,0.808,0.559,0.006,-0.802,-0.597,-0.142,-0.892,-0.429,0.725,-0.59,0.354,-0.745,0.5,-0.442,0.948,-0.264,0.178,-0.955,0.16,-0.251,0.949,0.054,0.311,-0.892,0.115,-0.437,0.944,0.086,0.317,-0.9,0.11,-0.421,0.126,0.922,0.366,-0.15,-0.851,-0.504,scissors
9.518665,-0.183,0.828,0.53,0.011,-0.787,-0.617,-0.142,-0.909,-0.392,0.71,-0.599,0.37,-0.748,0.499,-0.438,0.94,-0.278,0.197,-0.957,0.158,-0.245,0.955,0.039,0.294,-0.892,0.111,-0.438,0.953,0.071,0.293,-0.899,0.105,-0.425,0.152,0.92,0.36,-0.138,-0.854,-0.501,scissors
9.523473,-0.171,0.847,0.504,0.021,-0.778,-0.628,-0.142,-0.909,-0.392,0.684,-0.612,0.396,-0.754,0.503,-0.423,0.924,-0.308,0.224,-0.96,0.164,-0.227,0.968,-0.007,0.25,-0.893,0.096,-0.439,0.969,0.023,0.247,-0.897,0.085,-0.433,0.204,0.917,0.343,-0.129,-0.86,-0.494,scissors
9.564668,-0.158,0.867,0.472,0.021,-0.778,-0.628,0.006,-0.923,-0.384,0.659,-0.628,0.413,-0.769,0.489,-0.412,0.909,-0.338,0.245,-0.966,0.14,-0.216,0.975,-0.048,0.215,-0.884,0.082,-0.461,0.977,-0.014,0.212,-0.887,0.082,-0.454,0.238,0.915,0.326,-0.104,-0.857,-0.505,scissors
9.60765,-0.182,0.833,0.522,-0.011,-0.746,-0.666,0.037,-0.923,-0.382,0.675,-0.624,0.393,-0.795,0.454,-0.403,0.921,-0.322,0.219,-0.973,0.106,-0.207,0.969,0.001,0.247,-0.865,0.081,-0.496,0.97,0.021,0.242,-0.869,0.085,-0.488,0.199,0.922,0.333,-0.074,-0.844,-0.531,scissors
10.02685,-0.2,0.81,0.551,-0.011,-0.716,-0.698,0.037,-0.923,-0.382,0.695,-0.618,0.367,-0.813,0.449,-0.37,0.932,-0.308,0.193,-0.981,0.095,-0.167,0.965,0.023,0.26,-0.858,0.04,-0.512,0.962,0.055,0.267,-0.862,0.045,-0.505,0.168,0.927,0.335,-0.04,-0.854,-0.518,scissors
10.027002,-0.186,0.829,0.528,0.006,-0.699,-0.716,0.037,-0.923,-0.382,0.684,-0.618,0.388,-0.815,0.451,-0.364,0.924,-0.315,0.216,-0.981,0.091,-0.17,0.968,-0.022,0.25,-0.86,0.046,-0.508,0.968,0.018,0.249,-0.862,0.052,-0.504,0.198,0.921,0.335,-0.041,-0.852,-0.522,scissors
10.02713,-0.135,0.852,0.506,-0.013,-0.726,-0.688,0.165,-0.925,-0.342,0.669,-0.618,0.413,-0.807,0.447,-0.385,0.913,-0.327,0.244,-0.978,0.085,-0.188,0.969,-0.057,0.242,-0.859,0.069,-0.508,0.974,-0.037,0.226,-0.864,0.075,-0.497,0.232,0.912,0.338,-0.056,-0.842,-0.536,scissors
10.027256,-0.152,0.83,0.538,-0.028,-0.689,-0.724,0.239,-0.919,-0.314,0.683,-0.616,0.391,-0.825,0.416,-0.382,0.923,-0.316,0.22,-0.982,0.053,-0.18,0.968,-0.036,0.249,-0.84,0.055,-0.54,0.967,-0.0,0.256,-0.848,0.068,-0.526,0.202,0.92,0.336,-0.028,-0.834,-0.551,scissors
10.027391,-0.169,0.798,0.579,-0.028,-0.689,-0.724,0.283,-0.888,-0.362,0.705,-0.606,0.369,-0.863,0.398,-0.31,0.934,-0.299,0.195,-0.995,0.022,-0.101,0.963,-0.026,0.269,-0.818,-0.015,-0.575,0.959,0.003,0.285,-0.822,-0.0,-0.57,0.173,0.923,0.345,0.052,-0.837,-0.545,scissors
10.027513,-0.123,0.796,0.592,-0.008,-0.551,-0.835,0.349,-0.884,-0.311,0.732,-0.571,0.371,-0.899,0.355,-0.256,0.947,-0.253,0.199,-0.998,-0.04,-0.048,0.944,-0.029,0.328,-0.772,-0.075,-0.631,0.945,-0.01,0.326,-0.781,-0.042,-0.623,0.15,0.911,0.383,0.125,-0.819,-0.56,scissors
10.027635,-0.117,0.733,0.671,-0.048,-0.536,-0.843,0.341,-0.87,-0.356,0.775,-0.531,0.344,-0.92,0.3,-0.253,0.967,-0.193,0.168,-0.996,-0.082,-0.046,0.921,-0.002,0.39,-0.742,-0.075,-0.667,0.92,0.02,0.392,-0.761,-0.038,-0.647,0.082,0.904,0.419,0.144,-0.789,-0.597,scissors
10.028678,-0.144,0.692,0.707,-0.115,-0.608,-0.786,0.433,-0.833,-0.344,0.814,-0.5,0.297,-0.892,0.304,-0.334,0.983,-0.142,0.116,-0.989,-0.079,-0.129,0.892,0.069,0.446,-0.761,0.01,-0.649,0.886,0.094,0.454,-0.779,0.051,-0.625,0.0,0.899,0.437,0.062,-0.77,-0.635,scissors
10.028806,-0.19,0.684,0.704,-0.058,-0.701,-0.711,0.433,-0.833,-0.344,0.822,-0.502,0.269,-0.823,0.411,-0.392,0.986,-0.138,0.089,-0.982,0.028,-0.189,0.887,0.118,0.447,-0.839,0.058,-0.54,0.872,0.151,0.466,-0.852,0.077,-0.517,-0.028,0.905,0.425,-0.048,-0.816,-0.576,scissors
10.028937,-0.183,0.742,0.645,0.036,-0.782,-0.622,0.415,-0.827,-0.379,0.787,-0.54,0.298,-0.755,0.494,-0.431,0.974,-0.192,0.119,-0.967,0.125,-0.224,0.918,0.07,0.391,-0.891,0.093,-0.445,0.91,0.1,0.403,-0.898,0.109,-0.426,0.042,0.918,0.394,-0.135,-0.847,-0.514,scissors
10.066254,-0.112,0.775,0.622,0.032,-0.806,-0.591,0.511,-0.775,-0.373,0.762,-0.549,0.343,-0.729,0.512,-0.453,0.962,-0.219,0.166,-0.952,0.185,-0.243,0.933,-0.004,0.36,-0.9,0.132,-0.415,0.93,0.02,0.366,-0.918,0.128,-0.375,0.105,0.912,0.396,-0.18,-0.852,-0.491,scissors
10.104108,-0.111,0.752,0.65,-0.023,-0.793,-0.609,0.511,-0.775,-0.373,0.771,-0.538,0.342,-0.749,0.495,-0.44,0.965,-0.204,0.163,-0.963,0.162,-0.216,0.925,0.012,0.38,-0.894,0.101,-0.436,0.918,0.033,0.395,-0.913,0.099,-0.396,0.088,0.908,0.41,-0.157,-0.855,-0.495,scissors
10.536713,-0.147,0.727,0.67,0.048,-0.758,-0.65,0.529,-0.777,-0.34,0.8,-0.52,0.3,-0.738,0.512,-0.44,0.978,-0.17,0.118,-0.962,0.176,-0.211,0.905,0.071,0.42,-0.895,0.094,-0.436,0.899,0.095,0.428,-0.921,0.094,-0.378,0.026,0.91,0.414,-0.181,-0.857,-0.483,scissors
10.536855,-0.189,0.671,0.717,0.048,-0.758,-0.65,0.531,-0.757,-0.381,0.81,-0.531,0.249,-0.754,0.534,-0.383,0.983,-0.17,0.062,-0.967,0.202,-0.157,0.897,0.136,0.42,-0.903,0.035,-0.428,0.882,0.153,0.447,-0.918,0.035,-0.395,-0.024,0.921,0.388,-0.13,-0.884,-0.448,scissors
10.536982,-0.22,0.668,0.711,0.126,-0.654,-0.746,0.575,-0.751,-0.325,0.815,-0.539,0.21,-0.815,0.498,-0.294,0.984,-0.174,0.024,-0.982,0.183,-0.054,0.888,0.184,0.423,-0.876,-0.068,-0.478,0.87,0.2,0.45,-0.885,-0.069,-0.46,-0.056,0.929,0.365,-0.034,-0.905,-0.424,scissors
10.537105,-0.237,0.653,0.72,0.126,-0.654,-0.746,0.568,-0.748,-0.343,0.833,-0.518,0.195,-0.814,0.501,-0.292,0.989,-0.146,0.009,-0.983,0.17,-0.07,0.874,0.192,0.447,-0.88,-0.052,-0.472,0.858,0.213,0.467,-0.885,-0.042,-0.464,-0.085,0.921,0.38,-0.032,-0.896,-0.443,scissors
10.53723,-0.198,0.648,0.736,0.111,-0.747,-0.655,0.602,-0.71,-0.365,0.838,-0.502,0.212,-0.765,0.553,-0.332,0.991,-0.128,0.027,-0.973,0.198,-0.117,0.865,0.197,0.462,-0.91,-0.009,-0.414,0.846,0.22,0.485,-0.912,-0.019,-0.41,-0.083,0.912,0.401,-0.083,-0.902,-0.423,scissors
10.537358,-0.2,0.688,0.698,0.184,-0.752,-0.632,0.602,-0.699,-0.387,0.816,-0.533,0.226,-0.736,0.595,-0.322,0.985,-0.169,0.041,-0.965,0.235,-0.114,0.897,0.155,0.413,-0.93,-0.025,-0.366,0.882,0.182,0.435,-0.931,-0.042,-0.364,-0.04,0.927,0.373,-0.092,-0.919,-0.384,scissors
10.537482,-0.227,0.698,0.679,0.191,-0.73,-0.656,0.633,-0.689,-0.354,0.797,-0.561,0.225,-0.745,0.596,-0.298,0.978,-0.205,0.039,-0.966,0.243,-0.089,0.913,0.148,0.381,-0.926,-0.05,-0.375,0.901,0.171,0.399,-0.925,-0.058,-0.375,-0.018,0.939,0.343,-0.075,-0.927,-0.367,scissors
10.538608,-0.248,0.689,0.681,0.168,-0.73,-0.663,0.636,-0.67,-0.383,0.794,-0.567,0.22,-0.747,0.591,-0.304,0.977,-0.21,0.037,-0.966,0.241,-0.097,0.911,0.167,0.377,-0.926,-0.033,-0.375,0.895,0.197,0.4,-0.927,-0.05,-0.372,-0.022,0.941,0.338,-0.074,-0.925,-0.372,scissors
10.538742,-0.227,0.702,0.675,0.197,-0.732,-0.653,0.636,-0.67,-0.383,0.789,-0.57,0.232,-0.744,0.6,-0.296,0.975,-0.216,0.051,-0.962,0.258,-0.086,0.917,0.149,0.369,-0.931,-0.048,-0.361,0.903,0.179,0.391,-0.931,-0.064,-0.358,-0.004,0.941,0.339,-0.072,-0.933,-0.354,scissors
10.538869,-0.215,0.712,0.668,0.205,-0.719,-0.664,0.701,-0.632,-0.33,0.788,-0.568,0.24,-0.747,0.604,-0.278,0.975,-0.216,0.058,-0.965,0.255,-0.062,0.92,0.137,0.368,-0.928,-0.071,-0.365,0.908,0.161,0.386,-0.924,-0.087,-0.371,0.002,0.94,0.342,-0.056,-0.937,-0.344,scissors
10.574091,-0.214,0.699,0.683,0.211,-0.715,-0.666,0.727,-0.581,-0.365,0.79,-0.565,0.236,-0.745,0.606,-0.278,0.975,-0.213,0.057,-0.964,0.257,-0.064,0.92,0.124,0.372,-0.927,-0.081,-0.366,0.908,0.155,0.39,-0.925,-0.09,-0.368,0.0,0.939,0.344,-0.058,-0.935,-0.351,scissors
10.619525,-0.215,0.715,0.665,0.146,-0.761,-0.632,0.732,-0.604,-0.315,0.8,-0.548,0.246,-0.738,0.585,-0.337,0.98,-0.186,0.063,-0.962,0.237,-0.134,0.902,0.157,0.402,-0.928,-0.008,-0.373,0.893,0.176,0.414,-0.925,-0.016,-0.38,-0.014,0.929,0.371,-0.106,-0.911,-0.399,scissors
11.046739,-0.158,0.778,0.608,0.2,-0.734,-0.649,0.732,-0.604,-0.315,0.771,-0.553,0.317,-0.734,0.602,-0.316,0.968,-0.211,0.139,-0.963,0.246,-0.109,0.927,0.065,0.369,-0.93,-0.037,-0.366,0.923,0.088,0.375,-0.927,-0.052,-0.371,0.068,0.918,0.392,-0.082,-0.922,-0.379,scissors
11.046881,-0.108,0.836,0.539,0.052,-0.759,-0.649,0.72,-0.583,-0.376,0.733,-0.562,0.384,-0.749,0.515,-0.416,0.946,-0.246,0.212,-0.964,0.157,-0.217,0.946,-0.049,0.321,-0.896,0.084,-0.436,0.95,-0.018,0.311,-0.903,0.086,-0.42,0.169,0.907,0.385,-0.138,-0.851,-0.506,scissors
11.047018,-0.105,0.838,0.536,-0.213,-0.786,-0.581,0.769,-0.516,-0.378,0.716,-0.557,0.421,-0.734,0.427,-0.529,0.935,-0.248,0.252,-0.936,0.094,-0.34,0.945,-0.089,0.316,-0.854,0.222,-0.47,0.947,-0.053,0.318,-0.874,0.227,-0.428,0.19,0.892,0.409,-0.207,-0.784,-0.586,scissors
11.047142,-0.08,0.794,0.602,-0.282,-0.736,-0.615,0.754,-0.525,-0.394,0.756,-0.531,0.384,-0.761,0.324,-0.562,0.957,-0.202,0.209,-0.93,0.0,-0.367,0.929,-0.037,0.369,-0.79,0.267,-0.552,0.929,-0.027,0.369,-0.818,0.292,-0.496,0.132,0.892,0.432,-0.181,-0.714,-0.676,scissors
11.047267,-0.127,0.76,0.637,-0.34,-0.68,-0.65,0.756,-0.504,-0.418,0.767,-0.527,0.366,-0.803,0.235,-0.548,0.963,-0.192,0.19,-0.934,-0.087,-0.347,0.922,-0.002,0.387,-0.721,0.264,-0.64,0.915,0.027,0.403,-0.757,0.301,-0.581,0.097,0.897,0.432,-0.117,-0.692,-0.712,scissors
11.047406,-0.119,0.75,0.65,-0.34,-0.68,-0.65,0.746,-0.474,-0.468,0.768,-0.528,0.363,-0.812,0.331,-0.481,0.963,-0.193,0.19,-0.966,-0.01,-0.257,0.921,-0.007,0.389,-0.79,0.167,-0.59,0.912,0.03,0.408,-0.818,0.182,-0.545,0.097,0.898,0.429,-0.095,-0.769,-0.632,scissors
11.047526,-0.121,0.769,0.628,-0.129,-0.741,-0.659,0.785,-0.462,-0.414,0.776,-0.519,0.357,-0.797,0.348,-0.494,0.967,-0.181,0.182,-0.963,0.022,-0.27,0.916,0.006,0.402,-0.804,0.177,-0.568,0.912,0.036,0.408,-0.835,0.188,-0.517,0.092,0.897,0.433,-0.123,-0.771,-0.625,scissors
11.048686,-0.121,0.745,0.656,-0.198,-0.733,-0.651,0.806,-0.422,-0.414,0.771,-0.526,0.359,-0.792,0.402,-0.459,0.965,-0.187,0.183,-0.97,0.067,-0.234,0.916,0.017,0.401,-0.844,0.119,-0.523,0.906,0.052,0.421,-0.867,0.129,-0.481,0.088,0.898,0.432,-0.115,-0.808,-0.577,scissors
11.048822,-0.143,0.765,0.628,0.171,-0.697,-0.697,0.765,-0.431,-0.478,0.774,-0.527,0.351,-0.782,0.525,-0.335,0.967,-0.184,0.175,-0.979,0.172,-0.108,0.913,0.039,0.406,-0.894,-0.023,-0.447,0.909,0.061,0.413,-0.911,-0.022,-0.411,0.083,0.9,0.429,-0.067,-0.897,-0.437,scissors
11.048948,-0.137,0.777,0.614,0.11,-0.692,-0.714,0.765,-0.431,-0.478,0.764,-0.537,0.359,-0.801,0.509,-0.314,0.962,-0.202,0.182,-0.984,0.157,-0.084,0.924,0.01,0.383,-0.887,-0.033,-0.46,0.922,0.034,0.387,-0.894,-0.033,-0.447,0.104,0.903,0.417,-0.044,-0.894,-0.447,scissors
11.0813,-0.128,0.76,0.637,0.187,-0.683,-0.706,0.765,-0.431,-0.478,0.769,-0.528,0.361,-0.78,0.564,-0.271,0.965,-0.187,0.186,-0.975,0.22,-0.042,0.918,0.014,0.395,-0.908,-0.086,-0.411,0.912,0.046,0.407,-0.918,-0.096,-0.384,0.091,0.898,0.431,-0.033,-0.928,-0.371,scissors
11.127306,-0.13,0.746,0.653,0.191,-0.699,-0.689,0.81,-0.355,-0.467,0.788,-0.512,0.342,-0.766,0.579,-0.279,0.972,-0.165,0.167,-0.972,0.23,-0.05,0.907,0.036,0.42,-0.916,-0.073,-0.395,0.901,0.063,0.429,-0.923,-0.072,-0.379,0.06,0.896,0.439,-0.052,-0.929,-0.365,scissors
11.55673,-0.137,0.739,0.66,0.21,-0.711,-0.671,0.81,-0.355,-0.467,0.797,-0.504,0.333,-0.752,0.596,-0.283,0.976,-0.154,0.155,-0.962,0.264,-0.066,0.9,0.057,0.431,-0.927,-0.059,-0.371,0.895,0.082,0.437,-0.93,-0.078,-0.359,0.046,0.896,0.442,-0.079,-0.935,-0.345,scissors
11.556881,-0.135,0.749,0.649,0.21,-0.711,-0.671,0.799,-0.374,-0.471,0.787,-0.517,0.336,-0.749,0.594,-0.292,0.973,-0.171,0.158,-0.963,0.256,-0.08,0.909,0.057,0.413,-0.927,-0.045,-0.373,0.903,0.079,0.421,-0.93,-0.063,-0.361,0.059,0.9,0.431,-0.073,-0.932,-0.356,scissors
11.55702,-0.158,0.785,0.599,0.187,-0.716,-0.673,0.799,-0.374,-0.471,0.76,-0.547,0.352,-0.755,0.592,-0.283,0.961,-0.212,0.176,-0.968,0.242,-0.067,0.929,0.028,0.369,-0.923,-0.06,-0.38,0.926,0.057,0.374,-0.923,-0.077,-0.376,0.105,0.909,0.404,-0.06,-0.93,-0.362,scissors
11.557144,-0.164,0.798,0.58,0.187,-0.716,-0.673,0.804,-0.335,-0.492,0.74,-0.566,0.364,-0.755,0.585,-0.297,0.951,-0.241,0.192,-0.969,0.232,-0.083,0.941,0.01,0.337,-0.922,-0.043,-0.384,0.939,0.038,0.341,-0.921,-0.06,-0.384,0.133,0.913,0.386,-0.068,-0.924,-0.376,scissors
11.557267,-0.153,0.8,0.58,0.173,-0.709,-0.683,0.796,-0.323,-0.512,0.73,-0.57,0.377,-0.764,0.575,-0.292,0.946,-0.25,0.204,-0.97,0.232,-0.075,0.943,-0.005,0.332,-0.916,-0.052,-0.398,0.942,0.025,0.333,-0.921,-0.06,-0.384,0.15,0.91,0.386,-0.06,-0.923,-0.38,scissors
11.557413,-0.146,0.802,0.579,0.105,-0.729,-0.676,0.818,-0.32,-0.479,0.74,-0.56,0.373,-0.767,0.552,-0.328,0.951,-0.235,0.202,-0.972,0.201,-0.117,0.939,-0.003,0.345,-0.908,-0.009,-0.42,0.938,0.024,0.347,-0.915,-0.017,-0.402,0.141,0.907,0.397,-0.078,-0.905,-0.418,scissors
11.557533,-0.141,0.786,0.602,0.096,-0.729,-0.677,0.797,-0.324,-0.51,0.748,-0.553,0.367,-0.777,0.527,-0.345,0.955,-0.223,0.196,-0.974,0.185,-0.134,0.934,0.009,0.356,-0.899,0.009,-0.437,0.931,0.039,0.363,-0.908,-0.0,-0.42,0.121,0.906,0.405,-0.078,-0.893,-0.442,scissors
11.558597,-0.159,0.783,0.602,0.096,-0.729,-0.677,0.741,-0.331,-0.585,0.751,-0.561,0.348,-0.796,0.486,-0.36,0.957,-0.23,0.177,-0.979,0.14,-0.148,0.935,0.03,0.353,-0.879,0.025,-0.477,0.932,0.056,0.359,-0.884,0.017,-0.467,0.112,0.915,0.388,-0.068,-0.873,-0.483,scissors
11.558734,-0.17,0.78,0.602,-0.025,-0.707,-0.707,0.789,-0.263,-0.555,0.753,-0.565,0.337,-0.813,0.436,-0.386,0.958,-0.234,0.164,-0.98,0.082,-0.18,0.936,0.032,0.349,-0.853,0.059,-0.519,0.933,0.058,0.355,-0.859,0.058,-0.509,0.103,0.918,0.383,-0.059,-0.838,-0.542,scissors
11.558858,-0.156,0.767,0.623,-0.066,-0.689,-0.722,0.746,-0.274,-0.608,0.764,-0.552,0.334,-0.84,0.379,-0.387,0.962,-0.217,0.164,-0.982,0.032,-0.185,0.93,0.041,0.365,-0.821,0.074,-0.566,0.926,0.062,0.372,-0.83,0.09,-0.551,0.093,0.914,0.396,-0.033,-0.809,-0.586,scissors
11.582176,-0.149,0.771,0.619,-0.09,-0.679,-0.728,0.792,-0.245,-0.559,0.75,-0.562,0.349,-0.855,0.367,-0.367,0.956,-0.233,0.178,-0.988,0.024,-0.15,0.938,0.017,0.347,-0.811,0.041,-0.584,0.932,0.046,0.361,-0.818,0.057,-0.573,0.115,0.914,0.388,0.0,-0.819,-0.573,scissors
11.622436,-0.128,0.773,0.621,-0.061,-0.633,-0.772,0.767,-0.219,-0.604,0.755,-0.556,0.347,-0.876,0.333,-0.35,0.957,-0.229,0.177,-0.99,-0.008,-0.144,0.939,-0.015,0.343,-0.789,0.035,-0.614,0.936,0.009,0.352,-0.8,0.053,-0.598,0.118,0.914,0.387,0.027,-0.805,-0.593,scissors
12.069223,-0.084,0.702,0.707,-0.094,-0.609,-0.787,0.781,-0.214,-0.586,0.808,-0.501,0.309,-0.918,0.249,-0.309,0.978,-0.155,0.139,-0.988,-0.116,-0.097,0.902,0.037,0.43,-0.722,-0.01,-0.692,0.895,0.041,0.445,-0.741,0.03,-0.671,0.037,0.898,0.438,0.112,-0.757,-0.644,scissors
12.069386,-0.085,0.654,0.752,-0.115,-0.44,-0.891,0.781,-0.214,-0.586,0.845,-0.452,0.286,-0.951,0.233,-0.202,0.99,-0.082,0.115,-0.989,-0.145,0.0,0.86,0.1,0.5,-0.692,-0.119,-0.712,0.842,0.116,0.527,-0.71,-0.08,-0.7,-0.036,0.875,0.482,0.225,-0.766,-0.602,scissors
12.069526,-0.086,0.695,0.714,-0.02,-0.439,-0.898,0.751,-0.167,-0.639,0.827,-0.462,0.32,-0.921,0.367,-0.129,0.982,-0.111,0.154,-0.996,-0.047,0.076,0.893,0.01,0.451,-0.762,-0.222,-0.608,0.878,0.041,0.477,-0.768,-0.185,-0.613,0.018,0.879,0.476,0.219,-0.845,-0.487,scissors
12.069649,-0.063,0.731,0.679,0.137,-0.537,-0.832,0.751,-0.167,-0.639,0.82,-0.457,0.345,-0.899,0.362,-0.245,0.977,-0.111,0.182,-0.999,-0.034,-0.034,0.89,-0.028,0.456,-0.786,-0.094,-0.61,0.895,-0.017,0.446,-0.807,-0.046,-0.588,0.054,0.874,0.483,0.095,-0.823,-0.56,scissors
12.069775,-0.034,0.675,0.737,-0.181,-0.667,-0.723,0.791,-0.141,-0.595,0.844,-0.42,0.334,-0.806,0.383,-0.451,0.984,-0.062,0.17,-0.973,0.04,-0.227,0.861,0.009,0.508,-0.832,0.125,-0.541,0.857,0.024,0.514,-0.858,0.15,-0.491,0.006,0.856,0.517,-0.125,-0.792,-0.598,scissors
12.069897,-0.035,0.67,0.741,-0.074,-0.794,-0.603,0.745,-0.109,-0.658,0.851,-0.412,0.325,-0.714,0.443,-0.543,0.986,-0.051,0.159,-0.941,0.128,-0.314,0.856,0.016,0.516,-0.876,0.204,-0.438,0.851,0.027,0.524,-0.905,0.212,-0.368,-0.006,0.853,0.521,-0.247,-0.786,-0.567,scissors
12.070024,-0.031,0.688,0.725,-0.081,-0.878,-0.472,0.739,-0.132,-0.66,0.844,-0.422,0.332,-0.609,0.468,-0.64,0.983,-0.065,0.169,-0.889,0.159,-0.429,0.867,-0.008,0.499,-0.876,0.324,-0.357,0.863,0.002,0.505,-0.903,0.327,-0.28,0.017,0.858,0.513,-0.383,-0.735,-0.559,scissors
12.071107,-0.016,0.69,0.723,-0.14,-0.912,-0.386,0.753,-0.098,-0.651,0.839,-0.421,0.344,-0.513,0.476,-0.714,0.981,-0.068,0.181,-0.816,0.228,-0.531,0.866,-0.024,0.499,-0.86,0.43,-0.274,0.864,-0.019,0.503,-0.9,0.404,-0.165,0.031,0.855,0.518,-0.509,-0.679,-0.528,scissors
12.071244,-0.008,0.69,0.724,-0.103,-0.982,-0.155,0.72,-0.108,-0.685,0.834,-0.417,0.36,-0.36,0.563,-0.743,0.979,-0.064,0.196,-0.752,0.388,-0.533,0.861,-0.02,0.509,-0.89,0.445,-0.099,0.853,-0.008,0.522,-0.924,0.383,0.023,0.034,0.848,0.529,-0.622,-0.691,-0.369,scissors
12.071381,-0.028,0.716,0.697,0.141,-0.984,-0.112,0.727,-0.123,-0.675,0.812,-0.454,0.368,-0.369,0.738,-0.566,0.974,-0.106,0.202,-0.799,0.516,-0.309,0.883,-0.016,0.47,-0.983,0.186,-0.0,0.874,0.003,0.486,-0.986,0.148,0.074,0.066,0.865,0.498,-0.526,-0.827,-0.2,scissors
12.085524,-0.111,0.772,0.626,0.561,-0.774,-0.294,0.727,-0.123,-0.675,0.769,-0.517,0.376,-0.301,0.847,-0.437,0.958,-0.191,0.213,-0.734,0.649,-0.198,0.922,-0.055,0.383,-0.982,0.06,0.179,0.922,-0.028,0.385,-0.976,0.053,0.211,0.131,0.893,0.43,-0.568,-0.823,-0.028,scissors
12.125873,-0.087,0.773,0.629,0.422,-0.845,0.329,0.691,-0.158,-0.705,0.768,-0.522,0.372,0.286,0.613,-0.736,0.957,-0.2,0.21,-0.182,0.818,-0.545,0.925,-0.078,0.373,-0.486,0.618,0.618,0.926,-0.063,0.372,-0.611,0.503,0.611,0.138,0.893,0.428,-0.974,-0.195,0.117,scissors
12.576684,-0.004,0.674,0.739,-0.186,0.093,0.978,0.648,-0.164,-0.743,0.839,-0.422,0.344,0.812,-0.058,-0.58,0.983,-0.06,0.173,0.788,0.394,-0.473,0.852,0.019,0.523,0.374,0.624,0.686,0.843,0.013,0.538,0.102,0.564,0.82,0.017,0.848,0.53,-0.788,0.578,0.21,scissors
12.577277,-0.044,0.68,0.731,0.669,0.609,-0.426,0.648,-0.164,-0.743,0.847,-0.408,0.34,0.13,0.391,0.911,0.984,-0.045,0.17,-0.082,0.164,0.983,0.842,0.041,0.537,0.082,-0.983,0.164,0.83,0.048,0.555,-0.163,-0.898,0.408,0.001,0.845,0.534,0.492,-0.123,0.862,scissors
12.57742,-0.06,0.746,0.663,0.827,0.331,-0.455,0.683,-0.133,-0.718,0.808,-0.458,0.37,0.0,0.504,0.864,0.971,-0.118,0.207,-0.11,0.331,0.937,0.889,-0.043,0.455,0.0,-0.959,0.282,0.89,-0.024,0.456,-0.169,-0.903,0.395,0.083,0.869,0.488,0.402,-0.241,0.884,scissors
12.577552,-0.063,0.737,0.673,0.14,0.745,0.652,0.683,-0.133,-0.718,0.813,-0.459,0.357,0.882,-0.294,0.368,0.975,-0.115,0.19,0.802,0.267,0.535,0.886,-0.016,0.464,0.77,-0.237,0.592,0.886,-0.0,0.464,0.537,-0.119,0.835,0.059,0.873,0.484,-0.229,0.743,0.629,scissors
12.577687,-0.083,0.684,0.725,-0.043,0.685,0.728,0.709,-0.129,-0.693,0.84,-0.44,0.318,0.923,-0.308,0.231,0.986,-0.078,0.148,0.807,0.293,0.513,0.859,0.061,0.508,0.754,-0.189,0.629,0.848,0.076,0.525,0.473,-0.068,0.878,-0.006,0.867,0.498,-0.319,0.701,0.638,scissors
12.577806,-0.101,0.695,0.711,0.749,0.656,0.094,0.719,-0.139,-0.681,0.835,-0.456,0.308,0.772,0.154,0.617,0.985,-0.098,0.14,0.331,0.331,0.883,0.871,0.058,0.488,0.456,-0.684,0.57,0.863,0.063,0.501,0.0,-0.53,0.848,0.01,0.879,0.477,-0.241,0.482,0.843,scissors
12.577926,-0.085,0.724,0.684,0.513,0.854,-0.085,0.735,-0.138,-0.664,0.818,-0.474,0.326,0.424,-0.318,0.848,0.98,-0.123,0.156,0.375,-0.225,0.899,0.89,0.013,0.456,0.662,-0.735,0.147,0.884,0.024,0.467,0.468,-0.749,0.468,0.044,0.885,0.464,0.371,0.743,0.557,scissors
12.581041,-0.085,0.715,0.694,0.135,0.987,0.09,0.706,-0.16,-0.69,0.821,-0.466,0.329,0.458,-0.523,0.719,0.981,-0.114,0.159,0.487,-0.324,0.811,0.883,0.024,0.468,0.802,-0.588,0.107,0.877,0.037,0.479,0.786,-0.524,0.328,0.036,0.88,0.474,0.428,0.796,0.428,scissors
12.581168,-0.091,0.708,0.7,0.275,0.962,0.0,0.706,-0.16,-0.69,0.827,-0.457,0.326,0.302,-0.543,0.784,0.982,-0.104,0.159,0.424,-0.318,0.848,0.875,0.041,0.482,0.755,-0.654,0.05,0.869,0.054,0.491,0.773,-0.58,0.258,0.025,0.877,0.479,0.544,0.725,0.423,scissors
12.581289,-0.102,0.717,0.69,0.254,0.966,-0.051,0.713,-0.178,-0.678,0.822,-0.468,0.325,0.277,-0.484,0.83,0.981,-0.115,0.153,0.385,-0.275,0.881,0.884,0.036,0.467,0.734,-0.677,0.056,0.877,0.054,0.478,0.68,-0.68,0.272,0.032,0.884,0.467,0.523,0.719,0.458,scissors
12.585696,-0.118,0.708,0.696,0.206,0.979,-0.0,0.713,-0.178,-0.678,0.822,-0.475,0.313,0.215,-0.574,0.79,0.983,-0.12,0.141,0.355,-0.296,0.887,0.884,0.057,0.464,0.737,-0.676,-0.0,0.875,0.073,0.478,0.725,-0.653,0.218,0.02,0.889,0.458,0.566,0.707,0.424,scissors
12.624874,-0.128,0.703,0.699,0.325,0.921,-0.217,0.713,-0.178,-0.678,0.822,-0.485,0.299,-0.08,-0.477,0.875,0.983,-0.129,0.127,0.061,-0.242,0.968,0.885,0.073,0.46,0.671,-0.732,-0.122,0.876,0.089,0.475,0.705,-0.705,0.078,0.015,0.895,0.446,0.755,0.504,0.42,scissors
12.671314,-0.147,0.711,0.687,0.325,0.921,-0.217,0.739,-0.174,-0.651,0.813,-0.502,0.295,-0.341,-0.398,0.852,0.98,-0.154,0.124,-0.092,-0.37,0.925,0.895,0.071,0.439,0.447,-0.844,-0.298,0.887,0.087,0.454,0.526,-0.818,-0.234,0.026,0.904,0.427,0.923,0.33,0.198,scissors
13.086699,-0.163,0.713,0.682,0.262,0.785,-0.561,0.739,-0.174,-0.651,0.808,-0.51,0.295,-0.429,-0.286,0.857,0.979,-0.161,0.123,-0.189,-0.378,0.906,0.898,0.082,0.433,0.33,-0.868,-0.372,0.886,0.106,0.451,0.341,-0.876,-0.341,0.026,0.908,0.419,0.982,0.103,0.155,scissors
13.086835,-0.169,0.719,0.674,0.333,0.699,-0.633,0.745,-0.134,-0.653,0.8,-0.525,0.291,-0.466,-0.254,0.847,0.976,-0.18,0.121,-0.244,-0.348,0.905,0.91,0.068,0.408,0.229,-0.878,-0.42,0.902,0.09,0.422,0.264,-0.88,-0.396,0.038,0.916,0.4,0.99,0.0,0.141,scissors
13.08696,-0.183,0.712,0.678,0.277,0.76,-0.588,0.784,-0.152,-0.602,0.798,-0.528,0.288,-0.466,-0.254,0.847,0.976,-0.184,0.116,-0.244,-0.348,0.905,0.909,0.08,0.408,0.265,-0.87,-0.416,0.903,0.099,0.419,0.38,-0.844,-0.38,0.035,0.918,0.396,0.99,0.0,0.141,scissors
13.087084,-0.19,0.713,0.675,0.325,0.686,-0.65,0.784,-0.152,-0.602,0.799,-0.53,0.284,-0.521,-0.217,0.825,0.976,-0.184,0.112,-0.288,-0.324,0.901,0.909,0.085,0.409,0.155,-0.891,-0.426,0.897,0.118,0.425,0.187,-0.888,-0.421,0.03,0.918,0.396,0.994,-0.05,0.099,scissors
13.087206,-0.186,0.717,0.671,0.36,0.639,-0.679,0.762,-0.157,-0.628,0.796,-0.535,0.283,-0.571,-0.143,0.809,0.975,-0.191,0.113,-0.388,-0.233,0.892,0.913,0.08,0.4,0.128,-0.895,-0.426,0.902,0.113,0.417,0.053,-0.904,-0.425,0.034,0.921,0.389,0.986,-0.116,0.116,scissors
13.087344,-0.204,0.719,0.664,0.38,0.633,-0.675,0.784,-0.143,-0.604,0.789,-0.548,0.278,-0.628,-0.097,0.772,0.973,-0.207,0.106,-0.438,-0.199,0.877,0.917,0.094,0.389,0.136,-0.904,-0.407,0.906,0.121,0.406,0.0,-0.905,-0.426,0.037,0.927,0.373,0.976,-0.183,0.122,scissors
13.087467,-0.214,0.726,0.653,0.367,0.571,-0.734,0.795,-0.133,-0.592,0.777,-0.565,0.278,-0.659,-0.088,0.747,0.968,-0.229,0.108,-0.468,-0.18,0.865,0.921,0.103,0.376,0.166,-0.913,-0.373,0.915,0.121,0.385,-0.046,-0.911,-0.41,0.054,0.934,0.353,0.962,-0.253,0.101,scissors
13.09073,-0.222,0.737,0.638,0.398,0.597,-0.697,0.795,-0.133,-0.592,0.769,-0.574,0.281,-0.615,-0.123,0.779,0.964,-0.243,0.112,-0.404,-0.269,0.874,0.931,0.086,0.354,0.113,-0.903,-0.414,0.919,0.124,0.373,0.043,-0.902,-0.43,0.065,0.937,0.344,0.978,-0.186,0.093,scissors
13.090862,-0.222,0.745,0.629,0.361,0.591,-0.722,0.85,-0.117,-0.513,0.758,-0.584,0.289,-0.571,-0.036,0.82,0.959,-0.257,0.121,-0.389,-0.209,0.897,0.938,0.076,0.339,0.066,-0.929,-0.365,0.928,0.11,0.357,0.037,-0.928,-0.371,0.08,0.938,0.338,0.958,-0.239,0.16,scissors
13.096343,-0.227,0.753,0.618,0.41,0.645,-0.645,0.85,-0.117,-0.513,0.748,-0.596,0.292,-0.487,-0.07,0.87,0.954,-0.272,0.127,-0.316,-0.23,0.92,0.944,0.066,0.323,0.124,-0.932,-0.342,0.934,0.108,0.342,0.104,-0.933,-0.345,0.094,0.941,0.327,0.961,-0.154,0.231,scissors
13.136867,-0.247,0.744,0.621,0.44,0.704,-0.557,0.824,-0.092,-0.559,0.749,-0.599,0.283,-0.418,-0.07,0.906,0.955,-0.273,0.116,-0.239,-0.179,0.954,0.943,0.077,0.324,0.158,-0.946,-0.284,0.933,0.12,0.34,0.111,-0.96,-0.258,0.083,0.944,0.321,0.942,-0.118,0.314,scissors
13.175945,-0.249,0.738,0.627,0.464,0.712,-0.526,0.865,-0.093,-0.494,0.751,-0.6,0.275,-0.383,-0.077,0.92,0.957,-0.271,0.106,-0.225,-0.129,0.966,0.941,0.087,0.327,0.171,-0.956,-0.239,0.931,0.125,0.342,0.121,-0.972,-0.202,0.076,0.945,0.319,0.936,-0.085,0.341,scissors
13.597175,-0.252,0.739,0.624,0.429,0.751,-0.501,0.867,-0.074,-0.493,0.753,-0.602,0.266,-0.353,-0.132,0.926,0.956,-0.276,0.101,-0.176,-0.247,0.953,0.945,0.087,0.316,0.309,-0.928,-0.206,0.93,0.132,0.343,0.228,-0.957,-0.182,0.074,0.947,0.312,0.943,0.047,0.33,scissors
13.597352,-0.267,0.73,0.629,0.36,0.8,-0.48,0.863,-0.091,-0.497,0.751,-0.607,0.258,-0.351,-0.251,0.902,0.956,-0.278,0.091,-0.166,-0.249,0.954,0.941,0.107,0.321,0.344,-0.903,-0.258,0.931,0.141,0.337,0.342,-0.912,-0.228,0.065,0.951,0.303,0.94,0.176,0.294,scissors
13.597504,-0.283,0.733,0.618,0.327,0.793,-0.513,0.852,-0.131,-0.506,0.745,-0.618,0.253,-0.361,-0.24,0.901,0.953,-0.29,0.084,-0.182,-0.228,0.957,0.944,0.114,0.31,0.302,-0.905,-0.302,0.933,0.15,0.328,0.239,-0.954,-0.179,0.067,0.955,0.29,0.959,0.069,0.274,scissors
13.597641,-0.285,0.733,0.617,0.223,0.836,-0.502,0.852,-0.131,-0.506,0.738,-0.626,0.251,-0.349,-0.419,0.838,0.95,-0.301,0.085,-0.209,-0.262,0.942,0.948,0.109,0.3,0.398,-0.852,-0.341,0.933,0.156,0.323,0.287,-0.933,-0.215,0.073,0.957,0.282,0.967,0.081,0.242,scissors
13.597762,-0.291,0.733,0.615,0.33,0.857,-0.396,0.852,-0.131,-0.506,0.745,-0.621,0.242,-0.422,-0.527,0.738,0.953,-0.293,0.074,-0.225,-0.375,0.899,0.942,0.128,0.309,0.473,-0.788,-0.394,0.932,0.164,0.325,0.381,-0.889,-0.254,0.06,0.958,0.28,0.911,0.391,0.13,scissors
13.597883,-0.298,0.724,0.621,0.33,0.857,-0.396,0.897,-0.068,-0.436,0.741,-0.627,0.24,-0.577,-0.577,0.577,0.951,-0.299,0.073,-0.408,-0.408,0.816,0.946,0.127,0.298,0.267,-0.802,-0.535,0.932,0.171,0.321,-0.236,-0.943,-0.236,0.063,0.96,0.273,0.667,0.667,-0.333,scissors
13.598002,-0.3,0.738,0.605,0.154,0.772,-0.617,0.897,-0.068,-0.436,0.729,-0.64,0.241,-0.707,-0.707,-0.0,0.945,-0.318,0.075,-0.469,-0.625,0.625,0.953,0.118,0.278,0.324,-0.487,-0.811,0.941,0.159,0.298,-1.0,-0.0,-0.0,0.077,0.963,0.257,-0.0,0.707,-0.707,scissors
13.602545,-0.304,0.738,0.603,0.154,0.772,-0.617,0.879,-0.088,-0.468,0.727,-0.642,0.243,-0.302,-0.905,-0.302,0.943,-0.324,0.076,-0.371,-0.743,0.557,0.954,0.117,0.275,0.64,-0.426,-0.64,0.942,0.16,0.295,-0.577,0.577,0.577,0.08,0.964,0.255,-0.324,0.811,-0.487,scissors
13.602681,-0.302,0.74,0.601,0.154,0.772,-0.617,0.876,-0.095,-0.472,0.728,-0.639,0.248,-0.0,-0.832,-0.555,0.943,-0.322,0.084,-0.267,-0.802,0.535,0.954,0.114,0.278,0.832,0.0,-0.555,0.942,0.158,0.296,0.229,0.688,0.688,0.082,0.962,0.261,-0.566,0.707,-0.424,scissors
13.602806,-0.299,0.741,0.602,-0.64,0.426,0.64,0.876,-0.095,-0.472,0.726,-0.641,0.251,0.218,-0.436,-0.873,0.943,-0.322,0.085,-0.0,0.0,0.0,0.955,0.113,0.274,0.928,0.371,0.0,0.942,0.159,0.296,0.391,0.651,0.651,0.086,0.961,0.261,-0.793,0.566,-0.226,scissors
13.633555,-0.313,0.737,0.6,-0.64,0.426,0.64,0.898,-0.071,-0.435,0.725,-0.645,0.242,0.365,-0.183,-0.913,0.943,-0.326,0.073,-0.0,0.707,-0.707,0.952,0.133,0.275,0.535,0.802,0.267,0.937,0.18,0.301,-0.127,0.635,0.762,0.079,0.964,0.253,-0.873,0.436,-0.218,scissors
13.677224,-0.319,0.734,0.6,-0.535,-0.267,0.802,0.898,-0.071,-0.435,0.719,-0.653,0.237,0.391,0.13,-0.911,0.94,-0.335,0.069,-0.0,0.447,-0.894,0.957,0.129,0.261,0.0,0.97,0.243,0.943,0.172,0.286,-0.333,0.667,0.667,0.082,0.967,0.24,-0.896,0.398,-0.199,scissors
14.106802,-0.316,0.74,0.594,-0.535,-0.267,0.802,0.888,-0.08,-0.452,0.715,-0.656,0.24,0.549,-0.137,-0.824,0.938,-0.339,0.071,0.0,-0.316,-0.949,0.959,0.123,0.254,0.408,0.816,0.408,0.948,0.162,0.275,-0.117,0.702,0.702,0.089,0.967,0.237,-0.858,0.477,-0.191,scissors
14.106983,-0.323,0.74,0.591,-0.371,0.557,0.743,0.888,-0.08,-0.452,0.717,-0.656,0.237,0.535,-0.267,-0.802,0.939,-0.337,0.069,0.302,-0.302,-0.905,0.956,0.136,0.261,0.507,0.845,0.169,0.942,0.18,0.284,0.1,0.796,0.597,0.084,0.968,0.237,-0.763,0.594,-0.254,scissors
14.107106,-0.315,0.733,0.603,-0.485,0.485,0.728,0.898,-0.087,-0.432,0.721,-0.65,0.24,0.507,-0.169,-0.845,0.94,-0.332,0.072,0.707,-0.0,-0.707,0.956,0.127,0.264,0.535,0.802,0.267,0.942,0.171,0.287,-0.248,0.62,0.744,0.083,0.966,0.246,-0.843,0.527,-0.105,scissors
14.107232,-0.307,0.743,0.595,-0.408,0.408,0.816,0.89,-0.099,-0.446,0.724,-0.645,0.245,0.535,-0.267,-0.802,0.943,-0.324,0.077,0.707,0.0,-0.707,0.954,0.122,0.273,0.507,0.845,0.169,0.941,0.166,0.296,-0.101,0.704,0.704,0.081,0.963,0.256,-0.818,0.545,-0.182,scissors
14.107384,-0.299,0.733,0.611,-0.408,0.408,0.816,0.891,-0.09,-0.445,0.732,-0.635,0.247,0.444,-0.111,-0.889,0.947,-0.31,0.079,0.196,0.588,-0.784,0.948,0.13,0.29,0.156,0.937,0.312,0.935,0.17,0.31,-0.185,0.74,0.647,0.074,0.96,0.269,-0.912,0.38,-0.152,scissors
14.107512,-0.295,0.735,0.611,-0.212,-0.636,0.742,0.898,-0.097,-0.43,0.732,-0.635,0.247,0.312,0.156,-0.937,0.947,-0.31,0.083,-0.108,0.647,-0.755,0.951,0.115,0.288,-0.398,0.896,0.199,0.939,0.158,0.307,-0.424,0.707,0.566,0.077,0.96,0.269,-0.967,0.181,-0.181,scissors
14.107645,-0.29,0.746,0.599,-0.212,-0.636,0.742,0.882,-0.1,-0.461,0.728,-0.636,0.256,0.416,0.178,-0.892,0.944,-0.316,0.093,0.158,0.473,-0.867,0.955,0.097,0.279,-0.211,0.912,0.351,0.944,0.14,0.298,-0.27,0.757,0.595,0.088,0.959,0.271,-0.96,0.24,-0.144,scissors
14.108683,-0.291,0.742,0.605,-0.333,-0.444,0.832,0.886,-0.101,-0.453,0.732,-0.631,0.257,0.483,0.097,-0.87,0.947,-0.309,0.09,0.24,0.361,-0.901,0.952,0.108,0.288,-0.108,0.919,0.379,0.939,0.15,0.308,-0.214,0.771,0.6,0.083,0.957,0.278,-0.96,0.25,-0.125,scissors
14.10882,-0.273,0.745,0.609,-0.311,-0.466,0.828,0.88,-0.065,-0.47,0.735,-0.625,0.264,0.513,0.085,-0.854,0.948,-0.304,0.099,0.316,0.316,-0.895,0.951,0.096,0.293,-0.05,0.893,0.447,0.94,0.137,0.313,-0.196,0.784,0.588,0.086,0.954,0.286,-0.957,0.268,-0.115,scissors
14.108953,-0.262,0.747,0.611,-0.325,-0.407,0.854,0.88,-0.065,-0.47,0.74,-0.615,0.273,0.546,0.036,-0.837,0.951,-0.291,0.108,0.386,0.343,-0.857,0.949,0.085,0.303,0.0,0.878,0.479,0.938,0.129,0.322,-0.169,0.776,0.607,0.086,0.95,0.301,-0.95,0.295,-0.098,scissors
14.136523,-0.246,0.745,0.62,-0.325,-0.423,0.846,0.88,-0.065,-0.47,0.747,-0.604,0.28,0.589,0.062,-0.806,0.953,-0.28,0.116,0.414,0.379,-0.828,0.945,0.082,0.317,0.066,0.864,0.499,0.935,0.121,0.334,-0.142,0.767,0.625,0.085,0.946,0.314,-0.95,0.307,-0.056,scissors
14.180568,-0.238,0.742,0.627,-0.289,-0.462,0.838,0.857,-0.115,-0.502,0.755,-0.591,0.284,0.559,0.08,-0.825,0.957,-0.263,0.121,0.349,0.465,-0.814,0.94,0.083,0.332,0.028,0.864,0.502,0.93,0.12,0.348,-0.125,0.772,0.623,0.081,0.941,0.33,-0.964,0.265,-0.024,scissors
14.616716,-0.225,0.748,0.624,-0.293,-0.48,0.827,0.837,-0.144,-0.528,0.755,-0.589,0.29,0.553,0.075,-0.83,0.956,-0.264,0.128,0.329,0.466,-0.822,0.94,0.074,0.332,-0.026,0.883,0.468,0.931,0.11,0.349,-0.116,0.789,0.603,0.088,0.938,0.335,-0.962,0.269,-0.045,scissors
14.616857,-0.218,0.746,0.629,-0.349,-0.449,0.823,0.837,-0.144,-0.528,0.758,-0.584,0.292,0.592,0.047,-0.805,0.957,-0.259,0.13,0.416,0.364,-0.833,0.94,0.064,0.335,0.05,0.867,0.496,0.929,0.103,0.355,-0.111,0.776,0.621,0.086,0.936,0.341,-0.95,0.309,-0.044,scissors
14.616986,-0.209,0.745,0.634,-0.32,-0.394,0.862,0.83,-0.133,-0.542,0.764,-0.573,0.297,0.621,0.046,-0.782,0.96,-0.246,0.134,0.458,0.356,-0.814,0.935,0.064,0.349,0.073,0.872,0.484,0.926,0.098,0.365,-0.089,0.778,0.622,0.084,0.932,0.353,-0.94,0.342,-0.021,scissors
14.61711,-0.194,0.743,0.64,-0.301,-0.376,0.877,0.83,-0.133,-0.542,0.77,-0.562,0.302,0.635,0.045,-0.771,0.962,-0.234,0.14,0.482,0.33,-0.812,0.931,0.057,0.36,0.072,0.844,0.531,0.922,0.093,0.377,-0.109,0.765,0.634,0.079,0.927,0.367,-0.933,0.36,-0.021,scissors
14.617234,-0.18,0.743,0.644,-0.29,-0.339,0.895,0.83,-0.133,-0.542,0.778,-0.549,0.306,0.649,0.022,-0.761,0.965,-0.215,0.148,0.52,0.322,-0.792,0.925,0.059,0.375,0.094,0.849,0.519,0.916,0.088,0.39,-0.065,0.758,0.649,0.078,0.921,0.382,-0.925,0.379,-0.021,scissors
14.617364,-0.169,0.735,0.656,-0.303,-0.354,0.885,0.83,-0.133,-0.542,0.782,-0.541,0.309,0.671,0.023,-0.741,0.967,-0.206,0.149,0.511,0.332,-0.793,0.922,0.053,0.384,0.123,0.833,0.539,0.912,0.085,0.401,-0.022,0.75,0.661,0.072,0.917,0.392,-0.922,0.386,0.0,scissors
14.617488,-0.157,0.737,0.657,-0.306,-0.331,0.892,0.83,-0.133,-0.542,0.785,-0.533,0.315,0.67,0.024,-0.742,0.967,-0.202,0.156,0.528,0.369,-0.765,0.92,0.046,0.39,0.153,0.814,0.56,0.91,0.075,0.408,-0.046,0.74,0.671,0.074,0.914,0.399,-0.924,0.383,0.023,scissors
14.61859,-0.149,0.738,0.658,-0.216,-0.243,0.946,0.83,-0.133,-0.542,0.795,-0.518,0.316,0.707,-0.0,-0.707,0.971,-0.179,0.159,0.554,0.416,-0.721,0.909,0.053,0.413,0.158,0.817,0.554,0.903,0.078,0.423,-0.0,0.742,0.67,0.063,0.906,0.418,-0.911,0.41,0.046,scissors
14.618723,-0.126,0.731,0.67,-0.288,-0.346,0.893,0.83,-0.133,-0.542,0.801,-0.509,0.316,0.693,0.027,-0.72,0.973,-0.169,0.159,0.544,0.363,-0.756,0.905,0.049,0.423,0.137,0.824,0.549,0.895,0.073,0.44,0.0,0.743,0.669,0.059,0.902,0.428,-0.908,0.417,0.025,scissors
14.618846,-0.132,0.731,0.67,-0.274,-0.304,0.912,0.771,-0.175,-0.612,0.805,-0.499,0.321,0.691,0.031,-0.722,0.973,-0.16,0.164,0.574,0.395,-0.717,0.901,0.045,0.431,0.135,0.809,0.573,0.892,0.067,0.446,-0.059,0.706,0.706,0.057,0.896,0.44,-0.915,0.4,0.057,scissors
14.64953,-0.12,0.731,0.672,-0.133,-0.177,0.975,0.771,-0.175,-0.612,0.806,-0.495,0.326,0.743,0.037,-0.669,0.973,-0.155,0.169,0.606,0.39,-0.693,0.899,0.038,0.436,0.197,0.75,0.631,0.89,0.06,0.452,-0.034,0.672,0.74,0.061,0.893,0.446,-0.897,0.432,0.1,scissors
14.695221,-0.106,0.727,0.678,-0.156,-0.052,0.986,0.744,-0.179,-0.644,0.809,-0.487,0.329,0.772,-0.0,-0.636,0.974,-0.148,0.174,0.691,0.425,-0.585,0.897,0.028,0.442,0.29,0.677,0.677,0.889,0.046,0.456,0.0,0.644,0.765,0.059,0.889,0.454,-0.872,0.475,0.119,scissors
15.131011,-0.101,0.729,0.677,-0.228,0.114,0.967,0.744,-0.179,-0.644,0.812,-0.479,0.334,0.814,-0.153,-0.56,0.974,-0.139,0.181,0.809,0.311,-0.498,0.895,0.017,0.446,0.426,0.64,0.64,0.887,0.037,0.461,0.139,0.602,0.787,0.062,0.885,0.462,-0.783,0.609,0.13,scissors
15.131148,-0.093,0.732,0.675,-0.232,0.29,0.928,0.744,-0.179,-0.644,0.812,-0.473,0.342,0.846,-0.282,-0.451,0.972,-0.137,0.19,0.924,0.142,-0.355,0.892,0.014,0.452,0.597,0.537,0.597,0.884,0.033,0.467,0.316,0.526,0.789,0.065,0.88,0.47,-0.7,0.7,0.14,scissors
15.131275,-0.093,0.736,0.671,-0.288,0.518,0.806,0.725,-0.207,-0.657,0.813,-0.473,0.34,0.835,-0.418,-0.358,0.973,-0.133,0.188,0.974,-0.0,-0.225,0.891,0.018,0.454,0.743,0.473,0.473,0.884,0.032,0.466,0.495,0.495,0.715,0.065,0.88,0.47,-0.574,0.813,0.096,scissors
15.131412,-0.086,0.731,0.677,-0.249,0.685,0.685,0.725,-0.207,-0.657,0.81,-0.475,0.345,0.844,-0.52,-0.13,0.972,-0.136,0.192,0.972,-0.224,0.075,0.894,0.005,0.449,0.889,0.205,0.41,0.885,0.028,0.464,0.673,0.306,0.673,0.068,0.88,0.47,-0.358,0.921,0.153,scissors
15.131536,-0.089,0.737,0.67,-0.055,0.831,0.554,0.724,-0.24,-0.647,0.812,-0.469,0.347,0.798,-0.599,0.067,0.972,-0.129,0.195,0.897,-0.345,0.276,0.89,0.006,0.455,0.962,-0.0,0.275,0.883,0.029,0.468,0.766,0.139,0.627,0.069,0.877,0.475,-0.169,0.959,0.226,scissors
15.131672,-0.081,0.739,0.669,-0.054,0.87,0.49,0.724,-0.24,-0.647,0.808,-0.471,0.354,0.745,-0.61,0.271,0.971,-0.136,0.199,0.834,-0.321,0.449,0.893,-0.005,0.45,0.94,-0.176,0.294,0.886,0.02,0.462,0.772,-0.07,0.632,0.078,0.877,0.474,-0.055,0.942,0.332,scissors
15.131804,-0.089,0.745,0.661,0.05,0.893,0.447,0.756,-0.21,-0.62,0.802,-0.482,0.353,0.64,-0.64,0.426,0.969,-0.148,0.199,0.789,-0.316,0.526,0.899,-0.008,0.437,0.931,-0.233,0.279,0.894,0.015,0.448,0.86,-0.161,0.484,0.085,0.883,0.462,0.098,0.934,0.344,scissors
15.132863,-0.101,0.739,0.666,0.038,0.952,0.305,0.751,-0.206,-0.627,0.806,-0.484,0.341,0.545,-0.636,0.545,0.971,-0.146,0.187,0.715,-0.313,0.625,0.898,0.009,0.44,0.906,-0.371,0.206,0.892,0.032,0.45,0.885,-0.279,0.373,0.072,0.886,0.457,0.254,0.889,0.381,scissors
15.132995,-0.109,0.723,0.682,0.033,0.98,0.196,0.779,-0.181,-0.601,0.813,-0.48,0.331,0.448,-0.652,0.611,0.974,-0.14,0.176,0.639,-0.36,0.679,0.893,0.03,0.449,0.903,-0.414,0.113,0.885,0.053,0.463,0.903,-0.344,0.258,0.057,0.887,0.458,0.354,0.866,0.354,scissors
15.133124,-0.104,0.725,0.681,0.096,0.987,0.127,0.745,-0.226,-0.627,0.812,-0.483,0.326,0.426,-0.62,0.659,0.974,-0.145,0.172,0.621,-0.365,0.694,0.897,0.026,0.442,0.868,-0.486,0.104,0.888,0.052,0.456,0.884,-0.402,0.241,0.057,0.89,0.452,0.402,0.84,0.365,scissors
15.157459,-0.128,0.725,0.677,0.096,0.991,0.096,0.745,-0.226,-0.627,0.812,-0.487,0.32,0.373,-0.598,0.71,0.975,-0.146,0.166,0.559,-0.385,0.734,0.897,0.041,0.44,0.838,-0.536,0.101,0.888,0.067,0.456,0.861,-0.47,0.196,0.05,0.893,0.447,0.474,0.802,0.364,scissors
15.202817,-0.144,0.727,0.671,0.132,0.991,0.033,0.788,-0.236,-0.569,0.81,-0.498,0.311,0.311,-0.545,0.778,0.974,-0.161,0.157,0.495,-0.389,0.777,0.902,0.045,0.429,0.814,-0.577,0.068,0.89,0.081,0.448,0.816,-0.544,0.194,0.051,0.901,0.432,0.564,0.715,0.414,scissors
15.636898,-0.153,0.728,0.668,0.132,0.991,0.033,0.808,-0.224,-0.545,0.807,-0.505,0.305,0.276,-0.551,0.787,0.975,-0.164,0.149,0.46,-0.354,0.814,0.902,0.063,0.427,0.772,-0.632,0.07,0.894,0.087,0.44,0.808,-0.566,0.162,0.044,0.903,0.427,0.595,0.675,0.437,scissors
15.637047,-0.171,0.72,0.672,0.202,0.979,-0.034,0.79,-0.226,-0.569,0.805,-0.519,0.289,0.152,-0.457,0.876,0.975,-0.179,0.131,0.307,-0.342,0.888,0.907,0.077,0.414,0.69,-0.724,-0.0,0.896,0.102,0.432,0.705,-0.705,0.078,0.039,0.913,0.405,0.707,0.589,0.393,scissors
15.637181,-0.176,0.718,0.674,0.242,0.939,-0.242,0.79,-0.226,-0.569,0.804,-0.523,0.283,0.036,-0.432,0.901,0.975,-0.182,0.126,0.224,-0.384,0.896,0.908,0.083,0.411,0.618,-0.78,-0.098,0.896,0.111,0.429,0.65,-0.759,-0.036,0.035,0.916,0.4,0.788,0.488,0.375,scissors
15.637304,-0.182,0.712,0.678,0.295,0.885,-0.361,0.838,-0.183,-0.514,0.808,-0.519,0.278,-0.077,-0.383,0.92,0.977,-0.178,0.121,0.1,-0.335,0.937,0.904,0.09,0.418,0.534,-0.835,-0.134,0.891,0.122,0.436,0.551,-0.826,-0.118,0.023,0.915,0.402,0.842,0.401,0.361,scissors
15.63744,-0.182,0.712,0.678,0.295,0.885,-0.361,0.824,-0.213,-0.525,0.809,-0.518,0.278,-0.171,-0.299,0.939,0.977,-0.176,0.122,-0.0,-0.284,0.959,0.904,0.091,0.418,0.426,-0.891,-0.155,0.892,0.125,0.434,0.443,-0.886,-0.133,0.026,0.916,0.401,0.896,0.236,0.377,scissors
15.637562,-0.188,0.723,0.665,0.36,0.8,-0.48,0.855,-0.171,-0.49,0.799,-0.532,0.282,-0.336,-0.24,0.911,0.973,-0.194,0.126,-0.154,-0.231,0.961,0.913,0.083,0.399,0.331,-0.91,-0.248,0.901,0.118,0.418,0.249,-0.948,-0.2,0.042,0.92,0.39,0.943,0.105,0.314,scissors
15.63769,-0.192,0.728,0.658,0.425,0.695,-0.58,0.855,-0.171,-0.49,0.791,-0.541,0.284,-0.424,-0.141,0.895,0.97,-0.205,0.13,-0.275,-0.196,0.941,0.918,0.079,0.389,0.212,-0.931,-0.296,0.907,0.113,0.405,0.151,-0.956,-0.252,0.052,0.923,0.381,0.959,-0.0,0.282,scissors
15.638714,-0.198,0.737,0.646,0.448,0.611,-0.652,0.855,-0.171,-0.49,0.783,-0.551,0.289,-0.483,-0.097,0.87,0.967,-0.218,0.134,-0.345,-0.191,0.919,0.918,0.088,0.388,0.204,-0.937,-0.285,0.915,0.106,0.39,0.05,-0.952,-0.301,0.063,0.926,0.372,0.967,-0.114,0.228,scissors
15.638844,-0.207,0.744,0.635,0.448,0.611,-0.652,0.855,-0.171,-0.49,0.774,-0.562,0.294,-0.576,-0.048,0.816,0.962,-0.235,0.14,-0.391,-0.196,0.899,0.93,0.066,0.361,0.085,-0.936,-0.341,0.918,0.11,0.38,-0.049,-0.937,-0.345,0.076,0.929,0.362,0.97,-0.171,0.171,scissors
15.63897,-0.209,0.757,0.62,0.486,0.618,-0.618,0.855,-0.171,-0.49,0.766,-0.571,0.297,-0.514,-0.057,0.856,0.958,-0.249,0.143,-0.344,-0.258,0.903,0.937,0.053,0.346,0.094,-0.94,-0.329,0.93,0.087,0.357,-0.0,-0.959,-0.282,0.089,0.932,0.352,0.989,-0.066,0.132,scissors
15.65809,-0.214,0.747,0.629,0.321,0.696,-0.642,0.863,-0.181,-0.471,0.765,-0.571,0.296,-0.473,-0.158,0.867,0.958,-0.246,0.145,-0.281,-0.337,0.899,0.935,0.06,0.349,0.183,-0.913,-0.365,0.927,0.099,0.363,0.081,-0.967,-0.242,0.085,0.931,0.354,0.976,0.098,0.195,scissors
15.696921,-0.219,0.745,0.63,0.358,0.788,-0.501,0.863,-0.181,-0.471,0.765,-0.573,0.293,-0.518,-0.207,0.83,0.959,-0.248,0.139,-0.276,-0.345,0.897,0.935,0.064,0.348,0.163,-0.898,-0.408,0.926,0.104,0.364,0.0,-0.992,-0.124,0.083,0.932,0.352,0.98,0.14,0.14,scissors
16.146727,-0.222,0.749,0.624,0.324,0.811,-0.487,0.88,-0.161,-0.448,0.762,-0.579,0.291,-0.429,-0.286,0.857,0.958,-0.254,0.135,-0.268,-0.358,0.894,0.937,0.07,0.342,0.218,-0.873,-0.436,0.928,0.108,0.357,0.164,-0.986,0.0,0.086,0.935,0.344,0.873,0.436,0.218,scissors
16.146875,-0.226,0.751,0.621,0.123,0.862,-0.492,0.88,-0.161,-0.448,0.756,-0.585,0.294,-0.485,-0.485,0.728,0.955,-0.263,0.14,-0.342,-0.228,0.912,0.941,0.063,0.334,0.286,-0.857,-0.429,0.93,0.107,0.352,-0.236,-0.943,0.236,0.093,0.936,0.338,0.316,0.949,0.0,scissors
16.147009,-0.218,0.759,0.614,0.367,0.855,-0.367,0.887,-0.156,-0.434,0.752,-0.587,0.299,0.0,-0.949,0.316,0.953,-0.268,0.144,-0.0,-0.196,0.981,0.944,0.051,0.326,0.802,-0.535,-0.267,0.934,0.094,0.345,0.316,0.0,0.949,0.102,0.936,0.338,-0.371,0.928,-0.0,scissors
16.147131,-0.221,0.761,0.61,-0.0,0.949,0.316,0.887,-0.156,-0.434,0.748,-0.589,0.304,0.535,-0.802,-0.267,0.95,-0.272,0.152,0.302,-0.302,0.905,0.945,0.045,0.323,1.0,0.0,0.0,0.936,0.087,0.341,0.408,0.408,0.816,0.111,0.935,0.337,-0.555,0.832,-0.0,scissors
16.147262,-0.224,0.767,0.601,-0.241,0.843,0.482,0.901,-0.194,-0.389,0.742,-0.595,0.309,0.744,-0.62,-0.248,0.948,-0.278,0.155,0.913,-0.183,0.365,0.949,0.04,0.313,0.963,0.12,0.241,0.94,0.082,0.33,0.549,0.329,0.768,0.119,0.936,0.331,-0.513,0.854,0.085,scissors
16.147394,-0.223,0.769,0.599,-0.256,0.683,0.683,0.901,-0.194,-0.389,0.738,-0.599,0.311,0.796,-0.557,-0.239,0.946,-0.284,0.158,0.981,-0.196,-0.0,0.951,0.034,0.307,0.864,0.314,0.393,0.942,0.082,0.325,0.497,0.497,0.711,0.124,0.937,0.328,-0.492,0.862,0.123,scissors
16.147522,-0.22,0.764,0.607,-0.226,0.566,0.793,0.905,-0.147,-0.4,0.744,-0.593,0.308,0.824,-0.507,-0.253,0.949,-0.274,0.158,0.994,-0.076,-0.076,0.947,0.043,0.318,0.816,0.376,0.439,0.938,0.087,0.335,0.529,0.471,0.706,0.116,0.935,0.335,-0.523,0.837,0.157,scissors
16.14857,-0.21,0.767,0.606,-0.275,0.495,0.824,0.871,-0.202,-0.449,0.747,-0.588,0.31,0.828,-0.466,-0.311,0.949,-0.272,0.157,0.981,-0.061,-0.184,0.945,0.04,0.324,0.799,0.4,0.449,0.937,0.083,0.339,0.539,0.49,0.686,0.114,0.934,0.339,-0.556,0.813,0.171,scissors
16.148704,-0.208,0.765,0.61,-0.288,0.412,0.865,0.871,-0.202,-0.449,0.753,-0.58,0.31,0.842,-0.421,-0.337,0.952,-0.26,0.159,0.954,-0.0,-0.301,0.942,0.039,0.334,0.738,0.477,0.477,0.945,0.049,0.324,0.562,0.522,0.642,0.104,0.93,0.354,-0.599,0.786,0.15,scissors
16.148827,-0.196,0.761,0.619,-0.378,0.241,0.894,0.881,-0.191,-0.433,0.755,-0.574,0.316,0.827,-0.36,-0.432,0.952,-0.257,0.167,0.894,0.041,-0.447,0.942,0.029,0.334,0.636,0.599,0.487,0.931,0.083,0.356,0.472,0.606,0.64,0.108,0.927,0.358,-0.656,0.749,0.094,scissors
16.161312,-0.192,0.765,0.615,-0.282,0.188,0.941,0.881,-0.191,-0.433,0.756,-0.571,0.32,0.852,-0.304,-0.426,0.952,-0.255,0.168,0.894,0.034,-0.447,0.94,0.027,0.339,0.617,0.586,0.525,0.934,0.066,0.351,0.41,0.615,0.674,0.114,0.926,0.36,-0.66,0.743,0.11,scissors
16.205265,-0.192,0.763,0.617,-0.31,0.197,0.93,0.882,-0.213,-0.421,0.759,-0.568,0.318,0.839,-0.331,-0.432,0.954,-0.249,0.168,0.882,0.055,-0.468,0.938,0.03,0.345,0.609,0.609,0.508,0.93,0.072,0.36,0.413,0.632,0.656,0.11,0.925,0.365,-0.654,0.747,0.117,scissors
16.243034,-0.188,0.755,0.628,-0.312,0.168,0.935,0.862,-0.222,-0.456,0.768,-0.559,0.314,0.851,-0.307,-0.426,0.958,-0.234,0.163,0.872,0.051,-0.487,0.933,0.042,0.358,0.585,0.609,0.536,0.924,0.083,0.373,0.414,0.62,0.666,0.095,0.923,0.372,-0.656,0.743,0.131,scissors
16.656693,-0.181,0.745,0.642,-0.321,0.115,0.94,0.856,-0.207,-0.474,0.775,-0.551,0.309,0.832,-0.292,-0.472,0.962,-0.224,0.157,0.843,0.096,-0.53,0.929,0.047,0.367,0.544,0.657,0.521,0.92,0.087,0.383,0.362,0.659,0.659,0.084,0.922,0.378,-0.693,0.714,0.102,scissors
16.656839,-0.182,0.742,0.645,-0.328,0.087,0.941,0.866,-0.193,-0.461,0.782,-0.544,0.302,0.826,-0.261,-0.5,0.965,-0.213,0.152,0.829,0.092,-0.552,0.925,0.052,0.376,0.512,0.69,0.512,0.915,0.089,0.394,0.333,0.687,0.646,0.074,0.92,0.384,-0.713,0.694,0.099,scissors
16.656979,-0.177,0.736,0.654,-0.385,0.064,0.921,0.866,-0.193,-0.461,0.791,-0.534,0.3,0.808,-0.255,-0.531,0.968,-0.201,0.147,0.81,0.093,-0.579,0.918,0.063,0.392,0.495,0.698,0.518,0.905,0.101,0.412,0.314,0.692,0.65,0.061,0.916,0.395,-0.735,0.673,0.082,scissors
16.657116,-0.171,0.733,0.659,-0.323,-0.0,0.946,0.841,-0.232,-0.488,0.797,-0.524,0.301,0.776,-0.2,-0.599,0.97,-0.189,0.151,0.749,0.121,-0.652,0.914,0.061,0.401,0.439,0.74,0.509,0.903,0.097,0.419,0.256,0.725,0.64,0.059,0.913,0.404,-0.784,0.619,0.041,scissors
16.65724,-0.148,0.736,0.661,-0.37,-0.092,0.925,0.832,-0.237,-0.501,0.799,-0.516,0.307,0.766,-0.197,-0.612,0.971,-0.182,0.155,0.723,0.145,-0.675,0.912,0.048,0.408,0.406,0.767,0.496,0.902,0.081,0.425,0.212,0.742,0.636,0.062,0.908,0.414,-0.792,0.61,0.02,scissors
16.657372,-0.141,0.733,0.666,-0.389,-0.092,0.916,0.85,-0.261,-0.458,0.806,-0.501,0.314,0.728,-0.177,-0.662,0.973,-0.164,0.163,0.673,0.168,-0.721,0.903,0.051,0.426,0.345,0.805,0.483,0.894,0.081,0.441,0.171,0.767,0.618,0.054,0.9,0.432,-0.819,0.573,0.0,scissors
16.657507,-0.122,0.738,0.663,-0.359,-0.215,0.908,0.834,-0.246,-0.494,0.806,-0.492,0.328,0.703,-0.11,-0.703,0.972,-0.157,0.178,0.63,0.194,-0.752,0.903,0.027,0.429,0.277,0.83,0.484,0.896,0.057,0.44,0.106,0.783,0.613,0.067,0.894,0.443,-0.859,0.511,-0.02,scissors
16.658421,-0.099,0.736,0.669,-0.389,-0.229,0.892,0.801,-0.26,-0.54,0.808,-0.483,0.338,0.714,-0.112,-0.691,0.971,-0.145,0.189,0.639,0.221,-0.737,0.899,0.019,0.438,0.3,0.808,0.508,0.89,0.052,0.453,0.109,0.765,0.634,0.069,0.887,0.456,-0.854,0.521,0.0,scissors
16.658552,-0.096,0.737,0.669,-0.379,-0.213,0.9,0.801,-0.26,-0.54,0.81,-0.476,0.343,0.691,-0.115,-0.714,0.971,-0.14,0.194,0.612,0.204,-0.764,0.89,0.031,0.454,0.327,0.793,0.513,0.891,0.033,0.452,0.111,0.776,0.621,0.07,0.883,0.464,-0.857,0.514,-0.021,scissors
16.667763,-0.081,0.742,0.665,-0.304,-0.166,0.938,0.776,-0.329,-0.539,0.809,-0.476,0.346,0.726,-0.125,-0.676,0.969,-0.142,0.2,0.654,0.256,-0.711,0.896,0.004,0.444,0.335,0.772,0.54,0.89,0.027,0.455,0.098,0.762,0.639,0.079,0.88,0.468,-0.853,0.521,0.024,scissors
16.705755,-0.081,0.742,0.665,-0.349,-0.116,0.93,0.754,-0.331,-0.567,0.811,-0.469,0.35,0.74,-0.137,-0.658,0.969,-0.135,0.206,0.694,0.189,-0.694,0.894,-0.006,0.448,0.432,0.702,0.567,0.884,0.026,0.467,0.183,0.733,0.655,0.079,0.876,0.476,-0.832,0.555,0.025,scissors
16.747368,-0.065,0.734,0.676,-0.344,0.0,0.939,0.754,-0.331,-0.567,0.818,-0.451,0.357,0.786,-0.157,-0.598,0.971,-0.113,0.212,0.759,0.217,-0.614,0.881,0.003,0.474,0.434,0.7,0.567,0.873,0.025,0.488,0.215,0.706,0.675,0.069,0.866,0.496,-0.811,0.579,0.087,scissors
17.166756,-0.052,0.736,0.675,-0.242,0.04,0.969,0.723,-0.35,-0.596,0.818,-0.448,0.36,0.808,-0.176,-0.562,0.97,-0.113,0.214,0.794,0.167,-0.585,0.884,-0.014,0.468,0.485,0.672,0.56,0.878,0.012,0.479,0.24,0.651,0.72,0.075,0.866,0.495,-0.765,0.637,0.096,scissors
17.166901,-0.072,0.738,0.67,-0.257,0.147,0.955,0.723,-0.35,-0.596,0.816,-0.455,0.358,0.834,-0.217,-0.507,0.97,-0.116,0.214,0.845,0.169,-0.507,0.887,-0.009,0.462,0.497,0.65,0.574,0.878,0.022,0.478,0.278,0.625,0.729,0.074,0.868,0.49,-0.732,0.669,0.127,scissors
17.167032,-0.066,0.738,0.672,-0.231,0.154,0.961,0.731,-0.335,-0.594,0.812,-0.456,0.363,0.877,-0.199,-0.438,0.968,-0.122,0.218,0.879,0.231,-0.416,0.889,-0.02,0.457,0.535,0.576,0.618,0.881,0.008,0.472,0.262,0.561,0.785,0.085,0.868,0.489,-0.708,0.673,0.213,scissors
17.167164,-0.05,0.743,0.668,-0.083,0.29,0.953,0.713,-0.35,-0.607,0.812,-0.454,0.367,0.933,-0.272,-0.233,0.968,-0.123,0.22,0.971,0.088,-0.221,0.888,-0.026,0.459,0.686,0.404,0.605,0.881,0.003,0.474,0.473,0.437,0.765,0.086,0.866,0.492,-0.549,0.789,0.275,scissors
17.167293,-0.055,0.729,0.682,-0.111,0.517,0.849,0.751,-0.364,-0.551,0.82,-0.442,0.363,0.956,-0.291,-0.042,0.971,-0.105,0.215,0.996,0.091,0.0,0.879,-0.013,0.477,0.751,0.209,0.626,0.871,0.014,0.492,0.523,0.282,0.805,0.069,0.862,0.502,-0.438,0.804,0.402,scissors
17.167428,-0.045,0.723,0.69,0.151,0.68,0.718,0.731,-0.351,-0.585,0.828,-0.434,0.355,0.931,-0.296,0.212,0.974,-0.095,0.208,0.953,0.136,0.272,0.874,-0.006,0.485,0.764,-0.04,0.644,0.865,0.017,0.502,0.573,0.041,0.819,0.059,0.86,0.507,-0.267,0.802,0.535,scissors
17.167559,-0.065,0.711,0.7,0.223,0.708,0.67,0.73,-0.357,-0.583,0.834,-0.435,0.34,0.857,-0.316,0.406,0.978,-0.092,0.19,0.873,0.087,0.48,0.873,0.011,0.488,0.78,-0.246,0.575,0.862,0.036,0.506,0.631,-0.168,0.757,0.042,0.866,0.499,-0.119,0.794,0.596,scissors
17.168592,-0.08,0.693,0.717,0.172,0.894,0.413,0.73,-0.357,-0.583,0.84,-0.446,0.308,0.7,-0.505,0.505,0.982,-0.1,0.16,0.799,-0.19,0.571,0.88,0.024,0.475,0.872,-0.327,0.363,0.87,0.038,0.491,0.809,-0.231,0.54,0.024,0.877,0.479,0.145,0.87,0.471,scissors
17.168733,-0.071,0.683,0.727,-0.124,0.946,0.299,0.773,-0.343,-0.534,0.857,-0.429,0.286,0.519,-0.72,0.461,0.988,-0.077,0.135,0.766,-0.425,0.482,0.867,0.042,0.497,0.965,-0.241,0.107,0.853,0.055,0.519,0.955,-0.145,0.26,-0.013,0.872,0.49,0.272,0.923,0.272,scissors
17.168861,-0.062,0.636,0.769,-0.169,0.971,0.169,0.773,-0.343,-0.534,0.882,-0.388,0.266,0.377,-0.778,0.502,0.993,-0.023,0.116,0.663,-0.565,0.491,0.834,0.088,0.545,0.957,-0.287,-0.048,0.818,0.101,0.566,0.981,-0.186,0.053,-0.063,0.854,0.517,0.422,0.894,0.149,scissors
17.204953,-0.063,0.654,0.753,-0.249,0.951,0.181,0.734,-0.398,-0.55,0.872,-0.405,0.273,0.367,-0.806,0.464,0.991,-0.048,0.127,0.649,-0.625,0.433,0.852,0.059,0.521,0.97,-0.231,-0.069,0.839,0.078,0.539,0.991,-0.127,0.051,-0.037,0.866,0.5,0.378,0.921,0.094,scissors
17.242363,-0.064,0.674,0.736,-0.273,0.923,0.273,0.734,-0.398,-0.55,0.867,-0.398,0.299,0.416,-0.808,0.416,0.987,-0.04,0.154,0.69,-0.591,0.419,0.839,0.073,0.539,0.976,-0.214,-0.024,0.822,0.101,0.56,0.993,-0.081,0.081,-0.026,0.852,0.523,0.344,0.934,0.098,scissors
17.686398,-0.045,0.774,0.632,0.42,0.905,0.065,0.776,-0.343,-0.53,0.814,-0.439,0.38,0.402,-0.438,0.804,0.965,-0.109,0.24,0.505,-0.303,0.808,0.879,-0.015,0.476,0.741,-0.64,0.202,0.87,0.019,0.493,0.745,-0.596,0.298,0.092,0.857,0.507,0.533,0.686,0.495,scissors
17.687004,-0.067,0.831,0.553,0.591,0.806,0.0,0.787,-0.338,-0.517,0.74,-0.522,0.424,0.452,-0.17,0.876,0.931,-0.226,0.285,0.499,-0.026,0.866,0.93,-0.139,0.339,0.618,-0.693,0.371,0.934,-0.102,0.343,0.613,-0.666,0.426,0.211,0.881,0.424,0.467,0.522,0.714,scissors
17.68714,-0.096,0.789,0.607,0.299,0.88,0.37,0.787,-0.338,-0.517,0.792,-0.505,0.343,0.692,-0.43,0.58,0.963,-0.183,0.195,0.842,-0.092,0.531,0.916,-0.021,0.401,0.844,-0.341,0.413,0.916,0.006,0.401,0.832,-0.248,0.496,0.092,0.898,0.429,0.193,0.791,0.58,scissors
17.687268,-0.154,0.577,0.802,0.117,0.85,0.513,0.811,-0.329,-0.484,0.885,-0.417,0.206,0.654,-0.38,0.654,0.998,-0.039,0.047,0.774,-0.041,0.632,0.81,0.222,0.542,0.788,-0.456,0.415,0.778,0.244,0.578,0.787,-0.383,0.484,-0.132,0.87,0.474,0.283,0.727,0.626,scissors
17.687401,-0.169,0.694,0.7,0.63,0.756,-0.176,0.811,-0.329,-0.484,0.855,-0.468,0.224,0.201,-0.086,0.976,0.992,-0.105,0.07,0.261,-0.0,0.965,0.862,0.164,0.479,0.455,-0.857,0.241,0.844,0.185,0.504,0.495,-0.824,0.275,-0.05,0.902,0.429,0.659,0.3,0.689,scissors
17.687527,-0.147,0.769,0.622,0.588,0.769,-0.249,0.811,-0.329,-0.484,0.793,-0.533,0.296,0.107,-0.133,0.985,0.967,-0.208,0.149,0.218,-0.121,0.968,0.927,0.023,0.375,0.444,-0.888,0.123,0.921,0.053,0.385,0.493,-0.856,0.156,0.083,0.919,0.385,0.726,0.307,0.615,scissors
17.687647,-0.15,0.773,0.616,0.104,0.994,0.041,0.811,-0.329,-0.484,0.773,-0.543,0.328,0.28,-0.466,0.839,0.958,-0.225,0.18,0.469,-0.313,0.826,0.932,0.006,0.363,0.738,-0.671,0.067,0.924,0.049,0.379,0.768,-0.624,0.144,0.109,0.915,0.389,0.619,0.642,0.452,scissors
17.688425,-0.176,0.744,0.645,0.223,0.972,0.081,0.823,-0.355,-0.444,0.788,-0.526,0.319,0.314,-0.434,0.844,0.966,-0.195,0.17,0.481,-0.298,0.825,0.918,0.049,0.394,0.725,-0.678,0.117,0.905,0.095,0.414,0.756,-0.63,0.176,0.078,0.91,0.408,0.615,0.615,0.492,scissors
17.688558,-0.172,0.753,0.635,0.394,0.919,-0.022,0.862,-0.328,-0.385,0.773,-0.548,0.319,0.268,-0.341,0.901,0.959,-0.224,0.174,0.41,-0.205,0.889,0.931,0.029,0.365,0.641,-0.755,0.137,0.922,0.066,0.38,0.668,-0.717,0.198,0.099,0.918,0.383,0.65,0.525,0.55,scissors
17.688687,-0.178,0.763,0.622,0.229,0.973,0.019,0.858,-0.334,-0.39,0.769,-0.558,0.311,0.287,-0.42,0.861,0.958,-0.234,0.164,0.453,-0.288,0.844,0.934,0.033,0.356,0.714,-0.693,0.102,0.926,0.073,0.371,0.742,-0.652,0.157,0.099,0.923,0.372,0.64,0.596,0.485,scissors
17.708611,-0.183,0.745,0.642,0.181,0.984,0.0,0.858,-0.334,-0.39,0.78,-0.545,0.31,0.266,-0.466,0.844,0.963,-0.217,0.162,0.466,-0.318,0.826,0.924,0.055,0.378,0.727,-0.684,0.064,0.912,0.103,0.397,0.757,-0.643,0.115,0.08,0.919,0.386,0.662,0.594,0.457,scissors
17.753008,-0.178,0.761,0.624,0.295,0.954,0.045,0.859,-0.356,-0.368,0.772,-0.551,0.317,0.324,-0.423,0.846,0.958,-0.227,0.173,0.487,-0.255,0.835,0.931,0.031,0.363,0.723,-0.676,0.14,0.923,0.079,0.377,0.753,-0.627,0.201,0.097,0.92,0.38,0.583,0.634,0.507,scissors
18.187759,-0.188,0.762,0.619,0.295,0.954,0.045,0.894,-0.294,-0.338,0.768,-0.558,0.314,0.462,-0.407,0.788,0.958,-0.235,0.166,0.595,-0.207,0.776,0.934,0.035,0.357,0.777,-0.577,0.251,0.926,0.081,0.37,0.79,-0.518,0.327,0.097,0.923,0.372,0.46,0.704,0.541,scissors
18.187904,-0.21,0.753,0.623,0.233,0.93,0.284,0.874,-0.34,-0.346,0.77,-0.559,0.307,0.551,-0.398,0.734,0.96,-0.232,0.158,0.672,-0.117,0.731,0.93,0.056,0.362,0.791,-0.509,0.339,0.921,0.105,0.376,0.785,-0.453,0.423,0.087,0.925,0.371,0.332,0.725,0.604,scissors
18.188039,-0.217,0.774,0.595,0.282,0.907,0.313,0.89,-0.344,-0.298,0.751,-0.581,0.313,0.574,-0.395,0.717,0.951,-0.262,0.162,0.653,-0.098,0.751,0.942,0.047,0.333,0.79,-0.505,0.348,0.932,0.094,0.349,0.743,-0.473,0.473,0.112,0.931,0.347,0.309,0.722,0.619,scissors
18.18817,-0.204,0.79,0.578,0.276,0.921,0.276,0.89,-0.344,-0.298,0.734,-0.595,0.326,0.603,-0.426,0.674,0.941,-0.284,0.181,0.697,-0.166,0.697,0.953,0.01,0.302,0.822,-0.474,0.316,0.945,0.065,0.321,0.827,-0.397,0.397,0.144,0.931,0.336,0.306,0.782,0.544,scissors
18.188307,-0.187,0.804,0.564,0.135,0.892,0.432,0.89,-0.344,-0.298,0.727,-0.591,0.351,0.667,-0.477,0.572,0.935,-0.287,0.21,0.808,-0.186,0.559,0.952,-0.015,0.305,0.863,-0.357,0.357,0.948,0.04,0.317,0.827,-0.276,0.49,0.167,0.922,0.349,0.18,0.841,0.51,scissors
18.188444,-0.165,0.807,0.568,0.052,0.854,0.518,0.89,-0.344,-0.298,0.724,-0.583,0.368,0.755,-0.504,0.42,0.933,-0.281,0.227,0.888,-0.194,0.416,0.951,-0.037,0.307,0.89,-0.183,0.419,0.948,0.016,0.318,0.838,-0.081,0.54,0.18,0.915,0.361,0.053,0.893,0.447,scissors
18.18859,-0.18,0.808,0.561,0.0,0.77,0.638,0.89,-0.344,-0.298,0.722,-0.584,0.37,0.81,-0.491,0.319,0.932,-0.282,0.228,0.946,-0.124,0.299,0.952,-0.033,0.305,0.89,-0.094,0.445,0.949,0.021,0.314,0.817,-0.0,0.577,0.18,0.916,0.359,-0.046,0.889,0.456,scissors
18.189621,-0.203,0.807,0.555,0.0,0.77,0.638,0.903,-0.358,-0.239,0.716,-0.597,0.361,0.868,-0.445,0.222,0.93,-0.298,0.216,0.978,-0.111,0.178,0.955,-0.02,0.294,0.867,0.022,0.498,0.953,0.036,0.301,0.776,0.086,0.625,0.18,0.923,0.34,-0.124,0.892,0.435,scissors
18.189758,-0.219,0.805,0.552,-0.039,0.636,0.771,0.897,-0.342,-0.282,0.709,-0.612,0.351,0.873,-0.467,0.142,0.926,-0.315,0.206,0.991,-0.083,0.103,0.961,-0.013,0.275,0.858,0.12,0.499,0.959,0.038,0.282,0.762,0.181,0.622,0.183,0.929,0.322,-0.207,0.903,0.376,scissors
18.189886,-0.22,0.803,0.554,-0.039,0.636,0.771,0.902,-0.372,-0.22,0.709,-0.613,0.347,0.868,-0.482,0.116,0.928,-0.315,0.201,0.99,-0.116,0.078,0.961,0.005,0.277,0.863,0.131,0.488,0.954,0.062,0.293,0.774,0.189,0.604,0.175,0.93,0.323,-0.199,0.904,0.38,scissors
18.217618,-0.205,0.815,0.543,-0.056,0.706,0.706,0.891,-0.373,-0.258,0.706,-0.611,0.359,0.852,-0.476,0.218,0.925,-0.314,0.213,0.976,-0.12,0.179,0.961,-0.009,0.276,0.878,0.019,0.477,0.955,0.048,0.291,0.805,0.078,0.589,0.187,0.925,0.33,-0.112,0.896,0.429,scissors
18.25685,-0.198,0.823,0.532,-0.018,0.716,0.698,0.872,-0.436,-0.223,0.703,-0.609,0.367,0.855,-0.475,0.209,0.921,-0.317,0.225,0.982,-0.113,0.151,0.961,-0.029,0.275,0.878,0.055,0.476,0.959,0.031,0.281,0.797,0.111,0.593,0.198,0.924,0.328,-0.126,0.901,0.415,scissors
18.696693,-0.213,0.801,0.559,-0.117,0.65,0.751,0.872,-0.436,-0.223,0.714,-0.604,0.354,0.86,-0.491,0.14,0.929,-0.307,0.209,0.992,-0.108,0.072,0.958,-0.002,0.287,0.87,0.119,0.478,0.954,0.054,0.295,0.776,0.194,0.6,0.176,0.927,0.331,-0.185,0.91,0.371,scissors
18.696931,-0.229,0.8,0.555,-0.202,0.64,0.741,0.872,-0.436,-0.223,0.713,-0.617,0.333,0.834,-0.544,0.091,0.93,-0.317,0.188,0.983,-0.182,0.036,0.961,0.023,0.275,0.894,0.172,0.413,0.953,0.08,0.291,0.809,0.234,0.539,0.164,0.935,0.314,-0.17,0.937,0.306,scissors
18.697063,-0.246,0.804,0.541,-0.24,0.669,0.703,0.876,-0.418,-0.241,0.703,-0.632,0.326,0.799,-0.571,0.19,0.926,-0.333,0.178,0.956,-0.262,0.131,0.965,0.026,0.26,0.919,0.071,0.389,0.956,0.087,0.279,0.845,0.134,0.518,0.172,0.94,0.294,-0.072,0.95,0.305,scissors
18.697189,-0.242,0.803,0.545,-0.199,0.762,0.617,0.876,-0.418,-0.241,0.707,-0.623,0.334,0.78,-0.59,0.209,0.928,-0.321,0.19,0.947,-0.284,0.151,0.962,0.023,0.273,0.934,0.037,0.355,0.956,0.076,0.282,0.858,0.12,0.499,0.169,0.937,0.306,-0.037,0.95,0.311,scissors
18.697329,-0.223,0.795,0.565,-0.164,0.767,0.621,0.863,-0.449,-0.231,0.724,-0.603,0.337,0.769,-0.607,0.202,0.936,-0.295,0.191,0.944,-0.287,0.164,0.954,0.027,0.3,0.946,0.04,0.322,0.947,0.078,0.311,0.865,0.127,0.485,0.152,0.931,0.333,-0.039,0.955,0.292,scissors
18.697461,-0.213,0.794,0.569,-0.215,0.732,0.646,0.872,-0.435,-0.222,0.731,-0.593,0.337,0.774,-0.619,0.133,0.939,-0.284,0.192,0.951,-0.294,0.091,0.951,0.017,0.31,0.943,0.132,0.307,0.945,0.072,0.319,0.853,0.224,0.471,0.149,0.929,0.34,-0.126,0.965,0.231,scissors
18.69758,-0.212,0.782,0.585,-0.215,0.732,0.646,0.869,-0.441,-0.226,0.734,-0.593,0.331,0.78,-0.624,0.045,0.941,-0.282,0.185,0.96,-0.281,-0.0,0.949,0.027,0.313,0.927,0.203,0.316,0.943,0.078,0.323,0.832,0.292,0.472,0.141,0.93,0.34,-0.188,0.96,0.209,scissors
18.698826,-0.232,0.773,0.591,-0.374,0.632,0.679,0.869,-0.441,-0.226,0.74,-0.593,0.318,0.763,-0.644,-0.048,0.946,-0.277,0.17,0.951,-0.3,-0.075,0.947,0.044,0.318,0.919,0.266,0.29,0.939,0.098,0.331,0.815,0.359,0.455,0.123,0.933,0.338,-0.246,0.96,0.134,scissors
18.698961,-0.233,0.757,0.61,-0.461,0.509,0.727,0.869,-0.441,-0.226,0.753,-0.585,0.301,0.741,-0.642,-0.198,0.953,-0.263,0.152,0.919,-0.315,-0.236,0.941,0.063,0.334,0.865,0.432,0.254,0.931,0.114,0.347,0.732,0.53,0.429,0.098,0.935,0.342,-0.343,0.938,0.046,scissors
18.699094,-0.215,0.748,0.628,-0.533,0.4,0.746,0.869,-0.441,-0.226,0.768,-0.57,0.292,0.696,-0.642,-0.321,0.959,-0.242,0.144,0.872,-0.331,-0.361,0.933,0.076,0.353,0.824,0.522,0.22,0.92,0.124,0.371,0.658,0.631,0.411,0.079,0.931,0.356,-0.426,0.903,-0.05,scissors
18.713074,-0.203,0.759,0.619,-0.635,0.254,0.73,0.869,-0.441,-0.226,0.771,-0.558,0.308,0.634,-0.604,-0.483,0.959,-0.231,0.161,0.782,-0.306,-0.544,0.928,0.061,0.367,0.714,0.683,0.155,0.919,0.11,0.379,0.517,0.76,0.395,0.087,0.923,0.375,-0.56,0.812,-0.168,scissors
18.757596,-0.16,0.786,0.597,-0.653,0.098,0.751,0.805,-0.519,-0.288,0.76,-0.553,0.342,0.621,-0.395,-0.677,0.951,-0.235,0.2,0.669,-0.127,-0.732,0.934,0.005,0.358,0.482,0.843,0.241,0.929,0.055,0.366,0.325,0.84,0.434,0.128,0.913,0.388,-0.733,0.657,-0.177,scissors
18.796208,-0.152,0.786,0.6,-0.552,-0.168,0.816,0.805,-0.519,-0.288,0.755,-0.549,0.359,0.627,-0.289,-0.723,0.947,-0.235,0.217,0.62,0.054,-0.782,0.935,-0.017,0.355,0.394,0.862,0.32,0.932,0.032,0.36,0.252,0.826,0.505,0.142,0.909,0.392,-0.811,0.57,-0.132,scissors
19.206749,-0.138,0.786,0.603,-0.434,-0.239,0.869,0.805,-0.519,-0.288,0.757,-0.545,0.36,0.663,-0.186,-0.725,0.948,-0.229,0.219,0.625,0.162,-0.764,0.932,-0.016,0.361,0.327,0.85,0.414,0.925,0.048,0.376,0.276,0.787,0.551,0.138,0.906,0.4,-0.845,0.531,-0.059,scissors
19.206897,-0.128,0.776,0.618,-0.374,-0.299,0.878,0.805,-0.519,-0.288,0.769,-0.532,0.355,0.665,-0.111,-0.739,0.954,-0.212,0.213,0.575,0.198,-0.794,0.928,-0.017,0.373,0.245,0.867,0.434,0.92,0.046,0.389,0.219,0.791,0.572,0.128,0.903,0.41,-0.883,0.468,-0.035,scissors
19.20704,-0.115,0.765,0.634,-0.374,-0.299,0.878,0.754,-0.583,-0.302,0.78,-0.513,0.358,0.68,-0.051,-0.731,0.957,-0.191,0.219,0.578,0.253,-0.776,0.919,-0.016,0.394,0.208,0.849,0.485,0.912,0.037,0.408,0.113,0.793,0.599,0.117,0.895,0.43,-0.891,0.454,-0.016,scissors
19.207184,-0.094,0.763,0.639,-0.323,-0.34,0.883,0.754,-0.583,-0.302,0.789,-0.493,0.365,0.69,-0.033,-0.723,0.96,-0.17,0.224,0.567,0.266,-0.78,0.909,-0.014,0.416,0.187,0.85,0.493,0.902,0.03,0.43,0.064,0.802,0.594,0.11,0.885,0.453,-0.898,0.441,-0.0,scissors
19.207307,-0.083,0.765,0.639,-0.323,-0.34,0.883,0.662,-0.632,-0.402,0.793,-0.484,0.37,0.69,-0.049,-0.722,0.96,-0.161,0.23,0.579,0.263,-0.772,0.907,-0.027,0.421,0.219,0.844,0.489,0.906,0.004,0.424,0.112,0.799,0.591,0.112,0.879,0.464,-0.885,0.466,-0.0,scissors
19.207456,-0.066,0.753,0.655,-0.36,-0.274,0.892,0.637,-0.66,-0.399,0.81,-0.462,0.361,0.687,-0.1,-0.72,0.967,-0.131,0.22,0.594,0.216,-0.775,0.891,-0.003,0.455,0.245,0.856,0.454,0.88,0.042,0.473,0.162,0.808,0.566,0.084,0.87,0.486,-0.867,0.498,-0.032,scissors
19.207578,-0.046,0.752,0.658,-0.36,-0.274,0.892,0.579,-0.679,-0.452,0.813,-0.452,0.368,0.654,-0.041,-0.756,0.967,-0.12,0.226,0.547,0.251,-0.798,0.885,-0.009,0.466,0.195,0.868,0.456,0.876,0.031,0.481,0.02,0.826,0.564,0.087,0.864,0.495,-0.893,0.446,-0.058,scissors
19.208683,-0.034,0.749,0.662,-0.36,-0.274,0.892,0.579,-0.679,-0.452,0.81,-0.451,0.376,0.648,-0.149,-0.747,0.964,-0.122,0.237,0.57,0.199,-0.797,0.887,-0.033,0.461,0.297,0.865,0.405,0.878,0.0,0.478,0.05,0.85,0.525,0.1,0.862,0.497,-0.857,0.51,-0.07,scissors
19.208827,-0.029,0.752,0.658,-0.511,0.183,0.84,0.628,-0.678,-0.382,0.813,-0.44,0.382,0.699,-0.333,-0.633,0.963,-0.111,0.244,0.726,-0.0,-0.688,0.88,-0.036,0.474,0.552,0.759,0.345,0.869,0.006,0.494,0.204,0.815,0.543,0.098,0.854,0.511,-0.734,0.673,-0.092,scissors
19.226866,-0.024,0.741,0.671,-0.431,0.269,0.861,0.628,-0.678,-0.382,0.821,-0.424,0.383,0.711,-0.4,-0.578,0.965,-0.091,0.245,0.805,-0.054,-0.591,0.87,-0.03,0.493,0.628,0.676,0.386,0.866,-0.0,0.5,0.27,0.765,0.585,0.086,0.847,0.524,-0.687,0.725,-0.038,scissors
19.272243,0.001,0.75,0.662,-0.333,0.444,0.832,0.566,-0.695,-0.445,0.818,-0.416,0.396,0.78,-0.468,-0.416,0.961,-0.085,0.262,0.921,-0.123,-0.369,0.869,-0.061,0.491,0.775,0.498,0.388,0.866,-0.028,0.5,0.381,0.654,0.654,0.101,0.84,0.533,-0.585,0.81,0.045,scissors
