0.011154,BNO0_UnitAccX,BNO0_UnitAccY,BNO0_UnitAccZ,BNO0_RawAccMag,BNO0_GyrX,BNO0_GyrY,BNO0_GyrZ,BNO0_MagX,BNO0_MagY,BNO0_MagZ,BNO1_UnitAccX,BNO1_UnitAccY,BNO1_UnitAccZ,BNO1_RawAccMag,BNO1_GyrX,BNO1_GyrY,BNO1_GyrZ,BNO1_MagX,BNO1_MagY,BNO1_MagZ,BNO2_UnitAccX,BNO2_UnitAccY,BNO2_UnitAccZ,BNO2_RawAccMag,BNO2_GyrX,BNO2_GyrY,BNO2_GyrZ,BNO2_MagX,BNO2_MagY,BNO2_MagZ,BNO3_UnitAccX,BNO3_UnitAccY,BNO3_UnitAccZ,BNO3_RawAccMag,BNO3_GyrX,BNO3_GyrY,BNO3_GyrZ,BNO3_MagX,BNO3_MagY,BNO3_MagZ,MPU0_UnitAccX,MPU0_UnitAccY,MPU0_UnitAccZ,MPU0_RawAccMag,MPU0_GyrX,MPU0_GyrY,MPU0_GyrZ,MPU1_UnitAccX,MPU1_UnitAccY,MPU1_UnitAccZ,MPU1_RawAccMag,MPU1_GyrX,MPU1_GyrY,MPU1_GyrZ,none
0.024175,0.469,-0.353,-0.810,1628.31,-44.986,-58.639,48.679,-0.338,-0.229,0.913,0.204,-0.347,-0.915,1600.72,-1.902,10.519,-6.379,-0.789,0.609,0.079,0.240,-0.262,-0.935,1845.07,-10.519,4.924,3.917,0.320,-0.201,0.926,-0.403,0.316,-0.859,2250.08,-3.805,6.826,8.505,-0.043,0.612,0.789,0.320,-0.026,0.947,9.505,23.863,5.557,-0.687,0.614,0.283,0.737,8.520,-23.221,-14.382,-10.565,none
0.067975,0.441,-0.052,-0.896,1418.73,-29.431,-28.312,41.293,-0.326,-0.292,0.899,0.314,-0.346,-0.884,1945.42,-2.574,25.850,-9.288,-0.787,0.616,0.037,0.251,-0.403,-0.880,2270.75,-13.429,16.786,-15.667,0.320,-0.201,0.926,-0.363,0.342,-0.867,2307.52,-23.500,29.319,15.891,-0.047,0.626,0.778,0.269,-0.004,0.963,10.322,21.939,17.282,-1.313,0.636,0.299,0.712,8.362,-10.672,-2.290,-14.153,none
0.068228,0.502,-0.225,-0.835,1989.49,-12.869,0.671,20.926,-0.336,-0.262,0.905,0.382,-0.352,-0.855,2219.45,-10.295,35.474,-14.772,-0.785,0.616,0.064,0.272,-0.378,-0.885,2524.07,-25.403,11.526,-20.591,0.341,-0.220,0.914,-0.306,0.376,-0.875,2389.02,-23.948,29.655,18.576,-0.053,0.658,0.751,0.339,0.011,0.941,9.199,29.695,11.771,-2.183,0.624,0.323,0.711,8.757,6.214,-12.672,-15.206,none
0.084842,0.517,-0.270,-0.813,2274.09,-19.024,13.093,4.588,-0.313,-0.311,0.897,0.441,-0.368,-0.818,2761.49,-20.703,37.265,-20.479,-0.793,0.606,0.068,0.271,-0.363,-0.892,2680.65,-40.398,2.574,-21.822,0.336,-0.203,0.920,-0.276,0.352,-0.894,2435.18,-23.388,25.403,20.814,-0.063,0.696,0.716,0.313,0.056,0.948,9.118,57.130,-3.878,-0.580,0.549,0.361,0.754,9.683,13.618,-34.107,-10.489,none
0.494567,0.524,-0.400,-0.752,2561.46,-36.034,7.833,-2.462,-0.313,-0.282,0.907,0.436,-0.351,-0.829,2478.87,-43.419,25.850,-22.717,-0.808,0.588,0.024,0.285,-0.334,-0.898,2683.41,-56.512,1.343,-19.472,0.328,-0.227,0.917,-0.267,0.419,-0.868,2701.19,-46.553,14.995,27.305,-0.068,0.721,0.690,0.242,0.058,0.969,12.416,74.153,-6.092,-9.466,0.512,0.377,0.772,11.097,11.328,-42.885,-19.603,none
0.500201,0.540,-0.316,-0.780,2283.54,-61.212,19.472,7.722,-0.288,-0.306,0.907,0.438,-0.266,-0.859,2381.56,-42.860,35.250,-7.945,-0.818,0.575,0.015,0.292,-0.260,-0.920,2384.08,-54.498,-2.014,-10.072,0.358,-0.242,0.902,-0.261,0.458,-0.850,2794.13,-38.272,21.150,29.991,-0.099,0.773,0.627,0.349,0.089,0.933,12.790,64.229,14.489,-3.344,0.613,0.372,0.697,11.456,4.672,-27.130,-29.145,none
0.500472,0.565,-0.124,-0.816,2566.36,-61.884,34.355,12.645,-0.289,-0.428,0.856,0.484,-0.130,-0.865,2315.87,-36.369,49.462,-7.162,-0.818,0.575,0.005,0.336,-0.208,-0.919,2367.43,-41.517,11.302,-5.931,0.351,-0.270,0.897,-0.237,0.477,-0.846,2745.59,-24.060,25.738,27.865,-0.116,0.808,0.578,0.390,0.131,0.911,11.461,65.588,24.519,15.725,0.636,0.380,0.672,11.842,-3.237,-20.519,-21.374,none
0.500693,0.576,-0.072,-0.815,2774.60,-52.484,32.900,11.638,-0.273,-0.439,0.856,0.522,-0.127,-0.843,2598.24,-30.774,59.310,-17.681,-0.838,0.545,-0.012,0.372,-0.197,-0.907,2744.13,-20.031,18.800,-14.883,0.331,-0.250,0.910,-0.193,0.511,-0.838,2657.71,-16.450,19.024,21.038,-0.131,0.833,0.537,0.311,0.119,0.943,15.079,-13.206,43.924,13.908,0.710,0.356,0.608,14.476,-36.687,17.771,7.008,none
0.500902,0.528,-0.037,-0.849,5367.37,-41.741,3.245,9.624,-0.186,-0.550,0.814,0.555,-0.044,-0.831,2566.91,-21.934,63.227,-27.417,-0.835,0.549,-0.051,0.387,-0.171,-0.906,2585.19,-17.122,5.483,-5.707,0.426,-0.269,0.864,-0.185,0.558,-0.809,2837.37,-8.617,14.324,12.757,-0.145,0.846,0.513,0.214,0.141,0.967,11.496,-1.435,35.344,7.817,0.620,0.400,0.676,10.496,-18.366,12.611,-1.130,none
0.501131,0.578,-0.228,-0.783,1997.01,31.669,-15.667,19.695,-0.169,-0.494,0.853,0.547,-0.039,-0.836,3195.93,19.807,71.955,-22.717,-0.833,0.544,-0.096,0.377,-0.108,-0.920,2290.62,25.738,6.155,2.238,0.337,-0.276,0.900,-0.217,0.437,-0.873,2505.80,1.119,8.841,-3.021,-0.144,0.849,0.508,0.272,0.120,0.955,11.256,-2.611,39.557,6.412,0.632,0.360,0.687,10.061,-17.145,14.733,1.618,none
0.501357,0.541,-0.159,-0.826,2498.74,11.414,-10.855,20.367,-0.133,-0.512,0.848,0.554,-0.119,-0.824,2539.31,28.312,45.546,-42.972,-0.836,0.540,-0.097,0.364,-0.183,-0.913,2639.48,4.252,4.924,-10.967,0.361,-0.266,0.894,-0.218,0.463,-0.859,2489.04,-5.148,14.324,-1.231,-0.137,0.841,0.523,0.215,0.088,0.973,10.874,-6.565,42.214,8.076,0.580,0.351,0.735,10.085,-16.489,17.420,6.733,none
0.501539,0.523,-0.226,-0.822,2453.01,18.241,-15.891,21.038,-0.148,-0.447,0.882,0.570,-0.315,-0.759,2448.55,34.915,44.427,-48.008,-0.833,0.552,-0.039,0.316,-0.275,-0.908,2578.85,6.267,1.343,-14.883,0.330,-0.286,0.899,-0.208,0.444,-0.872,2419.79,14.436,16.226,-0.112,-0.127,0.832,0.539,0.209,0.086,0.974,11.019,-7.924,34.504,6.977,0.540,0.348,0.766,10.058,-20.244,19.664,4.412,none
0.501713,0.520,-0.244,-0.818,2353.11,16.114,-17.457,18.912,-0.146,-0.470,0.870,0.565,-0.374,-0.736,2871.20,21.374,29.319,-17.569,-0.851,0.524,-0.041,0.311,-0.264,-0.913,2306.82,-5.707,-5.595,-11.750,0.355,-0.274,0.894,-0.212,0.426,-0.879,2566.27,12.422,17.905,1.455,-0.117,0.830,0.545,0.197,0.078,0.977,10.956,-6.702,25.450,7.710,0.570,0.338,0.749,10.198,-19.969,20.931,2.870,none
0.501899,0.509,-0.251,-0.823,2519.57,11.750,-17.345,17.345,-0.131,-0.429,0.894,0.577,-0.296,-0.762,2710.10,18.688,18.241,2.910,-0.841,0.538,-0.051,0.320,-0.257,-0.912,2451.19,3.805,0.000,-8.057,0.418,-0.261,0.870,-0.197,0.424,-0.884,2554.04,2.126,19.360,2.686,-0.115,0.836,0.536,0.207,0.083,0.975,11.009,-4.534,16.748,10.076,0.556,0.338,0.759,10.063,-17.527,13.374,5.405,none
0.502125,0.511,-0.278,-0.813,2489.98,4.476,-17.569,11.414,-0.119,-0.397,0.910,0.577,-0.294,-0.762,2825.68,18.688,3.245,9.736,-0.834,0.544,-0.087,0.309,-0.258,-0.915,2665.95,3.357,-0.671,-4.364,0.411,-0.239,0.880,-0.186,0.422,-0.887,2498.45,-0.112,16.898,6.379,-0.116,0.831,0.544,0.193,0.072,0.979,10.906,-4.015,11.191,11.573,0.508,0.338,0.793,10.102,-19.466,14.550,3.298,none
0.502307,0.495,-0.270,-0.826,2451.25,-1.007,-18.017,8.729,-0.154,-0.426,0.891,0.580,-0.298,-0.758,2658.34,4.476,-10.967,18.353,-0.835,0.545,-0.078,0.310,-0.261,-0.914,2754.12,-9.176,-7.274,-7.610,0.415,-0.233,0.879,-0.197,0.435,-0.879,2557.69,11.974,12.310,7.274,-0.116,0.835,0.538,0.189,0.073,0.979,10.897,-0.366,3.527,12.733,0.478,0.345,0.808,10.176,-23.038,8.290,-3.985,none
0.502478,0.439,-0.629,-0.642,2878.61,7.610,-18.912,22.269,-0.121,-0.389,0.913,0.566,-0.315,-0.761,2568.86,2.126,-15.331,17.457,-0.834,0.547,-0.073,0.280,-0.292,-0.915,2561.59,-8.169,-17.793,-0.336,0.391,-0.247,0.886,-0.170,0.394,-0.903,2551.92,15.219,10.967,10.072,-0.111,0.843,0.526,0.166,0.082,0.983,10.750,5.359,-11.893,18.565,0.387,0.356,0.851,10.286,-26.427,2.962,-12.443,none
0.502613,0.421,-0.702,-0.574,2910.62,-17.457,-19.919,69.382,-0.183,-0.456,0.871,0.559,-0.481,-0.675,2706.73,10.072,-17.122,26.634,-0.826,0.562,-0.044,0.264,-0.361,-0.894,2530.37,-10.631,-19.024,7.386,0.401,-0.235,0.885,-0.156,0.409,-0.899,2531.45,10.519,6.938,21.262,-0.115,0.846,0.521,0.172,0.079,0.982,10.654,14.595,-27.527,19.267,0.305,0.351,0.885,10.121,-38.794,-6.015,-31.710,none
0.502737,0.482,-0.502,-0.718,2274.72,-67.255,-9.288,105.751,-0.160,-0.521,0.839,0.536,-0.541,-0.649,2532.80,-7.833,-17.122,58.751,-0.829,0.557,-0.060,0.257,-0.384,-0.887,2561.49,-29.991,-18.129,16.674,0.417,-0.267,0.869,-0.185,0.376,-0.908,2518.61,18.017,1.455,33.460,-0.111,0.853,0.510,0.201,0.054,0.978,10.707,16.000,-20.473,17.893,0.511,0.309,0.802,9.951,-53.069,-25.252,-38.198,none
0.502857,0.471,-0.014,-0.882,2429.08,-86.839,2.798,104.968,-0.215,-0.588,0.780,0.537,-0.418,-0.732,2616.66,-35.027,-12.310,78.222,-0.801,0.591,-0.096,0.294,-0.265,-0.918,2602.61,-38.496,-13.876,21.374,0.400,-0.266,0.877,-0.184,0.401,-0.897,2579.04,18.353,-1.679,38.384,-0.117,0.863,0.491,0.224,0.047,0.973,10.798,20.366,-16.672,11.649,0.635,0.283,0.719,10.221,-50.824,-29.359,-33.359,none
0.508495,0.457,0.057,-0.887,2502.80,-69.717,3.357,83.929,-0.301,-0.594,0.746,0.550,-0.379,-0.744,2628.30,-52.148,-16.114,102.506,-0.809,0.577,-0.110,0.332,-0.189,-0.924,2659.60,-34.131,-19.584,17.569,0.420,-0.259,0.870,-0.161,0.401,-0.902,2578.74,14.883,-0.783,34.803,-0.129,0.884,0.448,0.200,0.074,0.977,11.003,22.763,-7.145,8.626,0.612,0.294,0.734,10.243,-40.626,-16.779,-25.282,none
0.508649,0.458,-0.060,-0.887,2392.60,-42.972,5.371,58.079,-0.354,-0.529,0.771,0.541,-0.026,-0.841,2489.84,-53.043,-16.003,96.351,-0.797,0.588,-0.137,0.293,-0.177,-0.940,2449.83,-30.438,-23.388,24.284,0.417,-0.255,0.872,-0.163,0.432,-0.887,2555.18,-5.260,-4.812,29.431,-0.134,0.898,0.419,0.167,0.075,0.983,11.410,15.267,-5.634,-5.802,0.620,0.283,0.732,9.938,-34.351,-19.221,-24.137,none
0.508775,0.462,-0.025,-0.886,2118.55,-19.360,21.374,32.453,-0.404,-0.503,0.764,0.521,-0.099,-0.848,2340.09,-23.836,-15.219,58.415,-0.793,0.598,-0.112,0.299,-0.080,-0.951,2463.85,-30.998,-20.591,19.695,0.452,-0.284,0.846,-0.185,0.470,-0.863,2512.68,-7.162,-1.679,25.403,-0.153,0.916,0.371,0.232,0.077,0.970,10.441,12.611,-2.702,-26.519,0.728,0.255,0.636,10.209,-24.504,-13.221,-11.496,none
0.513687,0.459,0.036,-0.888,2047.94,-7.386,38.719,12.086,-0.454,-0.487,0.746,0.503,-0.119,-0.856,2112.66,-22.605,-8.393,46.105,-0.792,0.605,-0.082,0.290,-0.098,-0.952,2233.23,-17.457,-16.674,17.122,0.446,-0.266,0.854,-0.194,0.475,-0.858,2490.47,1.231,2.350,19.136,-0.160,0.929,0.333,0.462,0.096,0.881,11.541,15.649,2.229,-7.832,0.780,0.234,0.581,10.438,-14.458,5.969,4.672,none
0.538677,0.499,0.032,-0.866,2294.45,9.624,56.289,-9.736,-0.486,-0.450,0.749,0.490,-0.023,-0.871,2028.79,-15.779,5.483,23.612,-0.800,0.593,-0.092,0.296,0.003,-0.955,2286.54,-17.457,-6.379,6.491,0.393,-0.279,0.877,-0.168,0.490,-0.856,2534.12,10.295,8.952,10.072,-0.163,0.933,0.320,0.192,0.108,0.975,11.183,17.145,34.046,23.924,0.568,0.296,0.768,10.055,-13.863,42.718,11.099,none
0.558865,0.521,0.014,-0.854,2464.56,25.962,60.205,-25.515,-0.482,-0.510,0.712,0.512,-0.102,-0.853,2362.81,-4.252,15.779,3.021,-0.802,0.581,-0.142,0.271,-0.111,-0.956,2315.65,4.588,2.350,-9.624,0.402,-0.282,0.871,-0.142,0.455,-0.879,2510.93,14.660,17.345,0.783,-0.164,0.938,0.304,0.220,0.106,0.970,11.256,6.931,27.969,12.947,0.536,0.273,0.799,10.161,-18.351,51.130,5.038,none
0.582216,0.545,-0.158,-0.823,2388.97,60.429,66.920,-44.539,-0.484,-0.509,0.712,0.517,-0.194,-0.834,2453.03,10.967,25.291,-15.443,-0.786,0.588,-0.189,0.259,-0.157,-0.953,2579.95,6.602,5.819,-10.743,0.519,-0.280,0.808,-0.152,0.441,-0.885,2483.10,9.624,14.995,-1.679,-0.166,0.941,0.295,0.168,0.084,0.982,10.844,1.038,25.786,8.458,0.482,0.264,0.836,10.070,-16.015,14.260,2.702,none
1.002573,0.464,0.341,-0.818,2513.25,-20.703,-2.462,14.995,-0.473,-0.529,0.705,0.495,-0.487,-0.720,3235.21,32.676,19.584,-13.093,-0.797,0.589,-0.134,0.243,-0.315,-0.917,2904.73,8.393,6.826,-13.205,0.540,-0.265,0.799,-0.147,0.379,-0.914,2628.80,14.995,9.512,2.014,-0.164,0.944,0.287,0.182,0.078,0.980,10.872,5.939,8.214,4.153,0.479,0.260,0.839,9.941,-7.435,-2.534,2.290,none
1.002769,0.532,-0.301,-0.791,2263.28,11.526,-1.790,0.560,-0.483,-0.548,0.683,0.515,-0.279,-0.810,2727.65,-6.155,3.917,10.967,-0.787,0.598,-0.152,0.262,-0.192,-0.946,2662.38,-3.693,0.895,0.448,0.474,-0.254,0.843,-0.147,0.369,-0.918,2617.59,8.169,0.783,1.679,-0.162,0.942,0.294,0.213,0.095,0.973,11.041,8.260,-4.046,-1.069,0.520,0.271,0.810,10.075,-3.496,-7.924,1.130,none
1.002913,0.539,-0.205,-0.817,2563.55,-5.595,5.036,-6.826,-0.461,-0.553,0.695,0.523,-0.233,-0.819,2422.25,-6.714,-1.455,2.910,-0.784,0.602,-0.152,0.279,-0.147,-0.949,2290.46,-2.462,0.112,1.231,0.532,-0.268,0.803,-0.143,0.414,-0.899,2499.54,-6.491,0.112,0.112,-0.168,0.941,0.293,0.211,0.101,0.972,11.083,4.626,-4.611,1.405,0.513,0.280,0.811,10.054,-5.282,-7.863,3.145,none
1.003075,0.542,-0.247,-0.803,2437.45,3.021,-3.357,-1.119,-0.455,-0.568,0.686,0.521,-0.330,-0.787,2546.08,1.119,-7.050,4.029,-0.791,0.596,-0.137,0.271,-0.238,-0.933,2353.68,5.707,5.036,-0.448,0.473,-0.254,0.844,-0.130,0.411,-0.902,2444.91,-8.393,1.343,1.567,-0.165,0.943,0.289,0.192,0.097,0.977,10.927,2.733,-5.084,1.542,0.517,0.276,0.811,10.029,-7.450,-11.084,7.771,none
1.003260,0.541,-0.259,-0.800,2406.83,4.364,-6.602,-1.679,-0.454,-0.553,0.698,0.515,-0.274,-0.812,2347.70,1.790,-10.072,9.064,-0.792,0.600,-0.115,0.273,-0.197,-0.942,2549.08,0.560,6.826,1.343,0.527,-0.265,0.808,-0.134,0.413,-0.901,2505.76,-2.462,1.119,4.029,-0.168,0.944,0.285,0.192,0.091,0.977,10.994,1.466,1.420,-0.885,0.528,0.266,0.807,10.013,-8.336,-9.023,7.771,none
1.003466,0.533,-0.271,-0.801,2479.40,5.707,-0.783,-1.790,-0.476,-0.562,0.676,0.511,-0.271,-0.816,2444.51,4.252,-3.805,-2.014,-0.775,0.616,-0.144,0.273,-0.151,-0.950,2483.66,-1.007,5.931,2.574,0.497,-0.269,0.825,-0.143,0.433,-0.890,2502.41,6.826,2.238,3.805,-0.167,0.946,0.278,0.197,0.088,0.976,10.894,1.969,3.008,-6.840,0.525,0.266,0.808,10.034,-7.740,-7.435,6.397,none
1.003593,0.533,-0.231,-0.814,2441.61,5.931,-2.910,-0.560,-0.458,-0.534,0.711,0.509,-0.319,-0.799,2605.52,5.819,-5.148,-0.560,-0.778,0.614,-0.130,0.268,-0.193,-0.944,2597.16,-0.336,4.476,0.895,0.461,-0.274,0.844,-0.140,0.426,-0.894,2546.11,6.155,2.126,4.364,-0.165,0.949,0.270,0.239,0.084,0.967,11.045,2.962,2.122,-8.702,0.533,0.260,0.805,10.071,-7.176,-6.611,3.313,none
1.003740,0.532,-0.251,-0.808,2482.71,3.917,-1.567,-0.448,-0.471,-0.545,0.693,0.503,-0.264,-0.823,2328.26,-0.671,-4.700,3.805,-0.778,0.616,-0.127,0.278,-0.150,-0.949,2508.15,-2.238,0.112,2.014,0.450,-0.261,0.854,-0.145,0.416,-0.898,2534.91,0.112,0.783,2.238,-0.164,0.950,0.265,0.255,0.080,0.963,10.974,2.992,2.473,-1.374,0.539,0.254,0.803,10.066,-7.084,-3.634,0.855,none
1.003879,0.529,-0.244,-0.812,2349.74,7.274,-3.469,1.567,-0.468,-0.526,0.710,0.500,-0.270,-0.823,2459.80,3.245,-3.245,2.014,-0.770,0.622,-0.139,0.277,-0.184,-0.943,2409.24,0.448,0.336,-0.560,0.476,-0.304,0.825,-0.144,0.418,-0.897,2548.05,-3.805,1.679,0.224,-0.164,0.951,0.263,0.219,0.086,0.972,10.888,6.305,3.328,-0.824,0.532,0.262,0.805,10.078,-6.229,-0.550,-0.672,none
1.004002,0.534,-0.256,-0.806,2477.17,5.931,-0.448,0.671,-0.459,-0.554,0.695,0.509,-0.285,-0.812,2358.81,5.931,-1.790,-0.336,-0.791,0.597,-0.134,0.277,-0.175,-0.945,2478.97,1.007,3.245,-2.574,0.476,-0.253,0.842,-0.135,0.426,-0.895,2499.97,-2.238,3.805,-0.560,-0.167,0.949,0.265,0.209,0.085,0.974,10.894,7.252,4.137,0.198,0.524,0.263,0.810,10.020,-6.992,0.061,-0.458,none
1.004169,0.532,-0.276,-0.801,2394.51,5.371,-1.679,1.231,-0.463,-0.545,0.699,0.506,-0.306,-0.806,2390.24,4.141,1.567,-2.798,-0.782,0.610,-0.129,0.276,-0.185,-0.943,2452.25,1.790,4.588,-2.798,0.481,-0.263,0.836,-0.138,0.423,-0.896,2518.34,0.671,3.805,-0.560,-0.167,0.951,0.261,0.197,0.086,0.977,11.032,8.076,5.008,-0.229,0.530,0.261,0.807,10.055,-6.916,0.412,-1.038,none
1.004297,0.532,-0.260,-0.806,2392.07,4.476,-1.567,1.790,-0.451,-0.565,0.691,0.502,-0.273,-0.821,2429.31,3.581,4.476,-3.469,-0.792,0.597,-0.128,0.274,-0.172,-0.946,2579.65,0.783,2.462,-3.693,0.502,-0.239,0.832,-0.133,0.429,-0.893,2525.50,1.455,3.357,-0.895,-0.166,0.951,0.259,0.202,0.087,0.975,10.952,6.656,7.023,-2.015,0.527,0.261,0.809,10.064,-7.389,2.626,-2.931,none
1.004429,0.529,-0.259,-0.808,2407.40,2.686,1.007,1.567,-0.462,-0.572,0.678,0.505,-0.278,-0.817,2453.08,5.819,6.043,-6.491,-0.783,0.605,-0.146,0.284,-0.169,-0.944,2450.01,1.343,-0.112,-3.133,0.461,-0.284,0.841,-0.140,0.422,-0.895,2542.77,-1.567,2.350,-1.343,-0.166,0.951,0.263,0.206,0.089,0.975,10.954,6.809,10.672,-2.504,0.522,0.264,0.812,10.031,-7.618,4.534,-3.878,none
1.004773,0.535,-0.270,-0.801,2454.54,4.029,1.902,2.686,-0.469,-0.554,0.688,0.520,-0.272,-0.810,2328.74,8.057,6.491,-8.281,-0.784,0.604,-0.144,0.291,-0.168,-0.942,2465.19,3.581,2.126,-5.036,0.440,-0.248,0.863,-0.130,0.418,-0.899,2521.47,-0.560,5.148,-2.910,-0.162,0.949,0.269,0.195,0.097,0.976,11.001,5.908,11.618,-1.618,0.504,0.270,0.821,10.003,-8.947,4.092,-2.794,none
1.004896,0.538,-0.271,-0.798,2476.76,5.483,-1.007,4.924,-0.461,-0.550,0.697,0.523,-0.325,-0.788,2556.70,10.519,8.617,-10.855,-0.787,0.602,-0.139,0.290,-0.189,-0.938,2507.47,2.126,3.133,-6.379,0.454,-0.243,0.857,-0.116,0.416,-0.902,2490.62,0.336,4.812,-3.021,-0.169,0.949,0.266,0.190,0.090,0.978,10.988,4.580,9.206,-0.931,0.512,0.261,0.818,10.062,-9.817,0.244,-1.115,none
1.005020,0.530,-0.251,-0.810,2440.52,5.148,-6.155,6.491,-0.455,-0.536,0.711,0.524,-0.321,-0.789,2553.47,6.379,5.148,-7.498,-0.775,0.619,-0.130,0.279,-0.195,-0.940,2574.36,0.000,-1.790,-7.274,0.473,-0.254,0.844,-0.125,0.410,-0.904,2550.72,0.000,3.693,-3.245,-0.163,0.947,0.276,0.186,0.091,0.978,10.965,3.511,6.718,-0.992,0.507,0.260,0.822,10.062,-9.130,-2.275,-0.092,none
1.005143,0.525,-0.281,-0.803,2498.44,7.162,-8.841,6.379,-0.445,-0.556,0.702,0.514,-0.314,-0.798,2485.86,7.274,1.902,-4.476,-0.776,0.618,-0.128,0.268,-0.194,-0.944,2493.22,0.448,-3.357,-5.595,0.509,-0.269,0.817,-0.127,0.421,-0.898,2501.31,-0.560,2.126,-2.798,-0.159,0.948,0.276,0.194,0.089,0.977,10.987,1.099,8.489,-1.389,0.516,0.257,0.817,10.099,-10.458,-6.397,-0.305,none
1.007837,0.508,-0.219,-0.833,3066.57,-8.952,-32.117,8.281,-0.456,-0.536,0.711,0.515,-0.317,-0.796,2555.74,5.931,0.783,-1.455,-0.781,0.612,-0.125,0.269,-0.176,-0.947,2514.70,-0.336,-2.574,-4.029,0.493,-0.263,0.829,-0.134,0.438,-0.889,2516.81,-3.133,-0.671,-2.350,-0.161,0.948,0.275,0.191,0.079,0.978,10.915,2.137,12.748,-3.710,0.532,0.246,0.810,10.214,-12.901,-3.328,-5.679,none
1.007995,0.504,-0.204,-0.840,2820.16,0.783,-52.036,13.429,-0.439,-0.548,0.712,0.516,-0.258,-0.817,2647.53,6.267,-0.448,1.007,-0.768,0.625,-0.142,0.284,-0.164,-0.945,2697.28,2.014,-6.043,-2.238,0.541,-0.235,0.808,-0.130,0.436,-0.891,2599.32,-2.126,-3.469,-5.148,-0.159,0.947,0.279,0.203,0.077,0.976,11.039,2.885,19.725,-7.832,0.586,0.231,0.777,10.203,-5.435,-20.840,-3.405,none
1.008121,0.490,-0.225,-0.842,2719.21,-2.574,-56.624,12.981,-0.446,-0.536,0.717,0.516,-0.256,-0.818,2631.63,11.974,-4.700,-0.895,-0.764,0.629,-0.145,0.271,-0.153,-0.950,2711.83,3.245,-17.010,-1.455,0.513,-0.263,0.817,-0.120,0.421,-0.899,2573.81,-1.119,-7.162,-11.862,-0.160,0.944,0.288,0.213,0.065,0.975,11.076,-0.962,22.015,-8.702,0.636,0.216,0.741,10.509,3.511,-25.008,11.099,none
1.020973,0.462,-0.133,-0.877,2543.31,-4.476,-67.032,12.086,-0.407,-0.575,0.709,0.499,-0.268,-0.824,2657.81,14.548,-8.057,-3.917,-0.756,0.638,-0.147,0.253,-0.119,-0.960,2408.99,8.393,-20.814,-0.336,0.565,-0.244,0.788,-0.167,0.410,-0.897,2550.27,0.112,-14.324,-16.338,-0.158,0.937,0.312,0.234,0.044,0.971,11.595,-8.458,13.496,-5.099,0.547,0.220,0.808,13.420,-19.344,-16.901,29.588,none
1.045095,0.422,-0.216,-0.880,2155.84,10.967,-59.646,-3.469,-0.396,-0.543,0.741,0.487,-0.189,-0.853,2421.87,17.010,-12.086,-5.931,-0.774,0.620,-0.131,0.254,-0.027,-0.967,2593.85,18.912,-18.017,-15.107,0.529,-0.257,0.809,-0.186,0.439,-0.879,2713.50,-2.574,-13.317,-23.053,-0.157,0.937,0.312,0.413,0.037,0.910,12.263,-12.779,-27.420,13.771,0.670,0.172,0.722,12.023,-59.053,-14.046,51.832,none
1.078534,0.387,0.034,-0.921,2474.87,8.617,-38.608,-13.317,-0.360,-0.548,0.755,0.483,-0.141,-0.864,2749.98,20.703,-2.910,-17.122,-0.775,0.619,-0.130,0.221,-0.170,-0.960,2887.67,37.712,-23.500,-20.703,0.561,-0.221,0.798,-0.211,0.426,-0.880,2709.46,-6.714,-29.767,-47.112,-0.155,0.925,0.348,0.003,0.006,1.000,13.475,-33.160,-7.237,25.160,0.834,0.099,0.543,9.993,-35.420,-19.679,76.153,none
1.091485,0.380,0.093,-0.920,2573.61,16.450,-23.724,-66.024,-0.298,-0.494,0.817,0.473,-0.094,-0.876,2869.68,25.291,-18.353,-50.805,-0.774,0.624,-0.106,0.195,-0.200,-0.960,2662.06,38.608,-29.319,-15.667,0.572,-0.230,0.788,-0.243,0.420,-0.874,2603.16,-13.876,-36.817,-57.408,-0.165,0.915,0.367,0.530,0.037,0.847,11.677,-32.122,-47.481,26.214,0.605,0.152,0.781,10.375,3.298,-10.366,87.573,none
1.514929,0.413,-0.253,-0.875,2348.37,28.200,-9.848,-90.868,-0.163,-0.553,0.817,0.483,-0.269,-0.833,2464.67,30.662,-25.738,-64.458,-0.782,0.619,-0.075,0.182,-0.182,-0.966,2323.33,41.181,-27.976,-13.205,0.555,-0.273,0.786,-0.285,0.445,-0.849,2565.74,-28.200,-40.510,-64.346,-0.172,0.904,0.391,0.327,0.019,0.945,10.470,-13.191,-34.901,59.511,0.589,0.153,0.793,10.134,-0.901,-13.878,80.015,none
1.517607,0.417,-0.102,-0.903,2557.77,21.598,-5.595,-89.077,-0.173,-0.443,0.880,0.485,-0.272,-0.831,2473.05,32.005,-24.619,-61.101,-0.787,0.610,-0.092,0.216,-0.079,-0.973,2143.22,52.484,-18.464,-20.255,0.549,-0.218,0.807,-0.302,0.455,-0.838,2446.91,-37.824,-39.167,-70.277,-0.181,0.885,0.429,0.161,0.004,0.987,11.730,-13.176,-22.809,53.511,0.637,0.121,0.761,9.194,4.351,-0.901,75.450,none
1.517821,0.420,-0.038,-0.907,2213.60,40.510,-14.436,-90.420,-0.098,-0.410,0.907,0.463,-0.253,-0.849,2314.43,39.279,-32.565,-53.379,-0.799,0.594,-0.095,0.174,-0.349,-0.921,2533.14,55.953,-30.215,-35.474,0.541,-0.235,0.808,-0.334,0.475,-0.814,2386.58,-29.207,-31.893,-71.060,-0.182,0.867,0.464,0.250,-0.030,0.968,10.612,-24.473,-5.237,40.534,0.616,0.084,0.783,7.978,22.397,9.863,64.122,none
1.518017,0.420,-0.330,-0.845,1886.64,58.079,-4.812,-100.827,-0.118,-0.270,0.956,0.458,-0.241,-0.855,1976.83,44.315,-34.803,-52.372,-0.808,0.587,-0.055,0.133,-0.321,-0.938,2298.19,44.762,-33.012,-34.019,0.590,-0.222,0.776,-0.359,0.396,-0.845,2413.96,-16.450,-24.060,-68.151,-0.176,0.852,0.493,0.270,-0.028,0.963,9.454,-19.405,-0.229,41.786,0.613,0.110,0.782,8.559,37.924,3.038,58.046,none
1.518190,0.428,-0.450,-0.784,2081.70,47.448,12.869,-104.184,-0.153,-0.277,0.949,0.458,-0.426,-0.780,2040.55,41.853,-22.941,-68.151,-0.812,0.581,-0.043,0.121,-0.388,-0.914,2434.91,32.117,-22.157,-34.467,0.586,-0.185,0.789,-0.342,0.376,-0.861,2334.91,-17.233,-16.226,-61.660,-0.170,0.819,0.548,0.188,-0.014,0.982,9.142,-3.725,-7.420,38.626,0.564,0.159,0.811,8.811,44.153,1.786,63.237,none
1.518370,0.467,-0.361,-0.807,2242.86,30.998,20.703,-103.289,-0.251,-0.146,0.957,0.472,-0.542,-0.695,2290.80,26.410,-12.757,-73.075,-0.838,0.544,-0.033,0.145,-0.428,-0.892,2569.51,13.541,-18.688,-25.291,0.581,-0.200,0.789,-0.324,0.375,-0.868,2339.21,-19.136,-14.883,-50.358,-0.162,0.795,0.584,0.070,-0.005,0.998,10.789,-2.489,-14.534,22.076,0.398,0.215,0.892,9.689,40.275,-8.519,54.702,none
1.518538,0.478,-0.505,-0.719,2886.43,23.612,21.486,-95.568,-0.281,-0.180,0.943,0.528,-0.475,-0.703,2364.10,10.855,-3.021,-59.310,-0.825,0.565,-0.020,0.201,-0.305,-0.931,2389.97,1.679,-20.367,-15.891,0.660,-0.225,0.717,-0.288,0.416,-0.863,2604.82,-16.674,-17.457,-33.796,-0.161,0.786,0.597,0.180,-0.015,0.983,11.111,0.260,-12.809,10.397,0.355,0.209,0.911,11.573,25.817,-12.076,35.496,none
1.518696,0.479,-0.456,-0.750,3106.32,4.141,12.981,-67.255,-0.282,-0.198,0.939,0.520,-0.444,-0.729,3059.64,8.841,-6.267,-29.767,-0.831,0.557,-0.012,0.220,-0.307,-0.926,2498.15,7.162,-15.331,-17.122,0.646,-0.181,0.742,-0.273,0.387,-0.881,2673.10,-8.617,-9.176,-26.186,-0.163,0.772,0.614,0.195,-0.011,0.981,12.198,4.290,-12.916,19.832,0.477,0.201,0.856,11.525,5.344,-11.359,28.107,none
1.518853,0.520,-0.335,-0.786,2677.33,-0.448,-7.610,-31.781,-0.316,-0.159,0.935,0.544,-0.371,-0.753,2873.28,5.931,-24.731,-10.967,-0.839,0.543,0.029,0.201,-0.384,-0.901,2685.71,14.660,-13.317,-14.212,0.630,-0.194,0.752,-0.265,0.403,-0.876,2565.93,-10.295,-10.183,-24.172,-0.166,0.762,0.626,0.109,-0.015,0.994,11.538,-6.824,-12.916,20.656,0.465,0.204,0.861,10.244,1.725,-9.969,28.504,none
1.519009,0.517,-0.352,-0.780,2519.70,-2.686,-11.526,-27.753,-0.340,-0.231,0.912,0.530,-0.397,-0.749,2336.41,5.819,-29.991,-11.079,-0.835,0.550,0.001,0.177,-0.427,-0.887,2440.34,12.645,-13.988,4.141,0.641,-0.204,0.740,-0.279,0.387,-0.879,2444.27,-2.350,-17.569,-20.814,-0.164,0.748,0.643,0.043,-0.003,0.999,9.955,-10.214,-13.313,6.595,0.323,0.234,0.917,9.693,-4.901,-13.328,16.779,none
1.519164,0.505,-0.492,-0.709,2481.62,-4.252,-16.674,-15.779,-0.328,-0.192,0.925,0.504,-0.556,-0.661,2304.66,3.917,-26.634,-9.400,-0.850,0.527,0.012,0.174,-0.426,-0.888,2261.39,2.238,-2.686,10.631,0.659,-0.222,0.719,-0.280,0.383,-0.880,2395.62,-5.260,-17.122,-1.343,-0.183,0.733,0.655,0.019,0.024,1.000,9.126,4.015,-17.481,-10.702,0.300,0.265,0.916,8.608,-14.473,-26.214,-6.137,none
1.519334,0.519,-0.518,-0.680,2415.46,-17.681,-18.353,4.029,-0.339,-0.200,0.919,0.504,-0.579,-0.640,2379.96,-9.736,-20.479,5.371,-0.843,0.538,0.030,0.214,-0.415,-0.884,2248.52,-10.295,12.645,14.660,0.797,-0.193,0.572,-0.249,0.381,-0.890,2379.76,-18.464,-15.555,16.114,-0.184,0.722,0.667,-0.013,0.048,0.999,9.802,11.511,-17.481,-31.511,0.278,0.291,0.916,9.336,-19.359,-40.473,-28.595,none
1.519504,0.519,-0.522,-0.677,2585.20,-36.146,-19.024,22.605,-0.317,-0.216,0.923,0.546,-0.491,-0.679,2449.56,-31.110,-21.038,26.522,-0.853,0.521,0.023,0.246,-0.404,-0.881,2191.71,-21.934,29.207,20.367,0.696,-0.252,0.672,-0.233,0.444,-0.865,2461.26,-19.024,-12.869,32.788,-0.195,0.729,0.657,0.043,0.065,0.997,10.495,16.977,-17.344,-55.237,0.356,0.314,0.880,9.787,-33.954,-46.794,-51.985,none
1.519666,0.570,-0.461,-0.680,2371.46,-55.281,-16.003,58.527,-0.306,-0.239,0.922,0.589,-0.437,-0.680,2169.70,-40.622,-11.526,49.350,-0.836,0.548,0.018,0.333,-0.317,-0.888,2449.20,-24.060,43.084,24.955,0.782,-0.235,0.577,-0.217,0.469,-0.856,2498.75,-7.386,-5.260,44.315,-0.228,0.741,0.632,0.203,0.096,0.975,10.992,18.000,-15.985,-64.015,0.542,0.319,0.778,10.029,-37.130,-49.527,-64.992,none
1.519822,0.577,-0.338,-0.743,2883.96,-65.801,-19.248,81.356,-0.319,-0.261,0.911,0.602,-0.346,-0.720,2483.66,-45.210,-3.693,63.227,-0.844,0.534,0.052,0.369,-0.256,-0.893,2842.36,-30.550,35.922,23.053,0.709,-0.296,0.641,-0.187,0.488,-0.853,2483.68,-3.917,-1.790,45.769,-0.258,0.746,0.614,0.297,0.092,0.950,11.315,19.863,-20.550,-54.977,0.638,0.276,0.719,11.511,-44.336,-53.038,-57.725,none
1.519977,0.576,-0.194,-0.794,2858.17,-75.648,-41.181,101.051,-0.260,-0.289,0.921,0.570,-0.182,-0.801,2894.86,-53.491,-16.786,72.515,-0.835,0.547,0.054,0.332,-0.181,-0.926,2983.86,-38.160,11.302,19.248,0.679,-0.354,0.643,-0.250,0.498,-0.831,2728.13,-4.029,-5.260,37.936,-0.292,0.761,0.579,0.348,0.048,0.936,12.478,19.954,-28.122,-42.458,0.711,0.208,0.672,11.476,-44.198,-50.824,-43.282,none
1.538927,0.500,0.158,-0.851,2447.65,-69.717,-32.900,80.013,-0.231,-0.342,0.911,0.523,-0.111,-0.845,2802.59,-46.889,-23.053,57.631,-0.833,0.551,0.049,0.267,-0.244,-0.932,2828.43,-32.900,-2.350,19.472,0.686,-0.358,0.633,-0.260,0.491,-0.831,2726.96,-6.491,-7.722,29.543,-0.311,0.777,0.547,0.359,0.039,0.932,12.353,11.771,-25.282,-22.443,0.777,0.164,0.608,10.852,-32.718,-42.122,-27.924,none
1.539138,0.418,0.227,-0.879,2481.04,-46.553,-21.150,43.531,-0.216,-0.307,0.927,0.467,-0.078,-0.881,2465.69,-34.803,-23.948,39.950,-0.846,0.533,0.009,0.249,-0.233,-0.940,2449.64,-28.200,-13.317,26.186,0.732,-0.355,0.581,-0.280,0.531,-0.800,2538.66,-15.331,-10.183,20.255,-0.334,0.788,0.518,0.336,0.032,0.941,10.772,9.130,-18.992,-15.282,0.765,0.153,0.626,10.174,-16.840,-26.702,-13.847,none
1.539267,0.410,-0.007,-0.912,2168.15,-21.038,-15.443,15.667,-0.127,-0.406,0.905,0.414,-0.047,-0.909,2022.75,-24.507,-15.443,21.822,-0.821,0.569,0.040,0.235,-0.097,-0.967,2136.03,-23.948,-9.848,24.619,0.606,-0.366,0.707,-0.332,0.540,-0.773,2460.28,-17.233,-7.162,13.988,-0.351,0.792,0.500,0.351,0.036,0.936,11.031,8.763,-9.725,-13.344,0.704,0.157,0.693,9.776,-14.412,-14.931,-9.557,none
1.539405,0.406,-0.155,-0.901,2314.95,-9.176,-10.519,14.883,-0.191,-0.437,0.879,0.398,-0.161,-0.903,2176.61,-10.743,-3.245,10.855,-0.829,0.557,0.039,0.211,-0.100,-0.972,2186.51,-10.631,-0.448,6.826,0.558,-0.360,0.748,-0.355,0.552,-0.755,2443.73,-8.057,0.336,10.072,-0.356,0.805,0.475,0.379,0.030,0.925,10.536,7.969,-2.229,-10.779,0.726,0.139,0.674,9.590,-11.038,-10.336,-13.115,none
1.548612,0.369,0.027,-0.929,2011.07,-6.714,-6.043,19.807,-0.178,-0.421,0.889,0.386,-0.137,-0.912,2196.37,-4.476,4.588,9.288,-0.825,0.565,0.024,0.189,-0.171,-0.967,2542.91,-7.162,2.574,0.000,0.666,-0.357,0.655,-0.350,0.511,-0.785,2561.33,4.252,5.260,6.043,-0.367,0.806,0.465,0.417,0.022,0.909,10.972,13.908,0.824,-6.107,0.790,0.111,0.602,10.068,-3.176,-10.000,-9.603,none
1.565189,0.362,0.086,-0.928,2214.21,-8.057,12.869,2.574,-0.163,-0.446,0.880,0.384,-0.104,-0.918,2334.43,-5.036,18.800,-10.295,-0.830,0.558,0.009,0.192,-0.178,-0.965,2658.80,-6.491,-0.895,-2.798,0.642,-0.305,0.704,-0.357,0.510,-0.783,2568.40,-4.924,5.819,2.350,-0.363,0.811,0.459,0.400,0.019,0.916,11.588,13.176,6.824,0.519,0.765,0.124,0.632,10.452,11.405,-5.832,-1.969,none
1.590402,0.393,0.013,-0.919,2660.88,-3.805,29.655,-24.619,-0.123,-0.428,0.895,0.411,-0.121,-0.904,2564.77,-0.895,22.493,-18.017,-0.817,0.574,0.052,0.172,-0.124,-0.977,2396.49,0.336,-4.476,-2.014,0.588,-0.346,0.731,-0.332,0.543,-0.771,2607.62,-9.288,4.252,-5.148,-0.368,0.823,0.432,0.361,0.027,0.932,12.130,5.725,10.458,9.481,0.685,0.157,0.712,12.047,9.878,-0.519,5.603,none
1.605386,0.412,-0.087,-0.907,3110.79,7.945,15.555,-23.165,-0.190,-0.463,0.866,0.428,-0.164,-0.889,2731.29,12.198,16.674,-18.464,-0.835,0.550,0.015,0.174,-0.129,-0.976,2378.21,18.576,-1.007,-6.155,0.630,-0.293,0.719,-0.326,0.557,-0.764,2596.83,1.790,2.014,-15.331,-0.347,0.817,0.461,0.349,0.015,0.937,11.991,-2.427,7.145,12.122,0.704,0.146,0.695,11.645,-6.779,8.992,15.756,none
2.023308,0.404,-0.017,-0.915,2643.34,22.717,-6.826,-13.653,-0.128,-0.431,0.893,0.440,-0.166,-0.883,2750.14,23.612,5.931,-11.302,-0.818,0.575,0.015,0.192,-0.170,-0.967,2553.52,30.215,-2.014,-9.736,0.577,-0.302,0.759,-0.331,0.524,-0.785,2650.70,14.324,-0.560,-22.381,-0.326,0.800,0.505,0.355,0.006,0.935,12.071,-8.962,5.756,17.435,0.741,0.125,0.660,10.937,-1.405,10.443,22.595,none
2.023520,0.396,-0.024,-0.918,2622.98,30.438,-10.519,-19.807,-0.174,-0.391,0.904,0.432,-0.140,-0.891,2778.83,32.565,-6.714,-14.324,-0.834,0.549,0.052,0.208,-0.091,-0.974,2496.43,36.817,-4.364,-15.107,0.599,-0.280,0.751,-0.355,0.499,-0.791,2606.76,13.876,-3.245,-31.781,-0.299,0.793,0.531,0.386,-0.008,0.922,11.495,-17.863,2.458,22.061,0.750,0.116,0.651,11.121,-2.290,17.374,34.962,none
2.023661,0.392,-0.018,-0.920,2500.09,36.817,-14.100,-32.900,-0.223,-0.329,0.918,0.419,-0.132,-0.898,2580.59,39.391,-16.114,-23.053,-0.835,0.550,0.025,0.165,-0.269,-0.949,2374.88,51.253,-2.462,-24.955,0.702,-0.277,0.657,-0.369,0.481,-0.796,2539.16,13.429,-0.783,-39.167,-0.280,0.782,0.557,0.394,-0.026,0.919,10.576,-13.771,3.298,31.023,0.749,0.083,0.658,9.293,3.924,26.565,43.649,none
2.023790,0.352,-0.073,-0.933,2086.31,44.650,-8.952,-42.077,-0.234,-0.256,0.938,0.354,-0.269,-0.896,2139.22,45.658,-16.450,-31.669,-0.838,0.544,0.036,0.103,-0.349,-0.932,2481.75,53.603,1.567,-27.081,0.627,-0.297,0.721,-0.423,0.435,-0.795,2444.69,10.183,3.805,-41.405,-0.245,0.759,0.603,0.442,-0.060,0.895,9.284,-3.969,4.809,32.977,0.711,0.038,0.702,8.200,18.565,19.023,38.198,none
2.024757,0.299,-0.053,-0.953,1766.38,36.146,5.595,-52.484,-0.220,-0.264,0.939,0.313,-0.315,-0.896,2105.27,35.810,-6.826,-39.727,-0.822,0.569,0.025,0.114,-0.305,-0.945,2674.83,36.257,3.469,-25.403,0.654,-0.191,0.732,-0.450,0.431,-0.783,2494.53,-1.119,3.581,-38.160,-0.217,0.742,0.634,0.304,-0.085,0.949,10.379,12.641,-0.977,24.580,0.808,0.018,0.589,8.372,43.160,7.740,29.710,none
2.024986,0.298,0.284,-0.911,1672.19,26.186,33.907,-76.096,-0.263,-0.274,0.925,0.364,-0.215,-0.906,2081.41,25.515,13.653,-49.015,-0.829,0.558,0.047,0.116,-0.317,-0.941,2633.89,30.103,-5.707,-23.276,0.612,-0.234,0.756,-0.437,0.445,-0.782,2570.10,1.567,-3.805,-38.943,-0.183,0.706,0.684,0.424,-0.042,0.905,12.170,7.405,3.053,21.786,0.791,0.095,0.604,10.308,70.351,16.534,34.870,none
2.025171,0.456,-0.002,-0.890,2275.54,37.041,74.641,-116.270,-0.263,-0.360,0.895,0.442,-0.130,-0.888,2536.25,18.576,27.305,-64.234,-0.829,0.558,0.047,0.201,-0.269,-0.942,2340.16,31.669,-13.429,-23.388,0.680,-0.188,0.709,-0.428,0.460,-0.778,2508.97,2.014,-1.902,-46.665,-0.145,0.663,0.734,0.424,0.007,0.906,11.742,-4.122,14.107,49.817,0.638,0.196,0.744,11.436,68.641,29.221,49.191,none
2.025339,0.499,-0.224,-0.837,3180.51,52.820,68.822,-111.122,-0.330,-0.288,0.899,0.481,-0.146,-0.865,2534.29,43.643,13.764,-69.829,-0.827,0.561,0.040,0.177,-0.296,-0.939,2057.51,39.615,-7.162,-26.745,0.732,-0.164,0.661,-0.354,0.487,-0.798,2505.52,0.671,5.260,-50.805,-0.089,0.625,0.776,0.169,0.019,0.985,11.757,-14.137,14.794,49.557,0.495,0.255,0.831,11.417,44.885,37.405,48.305,none
2.025499,0.562,-0.269,-0.782,2351.66,64.570,33.684,-76.767,-0.368,-0.277,0.888,0.523,-0.257,-0.812,2274.52,50.805,12.757,-70.613,-0.824,0.563,0.060,0.186,-0.372,-0.910,2326.44,46.777,6.938,-26.522,0.793,-0.158,0.588,-0.330,0.487,-0.809,2509.45,12.645,9.960,-44.315,-0.048,0.593,0.804,0.289,-0.015,0.957,11.968,-32.382,12.626,42.351,0.535,0.211,0.818,10.974,20.794,41.939,45.481,none
2.025668,0.512,-0.388,-0.766,2465.63,62.220,34.019,-60.317,-0.386,-0.265,0.884,0.487,-0.422,-0.765,1941.05,44.650,32.453,-72.851,-0.825,0.564,0.023,0.161,-0.441,-0.883,2918.76,42.748,8.169,-25.067,0.872,-0.107,0.478,-0.367,0.355,-0.860,2418.54,24.731,15.667,-32.565,-0.014,0.564,0.826,0.337,-0.041,0.940,11.084,-53.221,8.229,54.672,0.569,0.190,0.800,10.727,0.595,34.763,55.771,none
2.025845,0.508,-0.336,-0.793,2874.86,53.603,28.536,-52.372,-0.395,-0.313,0.864,0.529,-0.425,-0.735,1860.81,26.186,59.310,-89.301,-0.845,0.532,0.047,0.197,-0.424,-0.884,2849.25,16.226,0.671,-18.241,0.948,-0.057,0.312,-0.361,0.334,-0.870,2479.32,18.576,5.483,-22.493,0.022,0.512,0.859,0.172,-0.094,0.981,9.598,-47.939,-1.511,60.260,0.453,0.205,0.867,11.472,-19.557,16.840,66.015,none
2.026012,0.526,-0.301,-0.796,3112.88,38.831,-14.324,-26.298,-0.405,-0.299,0.864,0.635,0.368,-0.680,1983.34,29.655,81.020,-123.880,-0.851,0.523,0.054,0.263,-0.351,-0.899,2802.38,-7.274,-0.448,-22.157,0.894,-0.104,0.436,-0.341,0.377,-0.861,2484.09,10.519,-2.798,-14.100,0.050,0.502,0.864,0.109,-0.113,0.988,10.659,-34.504,-15.557,37.084,0.412,0.191,0.891,10.753,-40.550,8.763,54.779,none
2.026217,0.532,-0.277,-0.800,2923.98,41.069,-44.315,-1.231,-0.432,-0.291,0.854,0.690,-0.281,-0.667,2505.17,62.443,104.296,-159.130,-0.866,0.500,-0.004,0.290,-0.346,-0.893,2645.08,-9.064,-13.988,-20.255,0.868,-0.133,0.478,-0.360,0.425,-0.831,2573.98,4.252,-3.469,-16.674,0.062,0.472,0.879,0.225,-0.094,0.970,11.335,-32.718,-5.771,27.725,0.549,0.181,0.816,9.550,-39.802,10.595,39.893,none
2.026392,0.556,-0.270,-0.786,2377.88,45.658,-47.224,10.295,-0.382,-0.260,0.887,0.627,-0.500,-0.597,3523.60,57.743,99.260,-127.685,-0.884,0.459,-0.085,0.248,-0.466,-0.849,2133.14,5.595,-16.674,-15.555,0.845,-0.085,0.527,-0.325,0.368,-0.871,2489.64,2.126,0.560,-19.472,0.084,0.450,0.889,0.139,-0.120,0.983,9.560,-23.496,4.107,28.031,0.504,0.190,0.843,8.446,-27.420,14.855,33.878,none
2.026542,0.564,-0.367,-0.740,2047.00,41.069,-30.886,5.595,-0.372,-0.257,0.892,0.612,-0.465,-0.640,3870.64,33.460,48.008,-61.996,-0.898,0.436,-0.058,0.282,-0.440,-0.852,2298.20,6.043,-2.686,-16.114,0.905,-0.088,0.417,-0.307,0.373,-0.876,2408.40,2.910,3.357,-14.436,0.120,0.429,0.895,0.075,-0.118,0.990,8.727,-1.008,6.901,15.267,0.437,0.207,0.875,7.083,-10.656,8.458,19.160,none
2.026688,0.560,-0.464,-0.686,2166.57,17.122,-14.324,-2.462,-0.355,-0.296,0.887,0.648,-0.404,-0.645,3485.81,20.926,-10.967,-8.841,-0.914,0.399,-0.073,0.318,-0.414,-0.853,2377.10,4.364,4.029,-14.324,0.895,-0.107,0.432,-0.281,0.352,-0.893,2383.81,2.798,6.267,-7.050,0.118,0.419,0.900,0.118,-0.102,0.988,9.015,21.969,8.366,1.389,0.413,0.227,0.882,8.117,8.366,-8.290,0.229,none
2.042932,0.581,-0.419,-0.698,2142.89,-6.043,-2.014,-2.462,-0.346,-0.269,0.899,0.697,-0.392,-0.600,2718.91,5.148,-41.181,20.255,-0.906,0.416,-0.072,0.344,-0.429,-0.835,2452.62,-1.231,9.064,-14.772,0.876,-0.114,0.469,-0.262,0.335,-0.905,2447.92,-3.357,9.176,1.567,0.145,0.389,0.910,0.142,-0.089,0.986,10.353,37.466,11.573,-1.206,0.483,0.247,0.840,9.008,18.458,-11.588,-12.321,none
2.043224,0.647,-0.293,-0.704,2164.09,-11.862,14.212,-4.588,-0.344,-0.259,0.903,0.749,-0.306,-0.588,2676.33,5.931,-40.846,33.348,-0.900,0.433,-0.051,0.366,-0.415,-0.833,2436.89,0.448,10.743,-13.653,0.845,-0.126,0.520,-0.233,0.325,-0.916,2580.61,-14.660,12.645,1.790,0.140,0.403,0.904,0.156,-0.069,0.985,12.128,33.954,6.595,-0.427,0.535,0.225,0.814,10.026,32.198,-16.489,-16.076,none
2.043361,0.585,-0.229,-0.778,2679.27,-21.822,19.248,-13.988,-0.390,-0.279,0.878,0.669,-0.329,-0.666,3302.38,-1.455,-60.429,50.805,-0.884,0.463,-0.071,0.280,-0.416,-0.865,2977.24,2.350,16.338,-12.869,0.926,-0.093,0.366,-0.282,0.374,-0.883,2687.37,-24.172,6.714,-1.455,0.155,0.374,0.914,0.185,-0.080,0.980,12.165,23.252,-5.908,-5.924,0.532,0.200,0.823,11.569,34.626,-17.588,-9.603,none
2.043474,0.562,-0.259,-0.786,2666.81,-25.291,17.681,-23.500,-0.382,-0.250,0.890,0.652,-0.331,-0.683,2865.37,-11.191,-84.601,66.584,-0.883,0.469,-0.037,0.257,-0.433,-0.864,3017.07,-0.336,7.833,0.448,0.933,-0.049,0.357,-0.310,0.409,-0.858,2673.84,-29.655,-1.679,0.224,0.141,0.397,0.907,0.224,-0.087,0.971,11.433,17.878,-15.145,-3.282,0.535,0.195,0.822,11.565,20.198,-23.069,-3.252,none
2.048661,0.541,-0.220,-0.811,2605.10,-29.207,17.681,-24.619,-0.397,-0.276,0.875,0.645,-0.282,-0.710,2285.07,-24.060,-84.489,65.689,-0.863,0.505,0.004,0.280,-0.332,-0.901,2698.58,-16.786,-4.141,10.183,0.879,-0.070,0.471,-0.350,0.439,-0.828,2559.27,-31.893,-8.057,2.910,0.128,0.400,0.907,0.255,-0.088,0.963,11.331,13.527,-16.519,-4.656,0.580,0.176,0.795,10.849,7.603,-20.168,1.725,none
2.072347,0.525,-0.168,-0.834,2369.49,-21.486,15.443,-23.388,-0.400,-0.277,0.874,0.597,-0.086,-0.798,1665.84,-22.045,-67.479,48.455,-0.858,0.513,-0.001,0.246,-0.328,-0.912,2276.27,-17.122,-11.079,12.086,0.907,-0.118,0.405,-0.384,0.455,-0.804,2514.38,-15.331,-7.833,3.245,0.093,0.425,0.900,0.284,-0.102,0.953,10.800,12.962,-7.588,-2.550,0.608,0.149,0.780,10.009,1.237,-9.786,4.031,none
2.089916,0.493,-0.178,-0.852,2343.49,-10.295,14.883,-17.233,-0.426,-0.277,0.861,0.509,-0.088,-0.856,1528.63,-7.722,-34.131,21.374,-0.851,0.525,-0.003,0.194,-0.291,-0.937,2132.36,-7.162,1.119,6.043,0.836,-0.112,0.538,-0.421,0.457,-0.784,2478.49,-5.036,1.679,2.910,0.108,0.408,0.907,0.291,-0.108,0.951,10.747,11.481,1.725,-5.634,0.567,0.136,0.812,9.832,-6.321,-4.092,-4.366,none
2.124028,0.479,-0.205,-0.854,2557.20,2.014,5.036,3.245,-0.392,-0.332,0.858,0.497,-0.268,-0.825,1704.67,5.148,19.024,-15.107,-0.841,0.540,0.041,0.177,-0.298,-0.938,2277.27,-0.783,9.736,0.671,0.831,-0.128,0.541,-0.417,0.457,-0.786,2523.20,-3.357,7.945,5.036,0.076,0.438,0.896,0.313,-0.109,0.943,10.440,16.229,2.519,-9.237,0.624,0.130,0.771,9.838,-5.267,-8.947,-12.214,none
2.532612,0.506,-0.152,-0.849,2419.20,-2.574,3.805,6.938,-0.396,-0.307,0.866,0.553,-0.260,-0.792,2100.38,-5.148,51.812,-30.774,-0.848,0.530,0.027,0.208,-0.309,-0.928,2544.52,-0.336,15.891,0.448,0.801,-0.128,0.585,-0.399,0.449,-0.799,2566.04,-2.350,6.379,6.491,0.070,0.449,0.891,0.356,-0.087,0.930,11.144,23.893,-6.076,-7.802,0.676,0.133,0.725,10.120,2.351,-17.603,-12.107,none
2.535540,0.510,-0.092,-0.855,2516.91,-8.281,3.021,-0.112,-0.400,-0.343,0.850,0.569,-0.147,-0.809,2573.83,-15.107,71.620,-47.224,-0.876,0.482,0.020,0.263,-0.239,-0.935,2799.63,-3.133,14.212,-4.364,0.876,-0.041,0.481,-0.388,0.465,-0.796,2564.09,-5.260,2.798,4.141,0.071,0.460,0.885,0.358,-0.077,0.930,11.196,25.237,-7.664,-1.405,0.686,0.147,0.713,10.588,7.405,-15.435,-7.679,none
2.535739,0.512,-0.066,-0.856,2445.63,-4.364,1.231,-4.924,-0.411,-0.301,0.861,0.572,-0.138,-0.808,2817.65,-9.064,66.584,-54.834,-0.861,0.508,-0.034,0.242,-0.299,-0.923,2632.74,-1.902,-4.476,-7.386,0.734,-0.118,0.669,-0.385,0.478,-0.790,2533.21,-5.148,2.910,-3.245,0.072,0.441,0.895,0.355,-0.063,0.933,11.440,22.504,-4.046,5.679,0.667,0.158,0.728,10.377,9.420,-9.435,-2.580,none
2.535902,0.513,-0.129,-0.848,2479.74,3.917,0.783,-7.498,-0.398,-0.295,0.869,0.564,-0.249,-0.787,3134.55,4.141,46.553,-48.455,-0.869,0.493,-0.039,0.252,-0.201,-0.947,2257.63,1.343,-1.343,-9.960,0.660,-0.122,0.741,-0.384,0.494,-0.780,2514.11,-5.931,5.148,-8.393,0.081,0.422,0.903,0.331,-0.055,0.942,11.516,15.099,2.244,11.969,0.663,0.172,0.729,10.573,7.099,-1.817,-1.573,none
2.536061,0.516,-0.146,-0.844,2446.10,10.072,-1.343,-3.357,-0.391,-0.316,0.865,0.586,-0.223,-0.779,2750.22,16.003,2.014,-9.512,-0.886,0.461,-0.045,0.240,-0.261,-0.935,2295.17,15.219,3.245,-16.114,0.782,-0.081,0.618,-0.374,0.469,-0.800,2500.74,3.581,10.072,-12.533,0.085,0.428,0.900,0.329,-0.057,0.943,10.917,8.427,7.313,14.412,0.670,0.181,0.720,9.862,7.924,6.687,4.366,none
2.536818,0.540,-0.105,-0.835,2285.02,15.779,1.231,-6.602,-0.376,-0.328,0.867,0.629,-0.215,-0.747,2172.02,17.905,1.119,-6.267,-0.876,0.477,-0.071,0.254,-0.356,-0.900,2515.80,19.807,6.043,-16.898,0.728,-0.099,0.678,-0.370,0.445,-0.815,2501.57,6.602,12.086,-12.981,0.106,0.422,0.900,0.315,-0.070,0.946,10.152,15.038,8.427,18.977,0.633,0.187,0.751,9.752,11.008,6.672,6.382,none
2.537017,0.533,-0.172,-0.828,2479.70,16.450,2.798,-10.072,-0.375,-0.324,0.868,0.625,-0.209,-0.753,2470.42,16.003,9.960,-11.526,-0.862,0.501,-0.081,0.305,-0.233,-0.923,2537.63,10.855,5.483,-19.360,0.828,-0.038,0.559,-0.356,0.432,-0.829,2463.11,2.238,15.107,-13.317,0.118,0.411,0.904,0.310,-0.060,0.949,11.084,17.298,2.397,20.000,0.602,0.195,0.775,10.741,6.427,-1.985,8.656,none
2.537195,0.527,-0.184,-0.830,2805.75,10.183,-9.848,-3.693,-0.390,-0.283,0.876,0.614,-0.239,-0.753,2897.98,15.891,-3.357,-8.057,-0.862,0.504,-0.054,0.296,-0.282,-0.913,2685.61,15.219,-1.007,-29.431,0.799,-0.059,0.598,-0.342,0.438,-0.831,2561.82,-5.371,14.548,-17.122,0.137,0.391,0.910,0.276,-0.066,0.959,11.464,13.725,-2.214,22.321,0.618,0.189,0.763,10.790,1.695,-3.206,13.649,none
2.538173,0.540,-0.140,-0.830,2487.37,9.848,-18.800,-4.924,-0.373,-0.316,0.872,0.627,-0.255,-0.737,2681.33,17.122,-16.338,-3.917,-0.860,0.507,-0.062,0.246,-0.402,-0.882,2711.71,17.122,-9.176,-32.005,0.749,-0.080,0.658,-0.352,0.414,-0.839,2571.81,-7.386,11.638,-19.695,0.155,0.375,0.914,0.256,-0.081,0.963,11.037,12.687,-6.122,21.954,0.594,0.188,0.782,10.042,4.840,-2.550,16.122,none
2.538393,0.528,-0.229,-0.817,2335.22,11.191,-14.995,-12.869,-0.380,-0.298,0.876,0.612,-0.306,-0.729,2521.35,14.772,-18.576,-4.924,-0.861,0.504,-0.063,0.246,-0.411,-0.878,2557.15,10.855,-11.862,-24.172,0.712,-0.033,0.702,-0.364,0.415,-0.834,2541.37,-12.533,7.498,-19.248,0.172,0.350,0.921,0.233,-0.094,0.968,10.896,15.374,-6.641,18.840,0.546,0.177,0.819,9.637,9.863,-2.962,10.137,none
2.538559,0.502,-0.270,-0.822,2418.34,8.617,-6.602,-14.324,-0.376,-0.338,0.863,0.594,-0.323,-0.737,2481.84,14.772,-19.919,0.448,-0.871,0.487,-0.071,0.259,-0.339,-0.905,2351.30,10.183,-9.512,-21.262,0.694,-0.059,0.717,-0.376,0.416,-0.828,2488.16,-8.729,8.057,-17.905,0.189,0.342,0.920,0.307,-0.092,0.947,10.562,20.473,-9.908,17.725,0.581,0.179,0.794,10.285,12.458,-12.031,1.847,none
2.538714,0.496,-0.243,-0.834,2724.13,0.671,-7.498,-10.743,-0.366,-0.317,0.875,0.596,-0.215,-0.774,2541.54,11.638,-20.367,4.588,-0.854,0.515,-0.077,0.284,-0.256,-0.924,2726.39,9.960,-16.114,-37.600,0.604,-0.047,0.796,-0.374,0.425,-0.824,2524.46,-8.617,9.064,-20.479,0.199,0.320,0.926,0.330,-0.078,0.941,11.222,21.924,-12.443,20.779,0.660,0.164,0.733,11.178,1.618,-11.435,12.534,none
2.538864,0.515,-0.139,-0.846,2509.29,0.112,-22.045,-4.252,-0.336,-0.331,0.882,0.602,-0.234,-0.763,2497.41,14.883,-23.276,-1.790,-0.843,0.535,-0.057,0.242,-0.447,-0.861,2638.87,19.584,-22.717,-40.510,0.571,-0.066,0.818,-0.365,0.423,-0.830,2589.16,-11.191,7.050,-22.605,0.223,0.296,0.929,0.341,-0.061,0.938,11.476,24.260,-13.374,30.580,0.664,0.179,0.726,10.381,4.489,-9.908,21.756,none
2.539018,0.515,-0.077,-0.854,2244.66,5.371,-21.262,-12.198,-0.336,-0.292,0.895,0.595,-0.199,-0.779,2395.85,14.100,-20.255,-9.512,-0.832,0.550,-0.066,0.240,-0.353,-0.904,2449.77,5.148,-19.360,-28.424,0.527,-0.080,0.846,-0.372,0.443,-0.816,2514.25,-13.988,4.364,-25.067,0.229,0.284,0.931,0.252,-0.056,0.966,11.497,15.237,-10.076,29.878,0.636,0.191,0.748,9.797,8.901,-1.573,24.168,none
2.539174,0.504,-0.160,-0.849,2176.72,11.079,-11.750,-23.948,-0.337,-0.317,0.887,0.586,-0.241,-0.773,2263.08,18.800,-17.122,-18.017,-0.829,0.554,-0.081,0.259,-0.242,-0.935,2274.79,5.260,-14.883,-30.550,0.539,-0.066,0.839,-0.377,0.468,-0.799,2503.32,-8.505,5.819,-24.619,0.244,0.257,0.935,0.331,-0.060,0.942,10.686,11.191,-5.863,27.863,0.634,0.191,0.749,9.881,10.870,3.740,21.405,none
2.539336,0.504,-0.161,-0.849,2351.83,14.436,-5.483,-24.284,-0.307,-0.343,0.888,0.606,-0.188,-0.773,2173.33,20.703,-8.952,-19.584,-0.829,0.557,-0.044,0.323,-0.250,-0.913,2522.88,10.855,-12.198,-40.622,0.502,-0.086,0.861,-0.371,0.446,-0.814,2494.23,-3.581,9.736,-26.298,0.252,0.254,0.934,0.410,-0.047,0.911,10.582,17.267,-7.099,33.389,0.678,0.197,0.708,10.542,10.305,1.115,23.542,none
2.540708,0.517,-0.106,-0.850,2557.83,13.429,-4.924,-23.165,-0.308,-0.393,0.866,0.617,-0.062,-0.784,2482.80,23.948,-0.783,-27.753,-0.817,0.574,-0.057,0.373,-0.123,-0.920,2737.82,11.079,-26.522,-62.443,0.614,-0.014,0.789,-0.350,0.471,-0.810,2532.63,-14.883,13.205,-35.586,0.262,0.237,0.936,0.394,-0.021,0.919,11.765,21.817,-12.214,43.038,0.741,0.196,0.642,11.370,11.985,-2.046,35.817,none
2.540911,0.514,0.046,-0.856,2856.27,17.345,-14.883,-26.522,-0.307,-0.323,0.895,0.608,0.019,-0.794,2846.02,36.369,-6.938,-45.993,-0.825,0.563,-0.037,0.398,-0.045,-0.916,2663.92,17.681,-32.005,-84.265,0.535,-0.047,0.844,-0.338,0.510,-0.791,2567.13,-13.205,17.233,-49.574,0.284,0.213,0.935,0.475,0.003,0.880,12.003,21.145,-19.008,58.504,0.775,0.195,0.601,11.411,16.153,8.321,54.321,none
2.541093,0.500,0.173,-0.849,2467.60,34.691,-24.060,-56.065,-0.277,-0.340,0.899,0.583,0.190,-0.790,2698.11,67.815,-29.543,-71.508,-0.788,0.616,-0.012,0.436,-0.074,-0.897,2545.06,63.115,-31.222,-118.844,0.517,-0.035,0.855,-0.385,0.508,-0.771,2481.77,-21.822,25.291,-69.270,0.294,0.200,0.935,0.386,0.010,0.922,11.476,20.229,-21.344,82.656,0.799,0.190,0.571,10.518,31.191,16.031,77.176,none
2.541289,0.499,0.216,-0.839,2472.56,41.965,-22.829,-81.467,-0.242,-0.304,0.921,0.592,0.194,-0.782,2640.14,91.987,-38.048,-102.953,-0.764,0.642,-0.062,0.465,0.174,-0.868,2867.52,38.496,-43.643,-159.242,0.489,-0.038,0.872,-0.367,0.576,-0.731,2444.40,-26.969,29.431,-76.544,0.324,0.182,0.928,0.514,0.029,0.858,12.211,8.504,-26.382,82.824,0.785,0.221,0.579,11.989,33.832,13.847,89.832,none
2.562041,0.520,0.294,-0.802,3014.79,50.805,-32.341,-96.799,-0.239,-0.320,0.917,0.573,0.324,-0.753,3276.50,114.368,-40.622,-132.161,-0.742,0.666,-0.067,0.517,-0.039,-0.855,2314.59,107.094,-78.558,-253.243,0.603,0.057,0.796,-0.338,0.643,-0.688,2740.77,-29.879,38.831,-111.906,0.360,0.118,0.925,0.539,0.085,0.838,14.193,-0.321,-23.053,126.947,0.814,0.250,0.524,13.511,30.580,33.405,117.786,none
2.583822,0.540,0.291,-0.790,3083.98,118.061,-41.629,-120.970,-0.160,-0.267,0.950,0.760,0.144,-0.634,2340.96,222.357,-57.631,-181.511,-0.698,0.716,0.033,0.229,-0.772,-0.593,2147.22,156.780,-104.632,-272.155,0.633,0.132,0.762,-0.342,0.640,-0.689,2737.76,-24.060,42.860,-132.832,0.396,0.081,0.915,0.571,0.072,0.818,11.549,1.939,-11.420,165.206,0.847,0.241,0.474,11.080,48.153,61.252,139.282,none
2.607207,0.619,-0.011,-0.785,2340.61,165.509,-43.084,-133.839,-0.095,-0.159,0.983,0.687,-0.597,-0.414,1833.08,200.088,-30.438,-151.632,-0.669,0.743,0.003,0.303,-0.507,-0.807,1978.18,175.133,-32.229,-198.633,0.767,0.288,0.573,-0.381,0.565,-0.732,2506.69,6.714,42.412,-145.925,0.425,0.040,0.904,0.243,0.014,0.970,10.908,-1.618,15.344,176.397,0.614,0.268,0.743,8.753,57.267,94.947,145.969,none
2.629548,0.508,-0.526,-0.682,1948.07,188.226,-40.398,-114.703,-0.048,-0.110,0.993,0.543,-0.704,-0.457,2153.46,192.366,8.057,-104.968,-0.638,0.764,0.095,0.310,-0.524,-0.793,1518.25,148.387,-13.653,-152.863,0.720,0.363,0.591,-0.457,0.357,-0.815,2263.62,34.131,49.350,-134.958,0.470,-0.011,0.883,0.292,-0.124,0.948,7.432,4.718,34.794,160.702,0.238,0.200,0.950,6.572,52.595,106.244,114.015,none
3.040413,0.463,-0.672,-0.578,1774.70,178.714,-32.005,-86.727,-0.040,0.053,0.998,0.660,-0.470,-0.586,1847.70,162.487,6.602,-71.060,-0.599,0.796,0.084,0.386,-0.526,-0.758,1550.90,156.892,18.017,-156.556,0.818,0.499,0.286,-0.487,0.262,-0.833,2225.98,45.658,64.905,-116.158,0.495,-0.030,0.868,0.290,-0.171,0.942,6.123,37.618,47.160,155.847,0.502,0.158,0.851,5.480,56.229,92.504,91.863,none
3.040919,0.516,-0.520,-0.681,1707.32,138.316,-11.079,-66.920,-0.045,0.187,0.981,0.652,-0.735,-0.187,2021.09,171.999,21.150,-88.070,-0.579,0.815,-0.003,0.293,-0.858,-0.422,2642.13,139.547,24.060,-150.290,0.843,0.537,-0.023,-0.360,0.165,-0.918,2350.51,30.998,79.901,-102.506,0.516,-0.056,0.854,-0.132,-0.126,0.983,10.236,53.420,63.130,132.748,0.181,0.261,0.948,8.179,73.771,87.282,83.313,none
3.041023,0.534,-0.686,-0.493,1978.38,150.401,5.260,-71.284,-0.043,0.257,0.965,0.595,-0.797,-0.104,2395.18,136.189,47.224,-84.713,-0.561,0.825,-0.068,0.250,-0.927,-0.280,2510.96,104.520,48.567,-117.277,0.863,0.497,-0.092,-0.350,0.158,-0.923,2390.46,19.807,75.201,-85.832,0.531,-0.069,0.845,-0.114,-0.114,0.987,13.284,35.237,82.244,97.817,-0.023,0.251,0.968,12.878,50.656,104.702,48.275,none
3.041116,0.417,-0.822,-0.388,3170.03,140.218,15.891,-35.362,-0.035,0.288,0.957,0.615,-0.787,-0.045,2685.08,114.927,81.691,-61.324,-0.550,0.819,-0.162,0.319,-0.874,-0.366,2918.87,86.167,93.329,-63.339,0.841,0.525,-0.130,-0.298,0.152,-0.942,2613.58,34.131,77.775,-62.779,0.556,-0.086,0.827,-0.142,-0.168,0.976,12.452,11.756,88.290,70.641,0.032,0.199,0.979,11.242,23.145,97.603,15.298,none
3.043353,0.470,-0.739,-0.483,2753.06,107.318,23.724,0.671,0.005,0.330,0.944,0.786,-0.572,-0.234,2873.34,81.691,99.708,-41.965,-0.543,0.791,-0.281,0.383,-0.812,-0.440,3735.74,76.767,117.613,-18.912,0.750,0.461,-0.474,-0.268,0.005,-0.964,2728.51,46.105,72.291,-37.488,0.549,-0.076,0.832,-0.175,-0.228,0.958,10.832,8.779,75.420,45.527,0.067,0.200,0.977,10.119,18.809,72.122,5.221,none
3.043549,0.583,-0.671,-0.458,2623.11,86.279,30.662,-2.014,-0.023,0.334,0.942,0.471,-0.656,-0.589,14215.37,281.779,32.676,109.444,-0.496,0.802,-0.332,0.551,-0.527,-0.647,5088.12,37.936,119.963,28.984,0.785,0.478,-0.394,-0.098,-0.031,-0.995,3027.14,45.098,49.574,-20.367,0.551,-0.068,0.831,-0.382,-0.229,0.895,11.865,13.817,25.985,20.672,-0.092,0.220,0.971,12.821,22.214,15.008,8.427,none
3.043726,0.471,-0.777,-0.418,4097.23,24.507,24.395,-32.117,-0.060,0.328,0.943,0.387,-0.889,-0.247,6020.57,36.369,-38.272,56.177,-0.465,0.801,-0.377,0.496,-0.736,-0.461,2868.61,-43.196,-12.533,35.250,0.809,0.433,-0.397,-0.238,0.191,-0.952,2945.53,-4.252,-15.555,-3.245,0.541,-0.045,0.839,-0.097,-0.134,0.986,15.836,15.618,4.504,-5.557,0.084,0.241,0.967,14.515,-6.290,1.008,-13.695,none
3.043862,0.483,-0.710,-0.512,3017.97,1.343,17.681,12.422,-0.032,0.373,0.927,0.526,-0.847,-0.074,2970.12,-47.784,-2.686,2.686,-0.454,0.807,-0.377,0.357,-0.908,-0.219,2940.65,-1.007,31.334,67.255,0.825,0.446,-0.348,-0.228,0.084,-0.970,2639.10,-0.224,-8.393,14.100,0.554,-0.058,0.831,-0.101,-0.191,0.976,11.583,-16.275,14.443,-22.779,0.103,0.215,0.971,10.234,-22.748,12.763,-29.542,none
3.043987,0.504,-0.714,-0.485,2738.49,9.960,13.876,38.719,-0.049,0.351,0.935,0.622,-0.766,-0.164,2890.64,-21.374,33.012,29.096,-0.465,0.818,-0.339,0.501,-0.675,-0.542,2821.41,4.924,47.896,79.565,0.766,0.408,-0.497,-0.284,0.072,-0.956,2636.84,15.331,-23.724,27.417,0.551,-0.050,0.833,-0.050,-0.199,0.979,9.524,-1.176,-7.359,-35.008,0.154,0.197,0.968,9.576,-19.466,-14.290,-41.924,none
3.044111,0.461,-0.635,-0.620,2588.03,-19.919,23.388,38.160,-0.063,0.352,0.934,0.720,-0.247,-0.649,2607.17,-55.617,51.700,33.348,-0.468,0.847,-0.253,0.426,0.771,-0.474,2809.67,114.480,-11.414,-51.029,0.724,0.398,-0.564,-0.340,0.282,-0.897,2349.19,23.836,-29.991,28.648,0.540,-0.046,0.841,0.402,-0.123,0.908,9.892,12.840,-24.092,-40.076,0.723,0.158,0.673,8.482,-13.038,-48.855,-44.336,none
3.044233,0.598,0.059,-0.799,2227.92,-66.584,20.703,34.915,-0.066,0.349,0.935,0.745,-0.269,-0.610,2609.79,-43.755,43.755,2.462,-0.481,0.843,-0.241,0.501,-0.550,-0.668,2270.87,38.719,-29.767,-47.784,0.650,0.399,-0.647,-0.349,0.315,-0.883,2510.75,-2.238,-34.691,17.457,0.544,-0.057,0.837,0.375,-0.094,0.922,11.957,20.351,-27.237,-12.901,0.778,0.152,0.609,10.941,25.588,-41.282,-12.427,none
3.044359,0.541,0.048,-0.840,2354.06,-35.250,23.388,-8.169,-0.087,0.349,0.933,0.730,-0.129,-0.671,2489.93,-5.707,23.948,14.324,-0.487,0.849,-0.205,0.494,-0.559,-0.666,2442.79,34.243,-8.952,-25.179,0.616,0.386,-0.687,-0.384,0.369,-0.847,2617.60,-10.295,-35.474,1.119,0.545,-0.053,0.837,0.404,-0.118,0.907,11.566,25.282,-19.954,16.977,0.694,0.188,0.695,10.926,51.145,-17.725,18.947,none
3.044509,0.559,-0.137,-0.817,2608.12,-1.790,21.038,-54.162,-0.097,0.347,0.933,0.764,-0.200,-0.613,2582.41,13.988,23.836,10.967,-0.498,0.839,-0.222,0.487,-0.611,-0.624,2540.04,54.498,0.112,-12.422,0.653,0.397,-0.645,-0.385,0.289,-0.877,2662.52,8.617,-31.334,-13.988,0.548,-0.039,0.835,0.334,-0.126,0.934,11.913,30.382,-16.366,37.038,0.534,0.211,0.818,11.773,44.855,-5.008,38.061,none
3.044628,0.533,-0.315,-0.786,2942.03,17.681,4.364,-57.520,-0.111,0.338,0.935,0.706,-0.390,-0.591,2477.97,26.969,16.898,-22.829,-0.509,0.830,-0.228,0.453,-0.627,-0.634,2536.07,45.322,6.267,-14.212,0.626,0.405,-0.667,-0.422,0.243,-0.873,2448.07,14.212,-28.536,-25.179,0.542,-0.034,0.840,0.242,-0.141,0.960,11.023,17.878,-13.832,56.504,0.435,0.210,0.876,11.168,16.275,6.107,49.878,none
3.044745,0.502,-0.516,-0.693,2553.88,32.005,-22.605,-37.824,-0.098,0.359,0.928,0.664,-0.525,-0.532,2514.27,34.355,8.505,-29.431,-0.496,0.837,-0.232,0.465,-0.631,-0.621,2490.42,31.334,22.045,1.119,0.582,0.415,-0.700,-0.436,0.162,-0.885,2393.44,5.819,-20.031,-30.215,0.542,-0.024,0.840,0.091,-0.168,0.982,9.922,17.267,-11.710,52.779,0.293,0.216,0.931,8.869,6.351,6.275,46.397,none
3.044870,0.522,-0.608,-0.598,2156.55,32.005,-26.522,-27.193,-0.074,0.343,0.937,0.669,-0.616,-0.415,2540.33,33.907,-2.126,-22.269,-0.494,0.835,-0.242,0.491,-0.632,-0.599,2515.92,26.074,24.731,9.064,0.593,0.411,-0.693,-0.425,0.161,-0.891,2411.02,0.112,-12.645,-24.619,0.537,-0.017,0.844,-0.039,-0.120,0.992,11.614,13.435,-8.107,36.489,0.230,0.245,0.942,9.647,3.435,4.504,32.565,none
3.046169,0.523,-0.657,-0.543,2395.30,25.067,-14.660,-22.493,-0.076,0.378,0.923,0.672,-0.666,-0.324,2586.15,21.486,-3.133,-15.443,-0.507,0.816,-0.277,0.505,-0.638,-0.582,2526.15,22.157,12.086,8.393,0.627,0.400,-0.669,-0.403,0.130,-0.906,2370.95,6.938,-11.638,-15.331,0.522,0.003,0.853,-0.069,-0.123,0.990,11.942,1.328,-3.252,9.008,0.149,0.276,0.949,10.676,-4.092,5.145,12.962,none
3.046297,0.686,-0.600,-0.412,2869.14,14.660,-6.938,-12.198,-0.044,0.389,0.920,0.747,-0.578,-0.328,2589.27,-0.448,-1.455,-6.491,-0.505,0.814,-0.288,0.512,-0.639,-0.574,2472.97,27.193,1.007,-0.560,0.581,0.414,-0.701,-0.374,0.140,-0.917,2632.15,10.407,-19.472,-3.469,0.529,0.003,0.849,0.082,-0.126,0.989,12.000,-2.595,-10.611,-8.000,0.329,0.261,0.907,10.750,-13.435,-2.473,-4.290,none
3.046416,0.573,-0.548,-0.610,2838.71,-9.288,-14.660,-15.555,-0.034,0.378,0.925,0.781,-0.556,-0.284,2463.98,-32.453,23.165,-31.446,-0.504,0.816,-0.283,0.528,-0.621,-0.579,2434.85,30.998,-0.224,-10.183,0.591,0.424,-0.686,-0.380,0.213,-0.900,2746.75,15.667,-32.565,0.448,0.529,0.008,0.849,0.253,-0.113,0.961,12.242,-2.916,-18.321,-7.252,0.519,0.246,0.819,11.123,-7.969,-5.802,-3.435,none
3.058899,0.597,-0.256,-0.760,2509.57,-6.714,7.274,-3.917,-0.051,0.363,0.930,0.782,-0.483,-0.394,2450.63,-43.531,61.101,-32.676,-0.537,0.807,-0.245,0.550,-0.630,-0.548,2463.17,43.419,-2.574,-16.003,0.546,0.390,-0.742,-0.421,0.257,-0.870,2617.39,27.529,-41.853,-7.050,0.518,0.011,0.855,0.351,-0.116,0.929,11.902,3.527,-18.015,17.878,0.650,0.210,0.730,10.012,21.466,2.855,11.542,none
3.071474,0.574,-0.349,-0.740,2710.18,-6.714,7.274,-3.917,-0.032,0.343,0.939,0.814,-0.367,-0.451,2425.21,-41.069,71.844,-31.446,-0.551,0.794,-0.256,0.556,-0.625,-0.548,2485.32,48.903,-6.043,-20.479,0.542,0.392,-0.743,-0.403,0.240,-0.883,2711.75,35.250,-46.329,-20.814,0.522,0.014,0.853,0.360,-0.097,0.928,12.280,17.618,-20.092,38.504,0.660,0.235,0.714,10.410,48.626,8.061,23.573,none
3.098816,0.597,-0.087,-0.798,2428.19,14.883,21.598,-36.369,-0.048,0.383,0.923,0.827,-0.252,-0.504,2520.16,-10.519,88.518,-47.560,-0.572,0.788,-0.227,0.515,-0.658,-0.550,2494.09,84.041,-19.695,-37.600,0.512,0.421,-0.749,-0.478,0.255,-0.841,2554.88,57.408,-51.253,-41.517,0.491,0.074,0.868,0.330,-0.123,0.936,10.562,10.305,-4.855,74.198,0.510,0.228,0.829,9.951,61.969,48.443,41.939,none
3.122254,0.533,-0.286,-0.796,2518.90,47.448,17.010,-51.477,-0.046,0.422,0.905,0.770,-0.366,-0.522,2486.91,11.750,81.020,-54.722,-0.607,0.763,-0.224,0.466,-0.707,-0.532,2486.51,76.879,-5.371,-24.507,0.515,0.430,-0.741,-0.553,0.108,-0.826,2314.72,54.834,-41.069,-42.972,0.482,0.117,0.868,0.152,-0.201,0.968,8.765,8.504,0.672,67.023,0.242,0.245,0.939,9.781,36.947,34.321,35.588,none
3.551643,0.439,-0.643,-0.628,2834.07,53.155,-3.805,-21.486,-0.065,0.440,0.895,0.743,-0.472,-0.475,2568.35,16.786,67.815,-55.393,-0.628,0.734,-0.259,0.481,-0.706,-0.520,2407.82,42.860,25.179,10.967,0.488,0.424,-0.763,-0.577,0.050,-0.815,2249.70,29.096,-23.165,-30.886,0.462,0.147,0.875,0.033,-0.184,0.982,9.557,13.313,-2.336,42.244,0.236,0.256,0.937,9.750,1.176,9.389,22.275,none
3.553484,0.482,-0.600,-0.639,2740.37,25.291,-21.710,6.826,-0.065,0.459,0.886,0.747,-0.501,-0.437,2814.39,-3.469,50.805,-84.601,-0.634,0.735,-0.241,0.496,-0.713,-0.495,2490.91,33.907,29.207,25.403,0.475,0.421,-0.773,-0.546,-0.028,-0.837,2285.51,9.960,-12.757,-22.829,0.449,0.169,0.878,0.043,-0.208,0.977,9.333,8.809,-2.427,23.969,0.210,0.232,0.950,9.080,-17.603,-4.000,15.542,none
3.553648,0.468,-0.613,-0.636,2614.68,15.779,-37.936,24.843,-0.012,0.474,0.881,0.737,-0.442,-0.512,3344.44,-24.843,13.988,-81.356,-0.641,0.721,-0.263,0.522,-0.720,-0.457,2591.48,17.905,21.262,26.410,0.459,0.405,-0.790,-0.554,-0.056,-0.831,2362.55,-11.974,0.671,-12.869,0.454,0.158,0.877,0.016,-0.219,0.976,9.319,13.359,-4.901,4.046,0.183,0.221,0.958,9.772,-30.931,-20.962,7.038,none
3.553795,0.436,-0.681,-0.588,2425.42,0.336,-47.784,36.593,0.019,0.493,0.870,0.717,-0.433,-0.546,3436.64,16.898,-81.691,48.679,-0.640,0.713,-0.285,0.534,-0.719,-0.445,2554.52,-4.141,12.533,13.317,0.469,0.386,-0.794,-0.576,-0.035,-0.817,2340.31,-32.788,19.695,0.224,0.441,0.157,0.884,0.001,-0.188,0.982,10.114,6.947,-0.153,-23.344,0.250,0.225,0.942,9.268,-52.580,-23.557,-6.443,none
3.553941,0.428,-0.674,-0.602,2289.38,-22.269,-49.910,51.029,0.056,0.460,0.886,0.806,-0.486,-0.336,2230.72,25.738,-123.880,101.499,-0.610,0.721,-0.329,0.500,-0.728,-0.469,2588.49,-24.731,3.469,6.714,0.481,0.401,-0.780,-0.572,0.041,-0.819,2288.04,-59.982,47.224,10.407,0.453,0.127,0.882,0.078,-0.171,0.982,9.955,0.366,18.137,-44.748,0.235,0.200,0.951,8.845,-67.527,-9.053,-27.374,none
3.554070,0.393,-0.658,-0.642,1765.10,-12.981,-37.824,65.913,0.095,0.465,0.880,0.815,-0.523,-0.250,1700.82,26.634,-111.234,110.003,-0.589,0.730,-0.346,0.469,-0.734,-0.490,2634.61,-52.931,2.014,18.241,0.476,0.390,-0.788,-0.574,0.043,-0.818,2160.68,-71.172,80.348,19.024,0.444,0.121,0.888,0.040,-0.176,0.984,9.155,-3.756,35.008,-58.290,0.247,0.176,0.953,7.265,-75.450,10.015,-46.412,none
3.554191,0.412,-0.681,-0.606,1708.63,-6.602,-24.731,68.263,0.090,0.436,0.896,0.714,-0.638,-0.290,2147.36,11.079,-92.994,107.877,-0.562,0.740,-0.370,0.479,-0.721,-0.501,2519.90,-95.456,1.231,49.350,0.481,0.382,-0.789,-0.503,0.035,-0.864,2134.75,-61.996,100.715,27.417,0.451,0.078,0.889,-0.066,-0.166,0.984,8.862,-5.435,45.679,-75.527,0.144,0.204,0.968,7.818,-75.954,14.015,-61.115,none
3.554324,0.377,-0.777,-0.503,2076.08,-9.736,-12.422,65.913,0.124,0.417,0.900,0.610,-0.771,-0.181,2626.16,-23.948,-108.213,139.099,-0.539,0.767,-0.347,0.491,-0.691,-0.530,2456.68,-119.292,12.533,73.970,0.518,0.379,-0.767,-0.408,0.053,-0.911,2314.31,-50.022,102.953,52.036,0.459,0.055,0.887,-0.128,-0.148,0.981,9.388,0.977,48.092,-99.725,-0.017,0.232,0.973,7.798,-73.176,2.275,-80.412,none
3.554619,0.424,-0.843,-0.332,2379.96,-21.038,6.267,75.760,0.121,0.413,0.903,0.715,-0.596,0.365,1787.87,-76.208,-85.160,157.451,-0.501,0.805,-0.316,0.495,-0.693,-0.524,2635.23,-144.694,-1.007,42.077,0.546,0.373,-0.751,-0.310,0.158,-0.937,2572.97,-50.246,81.356,68.822,0.489,0.017,0.872,0.116,-0.118,0.986,10.776,25.435,37.588,-120.366,0.329,0.262,0.907,8.686,-40.809,-37.511,-99.985,none
3.554747,0.604,-0.599,-0.525,2251.50,-59.534,43.979,74.865,0.110,0.391,0.914,0.770,0.631,0.091,2321.23,-103.625,3.581,108.549,-0.473,0.846,-0.246,0.532,-0.654,-0.538,2565.80,-146.932,-13.205,23.836,0.606,0.351,-0.714,-0.226,0.278,-0.934,3057.44,-25.067,40.734,62.220,0.508,-0.031,0.861,0.349,-0.052,0.936,15.165,40.137,16.366,-95.817,0.667,0.226,0.710,14.078,-8.122,-53.817,-76.305,none
3.554870,0.580,0.043,-0.813,3274.99,-64.122,50.246,48.567,0.086,0.364,0.927,0.861,0.458,-0.222,2533.24,-49.239,114.144,-50.022,-0.462,0.866,-0.191,0.548,-0.586,-0.597,2362.91,-15.331,-24.843,-12.757,0.615,0.341,-0.711,-0.243,0.319,-0.916,3277.32,-8.393,9.848,32.565,0.534,-0.054,0.844,0.363,-0.022,0.932,17.295,25.878,-2.198,-25.893,0.685,0.219,0.695,15.123,27.740,-21.954,-17.008,none
3.554992,0.555,-0.145,-0.819,3955.39,-15.219,40.398,-13.317,0.013,0.321,0.947,0.764,0.197,0.615,2161.64,109.108,-47.896,80.572,-0.485,0.859,-0.166,0.449,-0.604,-0.658,2292.64,24.619,-22.717,-35.027,0.629,0.335,-0.701,-0.385,0.390,-0.836,3352.23,-27.976,-29.767,-0.783,0.539,-0.063,0.840,0.249,-0.055,0.967,13.781,14.901,-25.466,13.374,0.510,0.252,0.822,14.083,42.260,-15.176,24.931,none
3.555114,0.550,-0.338,-0.764,2830.96,3.245,18.353,-53.267,-0.014,0.366,0.931,0.705,-0.419,-0.572,3384.05,35.250,6.714,-1.567,-0.489,0.852,-0.189,0.464,-0.621,-0.632,2325.37,36.257,6.714,-46.217,0.627,0.362,-0.690,-0.281,0.317,-0.906,2740.45,9.848,-44.986,-10.519,0.546,-0.063,0.836,0.275,-0.077,0.958,12.285,10.901,-32.641,31.298,0.519,0.229,0.824,9.597,50.901,-13.115,34.962,none
3.555232,0.572,-0.326,-0.752,2155.56,4.029,12.645,-62.332,-0.012,0.338,0.941,0.791,-0.332,-0.514,2644.48,45.993,22.829,-84.041,-0.496,0.844,-0.206,0.504,-0.635,-0.585,2610.17,64.570,8.169,-41.069,0.582,0.348,-0.735,-0.355,0.245,-0.902,2500.41,44.986,-55.953,-20.031,0.531,-0.037,0.847,0.330,-0.134,0.934,9.563,21.573,-37.237,57.206,0.653,0.206,0.729,8.573,89.008,-15.664,51.466,none
3.555370,0.593,-0.178,-0.786,1965.44,0.336,28.200,-94.337,-0.018,0.324,0.946,0.754,-0.465,-0.464,2606.29,49.798,21.710,-108.101,-0.469,0.851,-0.235,0.509,-0.636,-0.580,2565.21,52.931,-4.029,-52.260,0.558,0.365,-0.745,-0.382,0.171,-0.908,2322.12,35.474,-64.234,-28.088,0.526,-0.019,0.851,0.361,-0.162,0.918,8.229,50.137,-51.252,72.000,0.521,0.268,0.810,9.663,103.802,-25.786,68.641,none
3.555498,0.558,-0.324,-0.764,2649.56,0.112,29.207,-130.146,-0.051,0.325,0.944,0.777,-0.394,-0.492,2581.21,34.915,23.724,-120.187,-0.516,0.806,-0.291,0.497,-0.648,-0.577,2546.86,62.332,-8.505,-43.196,0.552,0.366,-0.749,-0.422,0.148,-0.895,2356.44,6.826,-67.703,-34.019,0.528,-0.009,0.849,0.335,-0.091,0.938,9.029,84.031,-65.206,93.023,0.443,0.293,0.847,10.053,99.176,-31.969,81.695,none
3.556859,0.514,-0.450,-0.730,2974.83,5.819,2.126,-118.061,-0.048,0.328,0.944,0.674,-0.623,-0.396,2637.04,44.203,15.667,-121.977,-0.538,0.775,-0.331,0.509,-0.647,-0.568,2429.59,50.470,3.805,-35.138,0.523,0.375,-0.765,-0.481,0.210,-0.851,2351.69,-4.476,-62.220,-32.676,0.528,0.006,0.849,0.077,-0.011,0.997,12.497,89.389,-50.260,83.878,0.260,0.330,0.907,11.078,75.145,-22.840,64.244,none
3.556985,0.474,-0.677,-0.563,2396.75,16.786,-3.133,-68.934,-0.064,0.381,0.922,0.683,-0.625,-0.379,2520.13,27.529,12.533,-67.815,-0.536,0.755,-0.379,0.481,-0.669,-0.566,2507.77,36.817,-12.645,-23.388,0.525,0.388,-0.757,-0.509,0.244,-0.825,2472.73,-0.112,-43.196,-28.872,0.519,0.001,0.855,0.037,0.007,0.999,13.848,39.573,-28.901,48.397,0.248,0.358,0.900,11.295,42.076,-15.817,37.954,none
3.557103,0.588,-0.486,-0.647,2615.57,4.364,8.393,-45.993,-0.078,0.361,0.929,0.828,-0.452,-0.332,2465.74,10.631,11.974,-35.362,-0.554,0.745,-0.371,0.505,-0.665,-0.550,2509.08,22.829,-2.126,-13.541,0.515,0.393,-0.762,-0.446,0.238,-0.863,2536.21,20.926,-30.886,-17.122,0.509,0.027,0.860,0.201,-0.025,0.979,11.541,16.260,-21.740,35.374,0.472,0.348,0.810,10.645,24.198,-3.313,28.183,none
3.557221,0.590,-0.420,-0.690,2625.80,12.198,2.686,-32.900,-0.042,0.403,0.914,0.819,-0.451,-0.355,2471.99,2.798,19.024,-30.550,-0.568,0.738,-0.364,0.557,-0.638,-0.532,2447.94,35.586,0.336,-17.681,0.543,0.404,-0.736,-0.455,0.135,-0.880,2506.64,27.529,-30.998,-17.010,0.514,0.028,0.857,0.105,-0.047,0.993,10.368,11.878,-15.573,28.916,0.336,0.357,0.871,9.049,27.954,5.282,23.649,none
3.569689,0.599,-0.562,-0.571,2173.97,20.703,0.000,-22.045,-0.030,0.388,0.921,0.796,-0.478,-0.371,2494.18,-1.119,23.276,-24.619,-0.584,0.735,-0.345,0.543,-0.654,-0.526,2492.95,41.965,-5.707,-15.219,0.506,0.411,-0.758,-0.487,0.151,-0.861,2507.64,15.331,-26.074,-13.093,0.501,0.051,0.864,0.100,-0.031,0.994,10.798,17.496,-10.931,2.061,0.326,0.403,0.855,9.491,27.145,5.618,-1.679,none
3.595381,0.629,-0.528,-0.571,2258.62,6.602,28.536,-10.855,-0.092,0.406,0.909,0.813,-0.506,-0.287,2510.70,-14.324,34.355,-15.107,-0.596,0.735,-0.324,0.507,-0.677,-0.533,2478.08,23.724,-19.136,-16.114,0.461,0.411,-0.786,-0.470,0.181,-0.864,2576.11,26.522,-27.753,-9.736,0.491,0.057,0.869,0.160,-0.005,0.987,12.052,24.336,-3.176,-12.534,0.350,0.407,0.844,10.537,37.985,20.595,-26.366,none
3.615850,0.598,-0.485,-0.638,2637.77,5.483,43.084,-4.588,-0.112,0.414,0.904,0.833,-0.456,-0.313,2487.16,-40.398,52.260,-1.455,-0.619,0.719,-0.315,0.561,-0.654,-0.507,2414.10,43.867,-15.331,-25.626,0.474,0.405,-0.782,-0.508,0.121,-0.853,2554.21,47.448,-30.886,-5.595,0.479,0.084,0.874,0.229,-0.014,0.973,11.712,15.481,5.802,-17.618,0.382,0.382,0.842,10.497,43.496,25.008,-37.206,none
3.637945,0.600,-0.453,-0.660,2564.87,4.812,44.427,6.043,-0.120,0.411,0.904,0.835,-0.336,-0.435,2468.21,-39.279,63.115,-0.112,-0.636,0.717,-0.286,0.603,-0.590,-0.537,2279.86,20.591,-25.179,-26.522,0.492,0.409,-0.769,-0.521,0.098,-0.848,2454.48,47.224,-21.262,-5.036,0.473,0.097,0.876,0.270,-0.005,0.963,11.043,9.542,15.038,-13.588,0.405,0.440,0.802,9.663,40.870,30.733,-45.298,none
3.845580,0.679,-0.385,-0.625,2281.80,4.700,41.405,17.905,-0.139,0.408,0.902,0.855,-0.435,-0.282,2515.93,-36.146,70.277,5.148,-0.645,0.724,-0.246,0.615,-0.584,-0.530,2236.18,20.031,-21.374,-19.919,0.447,0.414,-0.793,-0.506,0.120,-0.854,2490.56,47.224,-23.500,-6.714,0.469,0.117,0.875,0.253,-0.024,0.967,11.101,7.542,8.641,-4.672,0.476,0.406,0.780,10.338,49.817,31.435,-43.344,none
3.845888,0.638,-0.312,-0.704,2501.28,6.826,48.903,8.169,-0.135,0.426,0.895,0.869,-0.292,-0.400,2510.50,-65.801,81.132,2.574,-0.656,0.718,-0.233,0.523,-0.680,-0.514,2513.12,33.460,-11.302,-16.450,0.437,0.416,-0.798,-0.569,0.035,-0.822,2421.42,54.498,-26.634,-8.281,0.446,0.146,0.883,0.263,-0.067,0.963,10.228,3.053,5.893,-11.634,0.426,0.357,0.831,10.199,34.962,24.336,-28.687,none
3.846053,0.571,-0.346,-0.744,2536.74,5.931,30.998,8.169,-0.172,0.420,0.891,0.798,-0.109,-0.593,2571.43,-70.501,75.536,-11.750,-0.671,0.695,-0.259,0.529,-0.680,-0.508,2468.21,43.419,-4.029,-16.562,0.418,0.407,-0.812,-0.628,0.056,-0.776,2363.57,42.524,-20.031,-6.379,0.452,0.156,0.878,0.245,-0.073,0.967,9.992,-6.779,9.573,-18.168,0.400,0.364,0.841,9.785,6.046,15.588,-22.534,none
3.846212,0.592,-0.365,-0.719,2298.99,6.267,13.653,13.429,-0.190,0.422,0.887,0.869,-0.250,-0.428,2532.75,-17.569,40.062,0.783,-0.685,0.691,-0.233,0.515,-0.689,-0.510,2478.03,30.438,-2.014,-11.974,0.415,0.399,-0.817,-0.599,0.027,-0.800,2364.87,22.269,-2.350,0.224,0.425,0.180,0.887,0.249,-0.075,0.966,9.169,-2.672,5.282,-20.198,0.355,0.421,0.834,8.664,-5.771,0.595,-13.053,none
3.846401,0.613,-0.462,-0.640,2428.22,2.686,5.148,6.938,-0.178,0.393,0.902,0.890,-0.244,-0.384,2437.01,-17.905,19.807,8.841,-0.686,0.687,-0.242,0.529,-0.688,-0.497,2483.80,-3.245,1.679,-4.029,0.442,0.428,-0.789,-0.556,-0.010,-0.831,2386.72,5.036,2.686,6.938,0.420,0.197,0.886,0.238,-0.060,0.969,9.663,10.198,-0.229,-17.725,0.383,0.436,0.815,8.779,-2.595,-11.282,-8.840,none
3.846569,0.685,-0.381,-0.621,2045.51,-7.833,0.895,3.357,-0.192,0.411,0.891,0.903,-0.288,-0.320,2437.43,-31.669,-11.750,23.053,-0.692,0.680,-0.242,0.553,-0.675,-0.489,2502.72,-5.707,1.343,-3.469,0.443,0.411,-0.797,-0.563,0.014,-0.826,2480.43,-6.043,5.483,11.974,0.427,0.185,0.885,0.167,-0.043,0.985,11.072,12.580,-0.977,-19.176,0.343,0.439,0.831,9.374,5.115,-13.618,-7.267,none
3.846744,0.651,-0.420,-0.633,2302.17,-7.945,10.407,-10.295,-0.197,0.393,0.898,0.898,-0.315,-0.306,2449.76,-41.629,-33.236,46.105,-0.694,0.684,-0.224,0.550,-0.669,-0.500,2567.91,-4.364,2.014,-9.288,0.466,0.427,-0.775,-0.564,0.017,-0.825,2578.24,-7.945,10.519,16.562,0.438,0.172,0.883,0.108,-0.029,0.994,11.497,3.344,-1.634,-32.855,0.290,0.456,0.841,10.777,1.405,-18.504,-7.679,none
3.846904,0.632,-0.444,-0.635,2772.36,-11.191,11.526,-18.353,-0.182,0.417,0.890,0.915,-0.265,-0.304,2242.43,-14.995,-33.460,33.907,-0.682,0.699,-0.215,0.530,-0.688,-0.496,2626.96,-9.064,1.343,-28.200,0.438,0.433,-0.788,-0.515,0.119,-0.849,2599.34,-13.317,14.548,24.172,0.430,0.169,0.887,0.290,0.045,0.956,13.359,-4.275,-2.519,-52.122,0.472,0.515,0.716,12.269,-13.710,-29.405,-14.947,none
3.847840,0.716,-0.183,-0.673,3022.48,-21.598,2.014,2.126,-0.223,0.357,0.907,0.899,-0.295,-0.322,2477.54,-5.148,-21.822,21.934,-0.671,0.711,-0.210,0.555,-0.653,-0.515,2316.47,-6.155,2.126,-15.555,0.431,0.426,-0.796,-0.425,0.232,-0.875,2522.55,-1.790,1.455,9.960,0.438,0.167,0.883,0.397,0.049,0.916,13.465,-28.473,7.954,-17.542,0.596,0.471,0.650,12.295,-15.802,11.008,-1.466,none
3.853837,0.652,-0.235,-0.721,3230.58,34.131,-21.150,32.565,-0.196,0.397,0.897,0.856,-0.420,-0.302,2512.71,-8.169,-5.707,24.395,-0.684,0.704,-0.191,0.549,-0.661,-0.511,2375.23,13.317,5.371,5.819,0.418,0.411,-0.810,-0.483,0.251,-0.839,2524.88,14.212,-18.129,-17.457,0.441,0.149,0.885,0.312,-0.008,0.950,10.973,-21.664,21.573,5.389,0.439,0.473,0.764,10.646,-13.435,35.679,3.359,none
3.877521,0.669,-0.372,-0.643,2462.23,54.946,-38.831,55.058,-0.161,0.388,0.908,0.852,-0.301,-0.429,2500.75,-2.910,21.822,6.491,-0.658,0.721,-0.218,0.481,-0.738,-0.474,2915.15,41.069,17.457,22.941,0.435,0.415,-0.799,-0.611,0.026,-0.791,2479.06,32.005,-24.619,-35.586,0.422,0.188,0.887,0.120,-0.101,0.988,9.665,-13.664,18.382,-0.443,0.170,0.425,0.889,8.861,-16.061,29.740,1.069,none
3.900323,0.631,-0.616,-0.471,2093.80,52.596,-28.536,43.643,-0.148,0.439,0.886,0.862,-0.345,-0.370,3084.48,122.089,57.296,-80.013,-0.674,0.705,-0.219,0.480,-0.751,-0.453,2899.22,50.693,19.024,21.038,0.442,0.428,-0.789,-0.662,-0.116,-0.741,2318.10,28.648,-13.541,-25.291,0.418,0.218,0.882,-0.027,-0.174,0.984,8.739,-2.611,0.382,-10.901,0.087,0.358,0.930,8.079,-18.550,-0.595,1.099,none
3.925439,0.583,-0.634,-0.507,1710.75,-2.014,-17.122,13.764,-0.114,0.476,0.872,0.846,-0.366,-0.389,2509.23,20.031,8.057,-13.988,-0.679,0.692,-0.246,0.559,-0.693,-0.456,2578.72,1.790,5.707,6.938,0.416,0.407,-0.813,-0.596,-0.177,-0.783,2407.65,8.057,-3.469,-3.805,0.407,0.222,0.886,0.077,-0.143,0.987,8.694,11.710,-13.649,-27.573,0.172,0.385,0.907,7.606,-8.168,-24.748,3.221,none
3.944182,0.558,-0.624,-0.547,2035.86,-20.143,-3.693,-15.443,-0.121,0.443,0.889,0.850,-0.361,-0.384,2462.90,4.924,-24.395,2.574,-0.678,0.693,-0.247,0.548,-0.693,-0.469,2507.82,-7.722,-2.014,-3.693,0.452,0.409,-0.793,-0.582,-0.116,-0.805,2400.66,-26.522,12.310,22.941,0.405,0.215,0.889,0.139,-0.071,0.988,9.839,20.489,-20.489,-38.092,0.246,0.433,0.867,9.551,-12.229,-43.954,0.855,none
3.967297,0.579,-0.546,-0.606,2453.06,-37.041,-2.350,-19.024,-0.130,0.437,0.890,0.850,-0.389,-0.357,2487.29,3.357,-44.315,8.505,-0.686,0.687,-0.238,0.539,-0.696,-0.475,2513.55,-16.226,-3.245,-2.014,0.419,0.405,-0.813,-0.559,0.011,-0.829,2377.60,-39.167,20.814,31.893,0.419,0.189,0.888,0.068,-0.014,0.998,11.846,6.626,-12.519,-52.473,0.200,0.446,0.872,10.408,-26.992,-41.542,-11.221,none
3.990023,0.503,-0.670,-0.547,2628.74,-35.138,-3.805,-6.826,-0.110,0.442,0.890,0.736,-0.570,-0.365,2590.23,6.155,-56.401,15.443,-0.666,0.708,-0.237,0.479,-0.726,-0.493,2580.72,-30.998,-0.112,11.974,0.467,0.416,-0.780,-0.579,0.066,-0.813,2294.54,-41.181,33.572,37.041,0.436,0.166,0.885,0.122,-0.010,0.993,11.275,-8.855,14.809,-71.206,0.086,0.456,0.886,9.552,-47.603,-27.939,-47.130,none
4.060488,0.438,-0.805,-0.401,2505.09,-26.522,7.050,55.729,-0.127,0.409,0.903,0.545,-0.794,-0.270,3032.06,-11.302,-67.479,65.465,-0.659,0.722,-0.209,0.477,-0.723,-0.500,2797.86,-77.663,8.952,63.563,0.453,0.425,-0.784,-0.548,-0.033,-0.836,2243.63,-34.243,59.422,42.636,0.446,0.136,0.885,-0.070,-0.065,0.995,9.214,-14.687,23.542,-87.405,0.014,0.449,0.893,8.953,-57.832,-39.298,-71.511,none
4.063998,0.527,-0.704,-0.476,2710.99,-51.700,14.660,74.305,-0.166,0.356,0.920,0.799,-0.493,-0.345,2460.02,-65.353,-69.382,95.120,-0.637,0.743,-0.207,0.665,-0.568,-0.485,1919.21,-106.422,6.379,75.313,0.448,0.404,-0.797,-0.456,-0.031,-0.889,2351.37,-33.460,70.053,70.277,0.454,0.103,0.885,0.077,-0.031,0.997,8.976,-5.359,-1.450,-111.832,0.190,0.496,0.847,9.656,-75.969,-80.260,-76.351,none
4.064170,0.664,-0.463,-0.587,2848.02,-83.929,-11.638,88.182,-0.139,0.389,0.911,0.934,-0.138,-0.329,2543.64,-56.065,-84.937,95.456,-0.627,0.761,-0.166,0.597,-0.626,-0.502,2399.84,-58.415,2.686,48.455,0.487,0.404,-0.775,-0.390,0.188,-0.902,2903.85,-54.722,50.246,79.453,0.473,0.075,0.878,0.368,0.041,0.929,13.178,13.939,-14.519,-111.985,0.587,0.467,0.661,10.666,-61.817,-102.534,-76.763,none
4.075765,0.709,-0.017,-0.704,2596.20,-98.589,-7.610,79.789,-0.170,0.332,0.928,0.939,-0.205,-0.276,2469.32,-69.717,-58.974,53.715,-0.617,0.772,-0.154,0.577,-0.613,-0.539,2432.25,-98.365,-18.017,10.967,0.510,0.414,-0.754,-0.375,0.269,-0.887,3042.57,-38.943,32.005,62.220,0.506,0.018,0.862,0.404,0.060,0.913,15.609,1.969,-8.534,-71.603,0.713,0.383,0.588,14.314,-32.046,-61.908,-49.710,none
4.096590,0.640,0.071,-0.765,2969.06,-64.682,6.491,47.112,-0.156,0.335,0.929,0.883,0.058,-0.467,2593.53,-63.674,-26.298,44.091,-0.637,0.764,-0.103,0.468,-0.664,-0.583,2705.35,-47.896,-23.053,-16.786,0.517,0.404,-0.755,-0.392,0.352,-0.850,2909.17,-24.172,18.912,37.041,0.515,-0.005,0.857,0.450,0.052,0.891,14.094,-12.901,0.443,-33.405,0.656,0.370,0.657,13.003,-24.214,-17.649,-21.466,none
4.117512,0.576,-0.106,-0.811,2908.83,-19.472,1.790,26.298,-0.154,0.337,0.929,0.825,-0.111,-0.554,2522.95,-7.162,0.000,11.862,-0.661,0.745,-0.089,0.442,-0.633,-0.636,2420.84,-39.838,-8.169,-4.141,0.517,0.404,-0.755,-0.448,0.346,-0.824,2568.90,-2.574,12.645,14.100,0.515,-0.003,0.857,0.378,0.014,0.926,11.591,-21.771,6.931,-8.840,0.600,0.355,0.717,10.288,-23.191,4.122,-9.802,none
4.139238,0.571,-0.273,-0.774,2212.05,3.917,-4.252,18.464,-0.165,0.337,0.927,0.755,-0.350,-0.554,2484.84,-6.491,5.148,16.450,-0.658,0.749,-0.083,0.482,-0.624,-0.615,2485.22,-20.591,17.010,19.584,0.524,0.374,-0.766,-0.463,0.255,-0.849,2484.63,21.374,10.855,2.798,0.522,0.001,0.853,0.255,-0.037,0.966,10.198,-19.221,12.702,-2.656,0.434,0.372,0.821,9.051,-16.427,8.947,-6.183,none
4.160636,0.560,-0.423,-0.713,2238.49,9.512,1.119,8.952,-0.185,0.292,0.938,0.714,-0.520,-0.469,2558.43,-13.988,1.455,21.374,-0.658,0.749,-0.077,0.492,-0.632,-0.599,2551.01,-16.338,21.822,30.998,0.515,0.389,-0.764,-0.431,0.117,-0.895,2401.20,13.876,16.003,2.014,0.511,0.004,0.859,0.097,-0.056,0.994,10.439,-16.031,13.053,-6.977,0.229,0.396,0.889,9.801,-18.351,6.244,-13.985,none
4.572198,0.504,-0.625,-0.596,2642.75,7.833,3.021,19.136,-0.201,0.276,0.940,0.682,-0.611,-0.402,2547.62,-28.088,-5.595,38.496,-0.673,0.735,-0.084,0.523,-0.613,-0.592,2400.15,-29.767,14.772,27.641,0.522,0.378,-0.764,-0.411,0.112,-0.905,2418.32,-7.050,24.731,13.205,0.504,0.002,0.864,0.093,-0.069,0.993,9.842,-13.924,3.695,-23.267,0.225,0.420,0.879,9.782,-29.420,-18.137,-23.160,none
4.573851,0.571,-0.559,-0.601,2814.17,-21.262,-8.729,33.124,-0.164,0.292,0.942,0.844,-0.340,-0.415,2559.44,-49.798,-8.057,49.127,-0.675,0.734,-0.077,0.526,-0.612,-0.591,2536.19,-5.595,8.057,14.100,0.555,0.375,-0.742,-0.344,0.185,-0.920,2631.18,-12.086,11.974,20.255,0.511,-0.003,0.860,0.318,-0.031,0.948,11.704,0.641,-9.511,-25.191,0.535,0.401,0.744,11.225,-23.954,-38.580,-18.229,none
4.573980,0.617,-0.266,-0.741,3080.18,-41.517,-14.324,34.579,-0.185,0.295,0.937,0.830,-0.344,-0.438,2696.12,-38.272,5.595,39.503,-0.660,0.747,-0.082,0.543,-0.592,-0.595,2403.86,6.714,-11.414,-8.057,0.547,0.381,-0.745,-0.347,0.274,-0.897,2809.61,-16.450,-7.162,4.924,0.530,-0.037,0.847,0.424,-0.006,0.906,12.935,4.992,-12.137,6.977,0.662,0.353,0.661,12.532,-11.099,-27.191,9.542,none
4.574093,0.577,-0.046,-0.816,2903.57,-33.796,-27.305,19.919,-0.184,0.299,0.936,0.745,-0.227,-0.627,3571.36,-27.305,7.386,39.279,-0.671,0.739,-0.069,0.490,-0.615,-0.617,2505.29,22.269,-9.288,-9.960,0.609,0.387,-0.692,-0.368,0.283,-0.886,2757.69,-12.533,-19.472,-16.450,0.524,-0.029,0.851,0.455,-0.016,0.890,12.055,14.901,-17.969,33.359,0.661,0.352,0.663,11.490,3.099,-22.321,35.252,none
4.612950,0.582,-0.120,-0.804,2995.49,-23.948,-30.550,-16.338,-0.160,0.270,0.949,0.806,0.021,-0.592,2938.39,-8.952,-82.475,15.443,-0.664,0.745,-0.060,0.539,-0.592,-0.599,2239.06,40.510,8.057,2.350,0.544,0.412,-0.731,-0.376,0.296,-0.878,2803.12,-11.974,-35.362,-37.377,0.524,-0.016,0.852,0.450,-0.012,0.893,12.663,30.519,-26.321,63.221,0.700,0.341,0.628,12.457,26.092,-20.076,65.328,none
4.613181,0.568,0.029,-0.822,2534.16,-35.698,-30.886,-56.512,-0.150,0.226,0.963,0.635,0.659,-0.404,2415.61,28.424,-46.441,-98.253,-0.624,0.781,-0.026,0.544,-0.625,-0.560,2326.39,71.172,23.388,1.567,0.517,0.384,-0.765,-0.482,0.200,-0.853,2574.81,-2.014,-44.762,-56.736,0.514,-0.017,0.857,0.447,-0.026,0.894,11.345,25.664,-28.351,99.328,0.626,0.324,0.710,10.729,33.695,13.038,93.878,none
4.613319,0.531,-0.060,-0.845,1897.80,38.496,-16.674,-102.058,-0.128,0.252,0.959,0.606,0.787,-0.120,1998.22,125.223,9.512,-236.121,-0.634,0.771,-0.063,0.480,-0.660,-0.578,2455.96,72.403,24.395,-6.043,0.518,0.402,-0.756,-0.540,0.219,-0.813,2402.24,-14.772,-30.886,-67.143,0.518,-0.014,0.856,0.343,-0.033,0.939,9.171,39.176,-15.221,118.137,0.609,0.294,0.736,7.250,41.847,33.847,94.565,none
4.613457,0.514,-0.212,-0.831,1409.67,44.986,-15.779,-110.227,-0.159,0.208,0.965,0.381,-0.670,0.637,1809.54,183.302,106.311,-266.895,-0.633,0.756,-0.163,0.416,-0.703,-0.577,2665.93,66.472,29.879,5.595,0.522,0.402,-0.752,-0.580,0.143,-0.802,2237.99,-11.302,-13.876,-66.248,0.493,0.000,0.870,0.005,-0.043,0.999,9.595,27.313,3.328,95.786,0.168,0.383,0.908,6.614,50.198,43.695,79.206,none
4.613580,0.450,-0.806,-0.384,1368.90,96.687,17.122,-86.951,-0.126,0.269,0.955,0.741,-0.656,-0.142,2519.69,91.539,166.628,-227.057,-0.634,0.734,-0.244,0.480,-0.680,-0.554,2209.25,41.069,27.529,23.948,0.500,0.406,-0.765,-0.528,0.076,-0.846,2272.37,7.274,4.252,-38.831,0.488,0.010,0.873,-0.072,-0.045,0.996,10.407,25.069,18.794,62.229,0.055,0.448,0.892,8.095,57.710,34.992,40.626,none
4.613706,0.668,-0.600,-0.440,2638.93,75.425,47.560,-76.432,-0.134,0.264,0.955,0.536,-0.610,-0.583,12384.13,193.485,89.637,-3.245,-0.659,0.710,-0.248,0.510,-0.736,-0.445,3213.39,62.891,37.600,26.857,0.494,0.393,-0.776,-0.259,0.046,-0.965,2703.11,2.238,-3.805,-26.074,0.489,0.027,0.872,-0.082,-0.040,0.996,12.257,19.145,-0.870,20.031,0.093,0.471,0.877,14.151,46.977,-0.702,32.992,none
4.613823,0.542,-0.626,-0.561,4066.63,16.786,19.472,-62.555,-0.126,0.299,0.946,0.604,-0.765,-0.224,3998.36,-85.944,-32.676,-12.198,-0.651,0.716,-0.252,0.571,-0.664,-0.482,2335.84,-9.512,11.862,-0.560,0.519,0.396,-0.758,-0.430,0.156,-0.889,2537.64,1.790,-6.602,-8.505,0.503,0.031,0.864,0.071,-0.010,0.997,12.970,4.626,-10.855,10.992,0.192,0.464,0.865,12.115,-7.038,-5.206,12.748,none
4.613923,0.589,-0.603,-0.539,2612.00,5.931,-11.302,-1.790,-0.141,0.326,0.935,0.823,-0.438,-0.362,2720.68,-13.429,-17.122,12.310,-0.640,0.721,-0.265,0.528,-0.702,-0.478,2601.38,-1.679,-3.245,-16.450,0.515,0.396,-0.760,-0.461,0.083,-0.883,2432.59,4.141,2.910,1.902,0.495,0.031,0.869,0.123,-0.066,0.990,9.722,-4.763,-5.420,-7.863,0.355,0.400,0.845,8.138,-12.931,-7.847,-2.748,none
4.614053,0.587,-0.442,-0.678,2032.47,-3.469,-2.686,-1.231,-0.135,0.282,0.950,0.844,-0.353,-0.405,2408.77,11.526,-26.745,27.193,-0.633,0.726,-0.270,0.498,-0.702,-0.509,2502.72,-15.443,-15.219,-27.081,0.524,0.409,-0.747,-0.503,0.146,-0.852,2384.55,3.469,3.021,9.960,0.492,0.042,0.870,0.262,-0.068,0.963,10.127,5.267,-0.611,-16.061,0.496,0.362,0.789,9.017,-6.519,-14.198,-9.389,none
4.614202,0.581,-0.331,-0.744,2326.90,-8.057,3.693,-0.336,-0.126,0.289,0.949,0.845,-0.342,-0.412,2512.30,1.007,-25.962,27.753,-0.643,0.715,-0.274,0.484,-0.704,-0.520,2596.28,-22.157,-6.155,-16.786,0.521,0.421,-0.742,-0.506,0.163,-0.847,2626.97,-8.617,5.148,13.541,0.513,0.025,0.858,0.254,-0.039,0.966,12.205,5.145,5.847,-20.061,0.447,0.396,0.802,10.985,-1.786,-10.534,-13.527,none
4.614349,0.601,-0.328,-0.728,2524.58,-3.021,7.274,-1.902,-0.141,0.310,0.940,0.850,-0.323,-0.417,2506.58,-8.057,-16.562,16.114,-0.631,0.733,-0.256,0.510,-0.689,-0.516,2637.52,-29.991,3.133,-19.919,0.508,0.417,-0.754,-0.481,0.195,-0.855,2696.08,-7.050,9.736,15.331,0.499,0.028,0.866,0.249,-0.025,0.968,12.727,-4.718,14.198,-19.573,0.448,0.406,0.797,11.620,-12.427,2.870,-18.611,none
4.614500,0.628,-0.347,-0.697,2668.49,12.198,8.169,-1.007,-0.174,0.287,0.942,0.823,-0.349,-0.448,2660.85,-7.386,-12.757,13.653,-0.617,0.746,-0.250,0.556,-0.647,-0.522,2382.95,-24.172,1.790,-25.291,0.507,0.423,-0.751,-0.444,0.229,-0.866,2638.30,14.100,13.988,12.869,0.504,0.033,0.863,0.381,-0.020,0.924,12.390,-9.954,18.015,-8.931,0.570,0.409,0.713,11.452,-14.947,6.229,-15.435,none
4.614633,0.615,-0.252,-0.747,2818.39,47.448,8.057,6.938,-0.181,0.295,0.938,0.842,-0.312,-0.440,2413.40,-0.671,-8.729,25.067,-0.616,0.753,-0.230,0.550,-0.637,-0.540,2283.51,15.219,1.007,-4.141,0.482,0.405,-0.777,-0.421,0.236,-0.876,2431.19,26.074,5.148,-13.093,0.510,0.035,0.859,0.351,-0.034,0.936,10.817,-16.519,24.687,27.954,0.649,0.371,0.664,9.964,-3.374,37.740,8.809,none
4.614782,0.639,-0.370,-0.674,2451.64,63.115,2.126,9.176,-0.144,0.328,0.934,0.835,-0.339,-0.434,2448.00,19.807,3.357,45.434,-0.615,0.748,-0.249,0.535,-0.656,-0.533,2368.49,32.676,7.833,16.226,0.468,0.400,-0.788,-0.451,0.213,-0.867,2467.28,21.486,-3.357,-27.753,0.491,0.054,0.870,0.273,-0.045,0.961,10.996,-11.130,27.832,34.504,0.454,0.416,0.788,9.112,11.527,44.305,8.947,none
4.614888,0.640,-0.433,-0.634,2140.83,52.708,10.743,5.371,-0.103,0.384,0.918,0.823,-0.372,-0.430,2470.99,27.865,11.638,52.708,-0.600,0.754,-0.268,0.540,-0.666,-0.515,2490.26,44.650,11.862,27.865,0.485,0.413,-0.771,-0.460,0.115,-0.881,2440.39,28.200,-4.252,-34.243,0.487,0.068,0.871,0.159,-0.093,0.983,9.394,-3.679,23.863,38.397,0.316,0.430,0.846,9.118,19.282,41.023,9.267,none
4.614995,0.591,-0.551,-0.590,2537.60,48.120,17.905,0.000,-0.093,0.419,0.903,0.810,-0.415,-0.414,2568.84,23.836,15.667,14.212,-0.592,0.763,-0.259,0.529,-0.694,-0.489,2505.58,41.741,8.729,27.081,0.485,0.381,-0.787,-0.462,0.011,-0.887,2345.19,26.522,-4.476,-29.431,0.477,0.081,0.875,0.077,-0.118,0.990,9.074,10.076,9.664,31.725,0.227,0.426,0.876,9.259,14.290,20.107,6.611,none
4.615100,0.592,-0.545,-0.594,2548.10,27.081,7.386,4.924,-0.097,0.425,0.900,0.819,-0.419,-0.391,2542.27,24.060,1.007,9.288,-0.593,0.758,-0.273,0.519,-0.706,-0.482,2516.15,38.608,4.588,26.522,0.482,0.411,-0.773,-0.454,0.002,-0.891,2365.38,9.624,-6.379,-19.807,0.477,0.096,0.874,0.108,-0.109,0.988,9.907,17.389,-3.176,18.855,0.312,0.416,0.854,9.269,10.931,-0.992,8.748,none
4.634443,0.598,-0.517,-0.613,2440.66,0.783,-7.722,6.714,-0.115,0.441,0.890,0.923,-0.353,-0.151,1713.43,20.143,-11.638,12.086,-0.591,0.763,-0.262,0.515,-0.724,-0.459,2686.00,27.417,-1.007,23.612,0.494,0.401,-0.772,-0.517,0.063,-0.853,2585.99,-9.176,-8.617,-8.952,0.474,0.088,0.876,0.173,-0.073,0.982,11.430,15.954,-5.023,8.718,0.363,0.422,0.831,10.361,6.947,-10.275,5.924,none
4.656402,0.624,-0.420,-0.659,2371.82,-4.364,-2.462,1.679,-0.115,0.423,0.899,0.831,-0.425,-0.358,2529.64,18.241,-9.960,11.862,-0.566,0.777,-0.276,0.502,-0.726,-0.470,2559.16,4.700,-5.371,3.133,0.474,0.402,-0.784,-0.495,0.153,-0.855,2661.38,-8.169,-4.364,-5.260,0.485,0.103,0.869,0.229,-0.053,0.972,11.576,12.427,-5.298,6.641,0.430,0.423,0.798,10.719,3.679,-7.985,6.656,none
5.081047,0.606,-0.413,-0.680,2504.47,-6.155,0.783,-6.491,-0.107,0.418,0.902,0.821,-0.406,-0.401,2429.16,6.043,2.238,2.574,-0.581,0.765,-0.278,0.502,-0.724,-0.473,2482.41,2.126,-1.231,-0.783,0.531,0.428,-0.732,-0.480,0.120,-0.869,2483.78,1.231,-1.455,-4.029,0.476,0.080,0.876,0.189,-0.062,0.980,10.723,9.664,-4.473,6.473,0.382,0.435,0.816,9.914,-3.511,-6.809,6.458,none
5.081386,0.609,-0.463,-0.644,2445.70,-0.336,-2.350,-4.029,-0.126,0.425,0.896,0.822,-0.385,-0.420,2486.27,12.310,-0.336,6.043,-0.583,0.767,-0.267,0.509,-0.719,-0.473,2485.31,-1.343,1.567,-0.112,0.485,0.410,-0.772,-0.480,0.091,-0.873,2439.82,1.007,0.000,-1.679,0.488,0.096,0.867,0.190,-0.082,0.978,10.363,11.298,-5.115,2.855,0.385,0.423,0.820,9.130,-3.557,-9.863,4.427,none
5.081630,0.616,-0.464,-0.636,2209.02,-4.924,-5.260,-3.469,-0.093,0.434,0.896,0.813,-0.424,-0.400,2490.33,5.931,-6.602,0.671,-0.580,0.766,-0.276,0.514,-0.718,-0.470,2502.21,-3.021,-0.224,-0.224,0.479,0.390,-0.786,-0.480,0.069,-0.874,2480.45,-2.910,0.448,1.343,0.473,0.096,0.876,0.203,-0.085,0.975,10.416,16.031,-6.794,1.481,0.407,0.421,0.810,9.582,1.435,-14.229,5.191,none
5.081899,0.613,-0.445,-0.653,2459.05,-9.512,-1.343,-10.072,-0.124,0.420,0.899,0.812,-0.423,-0.403,2517.19,0.224,-9.288,-4.924,-0.569,0.776,-0.272,0.508,-0.719,-0.475,2513.06,-7.722,-3.133,-3.133,0.508,0.408,-0.759,-0.474,0.085,-0.877,2473.05,-10.407,1.119,2.910,0.475,0.097,0.874,0.180,-0.070,0.981,10.741,17.786,-10.321,1.603,0.375,0.430,0.821,9.822,1.710,-17.649,7.038,none
5.082110,0.613,-0.462,-0.640,2428.22,-14.548,-2.910,-13.429,-0.107,0.431,0.896,0.823,-0.419,-0.382,2447.24,-5.371,-11.526,-10.183,-0.573,0.770,-0.281,0.508,-0.716,-0.479,2493.63,-11.191,-4.141,-4.364,0.477,0.398,-0.784,-0.481,0.115,-0.869,2517.92,-13.988,0.224,4.924,0.483,0.073,0.872,0.189,-0.051,0.981,11.442,15.130,-9.725,-3.603,0.393,0.434,0.811,10.241,0.473,-19.008,3.664,none
5.085177,0.610,-0.445,-0.656,2521.70,-15.891,-2.126,-10.519,-0.115,0.419,0.901,0.808,-0.439,-0.392,2514.82,-8.617,-10.519,-12.422,-0.567,0.765,-0.304,0.511,-0.714,-0.479,2515.24,-10.631,-5.260,-4.700,0.474,0.394,-0.787,-0.471,0.126,-0.873,2528.06,-12.533,0.671,6.043,0.476,0.076,0.876,0.216,-0.060,0.974,11.184,10.183,-9.985,-2.962,0.418,0.428,0.801,10.412,-4.550,-17.298,4.809,none
5.085370,0.616,-0.408,-0.674,2511.93,-15.331,-6.155,-7.498,-0.123,0.364,0.923,0.821,-0.414,-0.394,2501.67,-9.400,-7.610,-15.443,-0.579,0.757,-0.303,0.512,-0.702,-0.496,2646.34,-21.150,-11.974,-9.624,0.480,0.394,-0.784,-0.471,0.081,-0.879,2467.50,-9.960,0.671,5.148,0.496,0.059,0.866,0.152,-0.074,0.986,10.605,6.550,-14.412,-3.267,0.355,0.430,0.830,9.566,-7.435,-19.237,8.198,none
5.085544,0.605,-0.500,-0.620,2443.46,-16.450,-10.407,-10.519,-0.127,0.368,0.921,0.802,-0.469,-0.370,2607.87,-14.100,-9.400,-23.500,-0.585,0.755,-0.296,0.504,-0.684,-0.528,2858.59,-77.775,-45.993,-20.255,0.515,0.396,-0.760,-0.465,0.002,-0.885,2414.53,-17.233,0.112,9.064,0.487,0.065,0.871,0.020,-0.085,0.996,10.128,3.634,-23.527,-10.748,0.179,0.443,0.878,9.692,-13.099,-30.809,7.695,none
5.085703,0.581,-0.639,-0.503,2679.26,-29.207,-15.107,-12.533,-0.136,0.368,0.920,0.726,-0.646,-0.237,3124.05,-48.008,-6.826,-31.893,-0.584,0.760,-0.286,0.451,-0.688,-0.569,3635.32,-76.544,-88.741,-17.905,0.517,0.404,-0.755,-0.425,-0.100,-0.899,2498.29,-30.998,-5.371,25.850,0.483,0.052,0.874,-0.197,-0.063,0.978,11.593,8.244,-33.542,-29.496,-0.134,0.491,0.861,10.899,-18.168,-49.405,-10.122,none
5.085841,0.565,-0.765,-0.311,2983.54,-58.191,-17.569,-14.324,-0.146,0.330,0.933,0.701,-0.627,-0.341,4217.21,-93.218,-36.817,-18.464,-0.587,0.764,-0.267,0.365,-0.791,-0.491,4947.96,-113.249,-133.280,50.022,0.488,0.381,-0.785,-0.376,-0.033,-0.926,2798.35,-58.751,-35.250,56.177,0.496,0.031,0.868,-0.206,-0.004,0.978,15.892,-11.756,-57.298,-78.214,-0.046,0.513,0.857,13.795,-30.198,-83.298,-47.847,none
5.085968,0.564,-0.757,-0.330,3610.84,-104.520,0.895,1.790,-0.171,0.306,0.936,0.662,-0.723,-0.197,4404.43,-158.682,-73.410,34.803,-0.619,0.754,-0.220,0.383,-0.829,-0.407,3918.70,-198.073,-163.830,135.966,0.434,0.393,-0.810,-0.406,0.131,-0.904,2883.71,-61.996,-68.039,87.287,0.507,0.001,0.862,-0.074,-0.002,0.997,14.023,-61.557,-77.908,-143.420,0.101,0.524,0.846,13.812,-61.282,-118.275,-65.924,none
5.086092,0.611,-0.616,-0.497,3559.27,-154.766,2.350,59.310,-0.202,0.234,0.951,0.703,-0.649,-0.291,4134.14,-193.038,-96.127,97.358,-0.635,0.763,-0.122,0.278,-0.954,-0.115,3466.28,-222.581,-151.632,211.278,0.347,0.422,-0.838,-0.443,0.140,-0.886,2844.84,-51.589,-76.767,120.075,0.511,-0.036,0.859,0.120,-0.040,0.992,10.934,-66.458,-82.611,-166.015,0.235,0.500,0.834,11.038,-87.771,-136.824,-81.160,none
5.092069,0.634,-0.540,-0.553,2933.68,-154.206,-6.155,88.406,-0.239,0.181,0.954,0.729,-0.619,-0.293,3732.80,-201.542,-131.266,165.733,-0.670,0.741,-0.037,0.216,-0.976,-0.019,2996.46,-214.188,-107.877,277.526,0.448,0.661,-0.602,-0.539,0.192,-0.820,2571.47,-28.760,-75.313,131.377,0.508,-0.062,0.859,0.152,-0.057,0.987,10.888,-66.076,-63.481,-179.069,0.284,0.457,0.843,9.634,-99.130,-135.664,-93.237,none
5.092245,0.594,-0.602,-0.534,2324.14,-149.282,-2.014,108.996,-0.231,0.163,0.959,0.746,-0.613,-0.259,2856.27,-193.821,-150.290,221.238,-0.678,0.734,0.037,0.160,-0.980,0.118,1842.87,-191.135,-48.008,318.260,0.602,0.784,-0.153,-0.584,0.201,-0.786,2508.78,-1.119,-79.341,135.966,0.476,-0.070,0.877,0.213,-0.061,0.975,10.441,-78.641,-40.809,-197.969,0.291,0.453,0.843,9.258,-117.985,-136.565,-109.145,none
5.092403,0.602,-0.551,-0.578,2232.29,-157.004,0.895,125.894,-0.255,0.070,0.964,0.831,-0.537,-0.147,1893.26,-191.359,-136.973,245.074,-0.678,0.730,0.087,0.242,-0.967,0.076,934.52,-171.440,23.276,321.953,0.737,0.605,0.301,-0.611,0.234,-0.756,2363.20,40.958,-77.551,145.030,0.466,-0.063,0.882,0.466,-0.103,0.879,8.614,-70.870,-33.740,-198.672,0.532,0.406,0.743,8.632,-128.183,-145.557,-116.214,none
5.092532,0.601,-0.338,-0.724,2280.71,-166.740,-7.833,134.623,-0.253,0.008,0.968,0.927,-0.075,-0.366,1135.38,-179.833,-90.196,228.624,-0.690,0.721,0.062,0.459,0.041,-0.888,2119.04,-128.244,86.391,279.205,0.827,0.452,0.334,-0.631,0.305,-0.713,2104.76,51.477,-52.260,142.232,0.444,-0.032,0.896,0.583,-0.059,0.810,9.818,-56.046,-20.321,-181.527,0.758,0.324,0.566,8.909,-135.908,-117.557,-111.374,none
5.094878,0.600,-0.025,-0.800,1796.36,-171.216,-25.515,141.673,-0.257,-0.151,0.954,0.735,0.360,-0.574,1100.33,-145.366,-56.960,195.611,-0.706,0.703,0.081,0.298,-0.014,-0.954,2239.20,-96.351,42.300,185.316,0.757,0.275,0.592,-0.618,0.284,-0.733,2195.10,44.762,-27.753,127.573,0.418,0.022,0.908,0.586,-0.019,0.810,9.924,-56.443,-1.695,-161.664,0.737,0.339,0.585,8.372,-132.427,-92.458,-109.511,none
5.095038,0.557,0.234,-0.797,1776.58,-130.258,-18.129,136.413,-0.268,-0.161,0.950,0.499,0.571,-0.652,969.27,-107.206,-6.714,143.463,-0.710,0.696,0.107,0.239,0.068,-0.969,1972.81,-89.413,32.117,131.266,0.772,0.228,0.593,-0.583,0.370,-0.723,2293.47,36.705,-4.364,118.732,0.386,0.043,0.921,0.548,0.024,0.836,9.324,-46.275,6.855,-149.969,0.791,0.323,0.519,8.634,-126.931,-84.412,-112.763,none
5.095176,0.526,0.108,-0.844,1935.75,-90.868,-3.805,123.880,-0.303,-0.244,0.921,0.515,-0.008,-0.857,1984.99,-87.622,40.286,99.708,-0.744,0.660,0.101,0.001,0.066,-0.998,1462.16,-63.227,58.751,75.313,0.780,0.121,0.614,-0.562,0.453,-0.692,2395.50,31.222,0.895,114.032,0.355,0.094,0.930,0.615,0.079,0.785,11.018,-41.053,17.954,-153.343,0.885,0.291,0.364,10.332,-121.649,-68.336,-107.786,none
5.095320,0.547,0.155,-0.823,2308.58,-96.127,-3.581,120.187,-0.318,-0.310,0.896,0.571,-0.087,-0.816,3130.24,-77.215,37.377,103.065,-0.760,0.645,0.079,0.065,-0.048,-0.997,1679.50,-35.922,96.351,42.860,0.767,0.137,0.627,-0.448,0.536,-0.715,2660.12,14.212,17.010,94.337,0.307,0.143,0.941,0.682,0.078,0.728,12.726,-28.137,19.084,-126.046,0.892,0.300,0.338,12.252,-97.786,-58.122,-87.786,none
5.099722,0.492,0.431,-0.756,3105.29,-75.425,-3.693,92.994,-0.324,-0.270,0.907,0.619,0.078,-0.781,3204.41,-77.886,14.883,109.108,-0.778,0.626,0.054,0.283,-0.001,-0.959,2770.54,-14.995,130.258,30.103,0.796,0.056,0.603,-0.408,0.581,-0.704,2676.51,24.507,12.645,83.929,0.283,0.180,0.942,0.679,0.109,0.726,12.312,-5.389,15.435,-72.183,0.876,0.309,0.371,12.801,-59.221,-36.382,-56.290,none
5.118586,0.528,0.308,-0.791,2782.61,-35.698,3.693,46.665,-0.349,-0.277,0.895,0.542,0.320,-0.777,2830.36,-55.058,2.014,77.327,-0.790,0.604,0.110,0.307,-0.176,-0.935,3133.66,13.876,125.111,22.381,0.768,0.081,0.636,-0.350,0.568,-0.745,2649.20,16.450,16.674,48.791,0.236,0.227,0.945,0.517,0.097,0.851,13.785,-4.092,20.824,-27.847,0.830,0.328,0.452,12.220,-32.626,-3.679,-24.733,none
5.142466,0.550,0.269,-0.791,2423.68,-19.248,11.638,21.038,-0.376,-0.276,0.885,0.520,0.401,-0.754,2138.40,0.336,21.822,-5.483,-0.808,0.584,0.079,0.306,-0.245,-0.920,3207.82,5.260,60.541,26.298,0.792,0.085,0.605,-0.377,0.515,-0.770,2561.97,16.003,13.205,27.417,0.225,0.234,0.946,0.510,0.074,0.857,10.510,-7.527,24.229,1.450,0.714,0.381,0.588,10.101,-16.748,14.153,-10.458,none
5.164825,0.573,-0.048,-0.818,2561.66,9.960,22.269,1.679,-0.376,-0.267,0.887,0.625,-0.114,-0.772,1949.43,9.400,50.917,-47.336,-0.827,0.558,0.068,0.312,-0.197,-0.929,2455.11,-13.541,25.626,10.407,0.940,0.136,0.313,-0.366,0.466,-0.805,2472.72,7.610,16.674,18.129,0.197,0.247,0.949,0.318,0.060,0.946,10.140,4.870,17.084,-3.252,0.629,0.392,0.672,10.075,-17.344,0.824,-9.969,none
5.598537,0.579,-0.118,-0.807,2789.66,2.574,5.371,10.072,-0.393,-0.279,0.876,0.594,-0.277,-0.755,2927.24,1.567,58.527,-46.665,-0.837,0.546,0.042,0.312,-0.167,-0.935,2357.74,-10.183,23.165,-14.995,0.806,0.092,0.585,-0.330,0.493,-0.805,2597.14,0.895,18.688,14.100,0.174,0.268,0.948,0.374,0.056,0.926,12.111,0.015,14.534,-11.664,0.666,0.378,0.642,11.151,-18.947,-3.771,-9.328,none
5.598754,0.612,-0.002,-0.791,2497.88,-0.560,-3.581,13.876,-0.385,-0.334,0.860,0.619,-0.164,-0.768,3030.84,3.469,38.608,-27.529,-0.828,0.555,0.081,0.313,-0.317,-0.895,2757.38,-3.469,18.017,-15.219,0.870,0.086,0.486,-0.323,0.450,-0.832,2649.86,5.036,15.107,7.050,0.182,0.264,0.947,0.402,0.041,0.915,12.462,-7.115,13.908,2.000,0.691,0.361,0.626,11.648,-24.443,10.427,5.557,none
5.598901,0.604,-0.053,-0.795,2693.04,8.841,1.679,4.029,-0.402,-0.281,0.871,0.620,-0.220,-0.753,3154.74,9.960,17.010,-19.695,-0.855,0.517,0.047,0.316,-0.324,-0.892,2670.15,1.567,8.952,-9.512,0.827,0.066,0.558,-0.322,0.441,-0.838,2634.10,2.462,11.862,-1.343,0.184,0.263,0.947,0.373,0.035,0.927,11.331,-10.595,12.244,21.069,0.662,0.376,0.649,10.412,-18.214,19.771,17.542,none
5.599037,0.612,-0.107,-0.784,2609.76,12.422,-0.671,-5.819,-0.383,-0.269,0.884,0.647,-0.228,-0.728,2688.32,11.414,0.783,-14.772,-0.849,0.528,0.015,0.317,-0.357,-0.879,2508.12,5.260,10.407,-2.014,0.880,0.119,0.459,-0.323,0.426,-0.845,2565.67,2.910,7.498,-6.938,0.179,0.263,0.948,0.287,-0.018,0.958,11.387,-4.809,6.748,21.802,0.564,0.346,0.750,10.536,-10.672,17.069,19.435,none
5.599182,0.574,-0.154,-0.804,2456.74,16.674,-0.336,-10.519,-0.402,-0.259,0.878,0.628,-0.253,-0.736,2269.39,10.967,3.469,-19.472,-0.860,0.508,0.038,0.263,-0.401,-0.878,2500.12,12.310,19.695,8.952,0.915,0.138,0.378,-0.389,0.370,-0.844,2533.62,5.819,4.364,-11.414,0.170,0.275,0.946,0.295,-0.045,0.954,11.600,-10.382,5.191,22.962,0.552,0.302,0.777,10.492,-12.214,19.634,18.198,none
5.599345,0.529,-0.309,-0.790,2552.96,21.486,-1.119,-6.491,-0.382,-0.260,0.887,0.562,-0.404,-0.721,2587.10,14.772,10.967,-21.262,-0.859,0.512,0.009,0.204,-0.475,-0.856,2402.48,18.688,21.374,12.757,0.902,0.055,0.429,-0.415,0.385,-0.824,2558.48,2.798,2.126,-10.743,0.173,0.278,0.945,0.297,-0.075,0.952,10.747,-16.229,8.611,15.817,0.507,0.285,0.814,9.904,-14.321,15.328,11.176,none
5.599516,0.514,-0.316,-0.798,2440.02,13.317,0.448,1.902,-0.397,-0.252,0.883,0.544,-0.410,-0.732,2695.17,8.952,10.183,-6.267,-0.859,0.512,0.019,0.237,-0.390,-0.890,2566.51,15.779,27.976,17.681,0.917,0.133,0.377,-0.436,0.390,-0.811,2503.19,4.700,2.798,-6.826,0.177,0.268,0.947,0.333,-0.102,0.937,9.846,-7.863,7.802,8.626,0.556,0.253,0.792,9.154,-12.794,5.206,0.656,none
5.599642,0.502,-0.197,-0.842,2416.94,5.707,0.560,6.043,-0.375,-0.264,0.889,0.556,-0.280,-0.783,2512.39,4.476,2.350,6.714,-0.852,0.524,-0.024,0.261,-0.346,-0.901,2556.02,8.841,15.555,7.498,0.924,0.124,0.361,-0.447,0.365,-0.817,2486.80,6.714,4.029,-4.700,0.188,0.274,0.943,0.360,-0.105,0.927,10.048,7.298,4.137,1.328,0.643,0.236,0.729,9.539,-4.962,-0.809,-2.718,none
5.599772,0.498,-0.158,-0.852,2259.54,4.364,1.455,1.343,-0.356,-0.227,0.907,0.565,-0.254,-0.785,2263.89,5.819,-0.895,1.902,-0.839,0.545,0.000,0.254,-0.394,-0.883,2395.72,10.855,10.295,-0.560,0.866,0.130,0.482,-0.447,0.384,-0.808,2488.90,5.260,6.155,-4.812,0.175,0.294,0.940,0.358,-0.082,0.930,10.912,12.107,8.794,4.779,0.618,0.251,0.745,9.778,0.885,2.214,-2.427,none
5.599911,0.516,-0.182,-0.837,2350.58,9.176,5.260,-1.119,-0.395,-0.246,0.885,0.574,-0.278,-0.771,2245.27,9.624,2.686,-2.574,-0.845,0.534,0.009,0.252,-0.417,-0.873,2333.90,10.183,11.862,-8.281,0.851,0.140,0.507,-0.436,0.382,-0.815,2503.60,1.455,10.631,-5.595,0.192,0.285,0.939,0.336,-0.081,0.938,10.766,13.618,11.160,4.366,0.575,0.271,0.772,10.050,3.420,3.863,-3.634,none
5.600026,0.527,-0.231,-0.818,2488.38,10.631,6.826,-1.119,-0.382,-0.243,0.892,0.581,-0.319,-0.749,2571.75,11.750,6.938,-3.581,-0.852,0.523,0.008,0.259,-0.424,-0.868,2504.38,12.198,13.205,-10.407,0.816,0.159,0.556,-0.410,0.372,-0.833,2543.73,-0.112,11.750,-5.260,0.194,0.290,0.937,0.312,-0.076,0.947,11.370,14.168,7.328,1.954,0.558,0.285,0.779,10.688,1.786,-0.794,-3.435,none
5.600141,0.538,-0.246,-0.806,2657.77,5.931,3.021,1.455,-0.393,-0.257,0.883,0.590,-0.321,-0.741,2680.03,11.750,1.567,-1.119,-0.852,0.523,0.012,0.270,-0.440,-0.856,2654.65,11.974,10.407,-5.819,0.869,0.189,0.457,-0.395,0.380,-0.836,2568.01,4.588,6.826,-5.483,0.213,0.273,0.938,0.321,-0.077,0.944,11.598,9.084,3.679,5.130,0.567,0.281,0.774,10.658,-0.580,-1.832,-1.588,none
5.600256,0.546,-0.222,-0.808,2494.69,3.917,0.560,2.798,-0.394,-0.234,0.889,0.588,-0.326,-0.740,2575.74,10.295,-0.895,1.567,-0.847,0.531,-0.007,0.288,-0.420,-0.860,2687.54,11.526,3.917,-2.574,0.951,0.258,0.172,-0.406,0.361,-0.840,2570.69,5.931,3.693,-6.267,0.197,0.287,0.938,0.347,-0.088,0.934,10.741,9.802,0.183,8.763,0.612,0.260,0.747,10.023,1.634,-1.328,2.305,none
5.600401,0.530,-0.152,-0.834,2418.64,0.112,3.581,-2.574,-0.373,-0.244,0.895,0.584,-0.305,-0.752,2559.58,8.952,-3.245,2.910,-0.849,0.528,-0.017,0.284,-0.421,-0.862,2592.82,9.848,-3.917,-5.483,0.946,0.290,0.145,-0.416,0.354,-0.837,2505.59,1.231,0.671,-8.505,0.202,0.283,0.938,0.345,-0.084,0.935,10.304,16.840,-3.313,9.176,0.609,0.269,0.746,9.577,8.092,-4.794,5.511,none
5.600520,0.528,-0.164,-0.833,2372.57,-0.336,2.238,-12.757,-0.397,-0.230,0.888,0.579,-0.291,-0.762,2514.74,9.288,-9.176,-1.790,-0.850,0.526,-0.018,0.280,-0.424,-0.861,2457.52,6.043,-7.498,-7.274,0.932,0.241,0.271,-0.419,0.354,-0.836,2510.61,-7.162,0.560,-9.176,0.197,0.285,0.938,0.319,-0.064,0.946,10.950,20.641,-4.137,6.931,0.554,0.293,0.779,9.924,13.740,-8.015,3.313,none
5.600648,0.523,-0.233,-0.820,2507.07,2.014,4.141,-16.338,-0.422,-0.247,0.872,0.576,-0.320,-0.752,2560.19,10.631,-13.988,-1.455,-0.842,0.539,-0.035,0.273,-0.425,-0.863,2406.53,5.148,-6.043,-8.952,0.914,0.230,0.334,-0.411,0.376,-0.831,2493.11,-12.757,0.336,-9.064,0.215,0.279,0.936,0.319,-0.060,0.946,11.086,19.435,-4.672,7.573,0.519,0.310,0.797,10.342,12.794,-14.916,-0.702,none
5.600771,0.541,-0.256,-0.801,2626.60,2.238,-1.790,-7.050,-0.408,-0.251,0.878,0.583,-0.329,-0.743,2461.82,11.750,-18.912,1.902,-0.840,0.543,-0.005,0.282,-0.439,-0.853,2505.32,6.938,-3.133,-8.952,0.888,0.190,0.419,-0.410,0.364,-0.836,2544.71,-10.295,0.336,-8.841,0.217,0.259,0.941,0.309,-0.060,0.949,11.140,18.061,-6.733,6.992,0.567,0.311,0.763,9.945,15.573,-20.443,-3.160,none
5.602750,0.560,-0.208,-0.802,2292.29,2.350,-0.895,-8.057,-0.408,-0.251,0.878,0.588,-0.362,-0.723,2323.08,12.086,-15.555,-0.895,-0.832,0.554,-0.011,0.268,-0.498,-0.825,2565.18,8.952,-2.238,-7.945,0.854,0.198,0.481,-0.410,0.344,-0.844,2520.11,-4.924,-0.112,-7.722,0.223,0.258,0.940,0.289,-0.060,0.956,11.160,12.519,-4.153,7.160,0.603,0.298,0.741,10.252,13.710,-14.947,-2.290,none
5.602908,0.542,-0.270,-0.796,2310.06,0.783,4.141,-9.624,-0.392,-0.253,0.884,0.569,-0.352,-0.743,2300.23,9.960,-10.295,-3.469,-0.824,0.567,0.012,0.269,-0.466,-0.843,2487.35,4.364,-0.448,-3.021,0.898,0.277,0.343,-0.418,0.363,-0.833,2497.38,1.902,-0.224,-4.924,0.237,0.255,0.937,0.307,-0.064,0.949,10.848,7.344,1.466,2.244,0.577,0.304,0.758,9.971,1.160,-1.282,4.275,none
5.603051,0.542,-0.211,-0.813,2347.51,1.679,5.483,-4.924,-0.394,-0.286,0.874,0.571,-0.375,-0.730,2237.31,10.967,-5.483,-6.491,-0.833,0.552,0.032,0.262,-0.468,-0.844,2435.94,3.245,1.007,-0.895,0.884,0.238,0.403,-0.429,0.352,-0.832,2522.51,0.448,2.126,-2.574,0.226,0.265,0.937,0.322,-0.071,0.944,10.579,9.160,1.527,2.687,0.576,0.304,0.759,9.858,0.931,-3.450,-0.580,none
5.610514,0.543,-0.234,-0.806,2414.59,0.560,7.498,-5.595,-0.410,-0.250,0.877,0.566,-0.347,-0.748,2535.84,3.133,3.581,-5.707,-0.833,0.554,-0.003,0.270,-0.464,-0.844,2543.09,1.343,1.231,-1.119,0.843,0.285,0.456,-0.411,0.353,-0.841,2518.66,-2.686,2.462,-1.119,0.217,0.275,0.937,0.340,-0.062,0.938,10.975,13.298,-2.076,2.107,0.578,0.312,0.754,10.387,1.466,-8.366,0.275,none
5.633270,0.548,-0.209,-0.810,2610.58,-1.902,3.917,-4.364,-0.402,-0.274,0.874,0.567,-0.352,-0.744,2719.41,0.560,-3.469,-1.231,-0.825,0.565,0.015,0.280,-0.432,-0.858,2594.63,-1.902,0.112,-0.112,0.918,0.272,0.288,-0.409,0.363,-0.837,2553.08,-5.371,-2.126,-1.343,0.223,0.273,0.936,0.300,-0.053,0.952,11.387,12.183,-5.389,3.557,0.577,0.316,0.753,10.298,1.023,-9.603,3.237,none
5.656511,0.555,-0.212,-0.804,2433.16,-3.917,1.007,-6.714,-0.396,-0.255,0.882,0.571,-0.357,-0.739,2407.87,-2.574,-7.610,1.231,-0.827,0.562,-0.003,0.258,-0.470,-0.844,2552.37,-1.343,-2.910,2.686,0.907,0.324,0.270,-0.420,0.367,-0.830,2528.85,-5.260,-5.260,-1.007,0.228,0.266,0.937,0.325,-0.060,0.944,10.583,13.374,-7.939,2.244,0.563,0.319,0.763,9.651,6.305,-11.191,-0.031,none
5.679833,0.548,-0.266,-0.793,2304.89,-6.491,6.043,-8.393,-0.404,-0.258,0.878,0.557,-0.394,-0.731,2328.29,-7.050,-0.448,3.917,-0.825,0.564,0.023,0.250,-0.476,-0.843,2394.74,-3.805,0.224,8.057,0.852,0.177,0.493,-0.434,0.363,-0.825,2474.55,-3.357,-5.819,1.902,0.226,0.274,0.935,0.299,-0.056,0.952,10.522,17.221,-3.939,0.489,0.564,0.320,0.761,9.525,5.618,-11.420,-4.260,none
6.105005,0.553,-0.266,-0.790,2266.65,-9.400,10.631,-4.924,-0.420,-0.247,0.873,0.566,-0.399,-0.722,2276.99,-10.743,6.043,4.700,-0.826,0.562,0.038,0.239,-0.514,-0.824,2388.70,-5.595,6.043,10.407,0.873,0.222,0.434,-0.425,0.355,-0.832,2499.81,2.126,-2.798,8.393,0.227,0.272,0.935,0.264,-0.047,0.963,10.837,17.023,-1.847,-6.168,0.529,0.344,0.776,10.043,4.748,-11.405,-10.763,none
6.105248,0.566,-0.334,-0.754,2543.48,-17.122,13.988,0.224,-0.409,-0.281,0.868,0.559,-0.437,-0.705,2777.23,-15.219,10.072,7.722,-0.831,0.556,-0.005,0.234,-0.553,-0.800,2435.43,-8.393,14.324,17.122,0.932,0.241,0.271,-0.390,0.355,-0.850,2528.80,-0.112,-5.371,13.764,0.208,0.261,0.943,0.278,-0.046,0.959,10.765,18.412,-7.878,-11.313,0.510,0.361,0.781,10.288,-1.099,-20.122,-12.611,none
6.105502,0.583,-0.270,-0.766,2669.48,-29.207,7.274,8.057,-0.410,-0.247,0.878,0.571,-0.427,-0.702,2772.93,-26.074,0.336,19.919,-0.839,0.545,0.000,0.266,-0.509,-0.819,2510.79,-13.317,25.850,28.424,0.931,0.239,0.276,-0.388,0.354,-0.851,2561.00,0.895,-11.526,17.905,0.200,0.277,0.940,0.240,-0.024,0.970,11.403,18.718,-11.847,-16.641,0.485,0.375,0.790,10.272,-3.344,-24.321,-18.901,none
6.105728,0.594,-0.298,-0.747,2356.68,-32.676,7.610,11.191,-0.420,-0.279,0.864,0.575,-0.425,-0.699,2530.22,-30.662,-7.050,32.005,-0.832,0.553,0.045,0.288,-0.501,-0.816,2725.00,-10.295,32.453,38.719,0.921,0.237,0.309,-0.398,0.368,-0.840,2545.88,4.924,-16.003,22.829,0.195,0.285,0.939,0.285,-0.023,0.958,11.091,10.916,-9.618,-23.939,0.523,0.365,0.771,10.049,-9.328,-25.450,-26.733,none
6.105895,0.588,-0.223,-0.778,2350.40,-36.146,12.869,18.241,-0.466,-0.276,0.841,0.561,-0.381,-0.735,2646.36,-33.460,-8.617,45.434,-0.834,0.550,0.052,0.303,-0.463,-0.833,2527.56,-21.934,24.060,51.365,0.959,0.204,0.198,-0.403,0.372,-0.836,2464.25,8.169,-14.883,27.753,0.188,0.289,0.939,0.328,-0.021,0.944,10.523,6.687,-5.985,-28.656,0.579,0.351,0.736,9.787,-14.260,-28.427,-30.382,none
6.106068,0.569,-0.178,-0.803,2460.80,-36.929,10.631,20.926,-0.441,-0.290,0.850,0.516,-0.412,-0.751,3635.76,-33.348,-34.803,67.367,-0.836,0.545,0.068,0.301,-0.449,-0.841,2410.07,-25.515,27.305,51.477,0.970,0.149,0.190,-0.417,0.370,-0.830,2480.65,3.245,-13.764,30.215,0.183,0.294,0.938,0.347,-0.015,0.938,11.148,0.092,1.817,-31.084,0.591,0.347,0.728,10.323,-26.183,-25.908,-30.763,none
6.106241,0.580,-0.188,-0.793,2430.13,-39.727,5.148,22.045,-0.435,-0.293,0.852,0.530,-0.423,-0.735,3819.64,-38.160,-87.063,108.101,-0.830,0.547,0.112,0.294,-0.419,-0.859,2371.77,-26.857,33.236,48.903,0.966,0.212,-0.147,-0.409,0.375,-0.832,2501.42,0.000,-11.974,31.669,0.169,0.297,0.940,0.332,-0.011,0.943,11.312,-23.344,15.969,-37.023,0.591,0.345,0.729,10.018,-41.985,-25.924,-29.695,none
6.106439,0.579,-0.221,-0.785,2418.39,-47.336,2.798,25.962,-0.449,-0.347,0.823,0.526,-0.461,-0.714,3287.63,-54.834,-132.273,147.044,-0.810,0.575,0.117,0.304,-0.390,-0.869,2422.41,-22.269,38.384,44.091,0.989,0.146,-0.011,-0.415,0.396,-0.819,2562.42,-1.902,-10.855,33.572,0.157,0.301,0.941,0.348,-0.031,0.937,10.980,-25.267,11.023,-39.924,0.642,0.328,0.693,10.260,-44.840,-29.328,-29.511,none
6.106616,0.567,-0.068,-0.821,2539.77,-62.443,0.560,29.319,-0.470,-0.355,0.808,0.556,-0.399,-0.729,2227.01,-70.613,-129.027,161.928,-0.816,0.560,0.140,0.327,-0.367,-0.871,2464.72,-18.129,40.398,44.874,0.964,0.181,-0.197,-0.424,0.425,-0.800,2575.44,0.783,-9.288,32.229,0.138,0.309,0.941,0.387,-0.028,0.922,11.573,-25.939,9.740,-37.924,0.704,0.296,0.646,10.784,-47.313,-24.595,-23.359,none
6.106777,0.552,0.080,-0.830,2521.93,-56.512,-3.469,29.207,-0.444,-0.376,0.813,0.416,0.096,-0.904,1565.78,-67.367,-98.029,136.525,-0.765,0.634,0.114,0.346,-0.331,-0.878,2522.81,-13.653,41.181,42.524,0.934,0.135,-0.330,-0.431,0.443,-0.786,2556.99,5.260,-10.183,26.857,0.119,0.330,0.936,0.419,-0.028,0.908,11.533,-28.504,11.344,-30.458,0.723,0.287,0.629,11.518,-50.595,-10.397,-11.847,none
6.106909,0.531,0.115,-0.839,2507.74,-36.146,-0.671,17.793,-0.465,-0.323,0.824,0.332,0.068,-0.941,1932.14,-55.058,-80.908,118.508,-0.750,0.620,0.230,0.355,-0.301,-0.885,2513.30,-3.021,32.453,34.131,0.942,0.097,-0.321,-0.425,0.429,-0.797,2548.47,14.324,-4.029,19.136,0.106,0.335,0.936,0.453,-0.037,0.891,11.263,-28.137,14.107,-19.511,0.721,0.281,0.634,10.637,-48.626,1.817,1.588,none
6.107042,0.532,0.148,-0.834,2486.73,-14.548,-2.686,11.750,-0.460,-0.333,0.823,0.244,0.225,-0.943,2020.87,-29.767,-43.755,56.848,-0.745,0.630,0.217,0.377,-0.261,-0.889,2525.10,2.462,27.976,23.612,0.981,0.022,-0.195,-0.427,0.447,-0.786,2557.94,9.848,-3.805,10.519,0.091,0.355,0.930,0.501,-0.055,0.864,10.701,-12.534,10.321,-0.916,0.735,0.255,0.628,10.059,-31.359,-0.809,6.107,none
6.107651,0.511,0.119,-0.851,2587.74,6.714,2.126,-4.141,-0.450,-0.343,0.825,0.188,0.319,-0.929,1947.33,-3.357,-13.876,3.917,-0.727,0.649,0.224,0.391,-0.230,-0.891,2737.77,9.736,11.862,6.491,0.925,0.090,-0.370,-0.443,0.436,-0.783,2554.25,4.141,-0.336,-1.455,0.090,0.349,0.933,0.486,-0.064,0.872,10.343,9.756,6.275,16.015,0.780,0.236,0.580,10.534,-14.885,3.282,15.374,none
6.107804,0.535,0.085,-0.840,2469.29,22.717,-3.469,-9.624,-0.459,-0.357,0.813,0.195,0.244,-0.950,1625.19,22.717,30.662,-52.148,-0.724,0.645,0.244,0.367,-0.320,-0.873,2458.53,12.645,-5.483,-7.274,0.913,0.129,-0.387,-0.431,0.424,-0.797,2559.50,-0.671,4.029,-12.645,0.089,0.353,0.932,0.418,-0.052,0.907,10.883,26.198,5.053,30.641,0.790,0.242,0.563,10.295,-0.824,16.718,34.427,none
6.107945,0.542,0.109,-0.833,2383.93,34.131,-7.162,-18.129,-0.454,-0.325,0.830,0.285,0.285,-0.915,1526.45,41.069,66.136,-106.087,-0.763,0.602,0.235,0.335,-0.424,-0.842,2434.68,18.017,-4.364,-17.233,0.922,0.104,-0.372,-0.433,0.414,-0.801,2546.94,-6.491,8.952,-23.276,0.099,0.359,0.928,0.308,-0.025,0.951,11.956,21.588,12.809,34.656,0.630,0.306,0.714,9.771,18.412,32.702,39.756,none
6.108077,0.583,-0.135,-0.801,2283.63,58.415,1.790,-26.969,-0.458,-0.317,0.830,0.634,-0.316,-0.706,825.55,59.534,127.013,-160.361,-0.769,0.619,0.159,0.290,-0.463,-0.838,2269.66,20.031,-2.686,-13.317,0.869,0.178,-0.461,-0.420,0.432,-0.798,2507.56,-8.281,10.295,-24.172,0.102,0.346,0.933,0.232,-0.037,0.972,11.759,5.511,25.542,37.435,0.400,0.335,0.853,10.250,13.740,39.496,24.397,none
6.111224,0.574,-0.371,-0.730,2235.34,60.429,6.826,-11.974,-0.439,-0.321,0.839,0.650,-0.516,-0.557,1152.04,61.436,191.471,-183.302,-0.810,0.574,0.121,0.256,-0.540,-0.802,2184.75,26.186,5.036,-7.945,0.932,0.152,-0.328,-0.427,0.400,-0.811,2465.97,11.302,13.764,-17.122,0.105,0.350,0.931,0.146,-0.066,0.987,10.531,-2.916,28.489,20.794,0.377,0.313,0.872,9.714,2.000,29.969,3.252,none
6.111377,0.555,-0.365,-0.748,2381.07,51.029,16.562,3.357,-0.460,-0.305,0.834,0.521,-0.528,-0.670,4467.57,46.441,194.940,-156.332,-0.826,0.563,-0.007,0.300,-0.519,-0.800,2289.52,23.948,17.122,-3.693,0.848,0.244,-0.470,-0.421,0.345,-0.839,2431.89,21.150,18.353,-7.945,0.114,0.354,0.928,0.214,-0.098,0.972,9.394,5.878,21.802,2.290,0.464,0.298,0.834,8.458,6.107,9.053,-13.542,none
6.111536,0.580,-0.343,-0.739,2449.50,24.955,19.360,2.686,-0.471,-0.338,0.815,0.536,-0.416,-0.735,4636.28,8.617,121.754,-81.803,-0.855,0.518,0.014,0.328,-0.537,-0.777,2723.10,20.143,25.515,-6.938,0.929,0.216,-0.300,-0.389,0.287,-0.875,2509.44,16.786,13.988,-0.112,0.127,0.359,0.925,0.190,-0.096,0.977,9.716,28.489,0.931,-6.702,0.490,0.324,0.809,9.207,28.183,-16.641,-23.954,none
6.111671,0.604,-0.320,-0.730,2531.42,-5.595,23.724,-7.610,-0.460,-0.288,0.840,0.578,-0.367,-0.729,3248.08,-7.050,39.950,-32.005,-0.869,0.492,-0.045,0.341,-0.522,-0.782,2880.52,10.855,26.634,-3.581,0.882,0.219,-0.416,-0.379,0.319,-0.869,2597.50,-2.350,7.162,4.700,0.118,0.362,0.925,0.254,-0.060,0.965,10.932,38.412,-9.023,-15.008,0.549,0.323,0.771,10.873,25.282,-28.427,-22.046,none
6.120166,0.611,-0.153,-0.777,2405.52,-26.857,25.738,-12.981,-0.487,-0.315,0.815,0.694,-0.191,-0.694,1884.31,-16.226,51.029,-57.408,-0.870,0.493,-0.024,0.343,-0.505,-0.792,2720.90,-5.483,15.667,6.938,0.844,0.279,-0.458,-0.389,0.350,-0.852,2533.78,-11.302,0.560,7.498,0.124,0.356,0.926,0.295,-0.037,0.955,11.623,30.534,-7.863,-13.863,0.614,0.317,0.723,10.431,18.458,-25.374,-14.733,none
6.142852,0.593,-0.102,-0.799,2460.96,-19.024,26.857,-13.541,-0.489,-0.319,0.812,0.664,-0.210,-0.717,2042.27,-12.757,67.367,-60.093,-0.892,0.450,-0.047,0.364,-0.433,-0.824,2424.93,-8.393,13.764,10.967,0.916,0.163,-0.366,-0.408,0.398,-0.822,2553.37,-9.288,1.007,7.945,0.146,0.327,0.933,0.362,-0.027,0.932,11.556,16.015,2.076,-9.221,0.661,0.304,0.686,10.702,9.160,-12.061,-8.015,none
6.166561,0.580,-0.094,-0.809,2550.61,2.014,19.919,-9.848,-0.493,-0.308,0.814,0.658,-0.126,-0.742,2463.53,-6.714,71.396,-57.184,-0.899,0.434,-0.066,0.382,-0.367,-0.848,2437.65,-5.483,12.198,4.029,0.880,0.200,-0.431,-0.415,0.427,-0.803,2514.30,1.007,4.924,3.469,0.136,0.346,0.928,0.382,-0.025,0.924,11.161,12.931,9.649,2.260,0.663,0.311,0.681,10.463,9.817,-1.802,-1.618,none
6.188445,0.605,-0.133,-0.785,2393.38,18.800,1.343,4.812,-0.511,-0.341,0.789,0.664,-0.216,-0.716,2840.98,10.072,58.303,-48.008,-0.899,0.429,-0.083,0.365,-0.406,-0.838,2444.95,6.491,5.819,-5.931,0.917,0.216,-0.335,-0.399,0.419,-0.816,2564.05,4.141,10.183,-2.350,0.135,0.360,0.923,0.332,-0.025,0.943,11.184,15.328,8.870,9.496,0.615,0.323,0.719,10.830,8.626,2.351,3.313,none
6.624537,0.589,-0.127,-0.798,2660.36,15.667,2.350,2.350,-0.520,-0.291,0.803,0.669,-0.243,-0.703,2924.38,11.638,44.315,-39.950,-0.913,0.392,-0.114,0.370,-0.430,-0.824,2628.48,9.960,2.686,-4.588,0.915,0.232,-0.331,-0.390,0.398,-0.831,2527.06,-2.350,7.274,-7.722,0.136,0.348,0.928,0.329,-0.037,0.944,11.021,19.908,4.046,12.550,0.622,0.321,0.714,10.219,4.809,4.260,7.008,none
6.626546,0.603,-0.147,-0.784,2435.24,15.555,-1.119,-5.483,-0.512,-0.321,0.797,0.675,-0.238,-0.699,2868.23,11.302,23.948,-25.179,-0.901,0.406,-0.152,0.358,-0.463,-0.811,2464.00,10.855,-2.238,-5.707,0.842,0.236,-0.486,-0.405,0.355,-0.842,2527.37,1.902,4.924,-10.743,0.152,0.340,0.928,0.255,-0.039,0.966,11.032,16.718,4.489,15.557,0.580,0.332,0.744,9.957,7.450,5.527,9.756,none
6.626696,0.599,-0.197,-0.776,2420.09,16.226,-1.007,-9.400,-0.511,-0.298,0.806,0.688,-0.314,-0.655,2613.95,13.429,6.155,-14.324,-0.898,0.396,-0.193,0.342,-0.499,-0.796,2498.59,10.407,-1.007,-8.393,0.877,0.255,-0.407,-0.405,0.366,-0.838,2504.97,-4.364,6.043,-9.960,0.155,0.340,0.928,0.233,-0.038,0.972,10.944,14.382,4.092,9.618,0.538,0.341,0.771,10.258,5.176,6.931,10.595,none
6.626864,0.602,-0.284,-0.747,2474.88,16.338,-1.567,-7.833,-0.518,-0.305,0.799,0.702,-0.321,-0.636,2520.93,9.400,-0.671,-5.036,-0.903,0.390,-0.179,0.330,-0.524,-0.785,2584.99,6.379,1.007,-6.714,0.806,0.246,-0.538,-0.402,0.347,-0.847,2499.47,-0.560,5.483,-5.595,0.160,0.332,0.930,0.251,-0.043,0.967,11.101,12.214,1.710,5.878,0.504,0.340,0.794,10.373,-0.565,4.137,7.802,none
6.627036,0.603,-0.266,-0.752,2484.28,4.700,-1.679,-1.679,-0.516,-0.284,0.808,0.697,-0.281,-0.659,2608.25,1.455,-1.343,-1.902,-0.895,0.404,-0.188,0.328,-0.522,-0.787,2576.21,2.574,0.783,-3.469,0.878,0.255,-0.405,-0.397,0.358,-0.845,2530.16,-1.455,2.574,-2.350,0.161,0.330,0.930,0.244,-0.033,0.969,11.019,8.061,-0.947,1.069,0.515,0.346,0.784,10.068,-3.893,-3.221,2.809,none
6.627928,0.608,-0.237,-0.758,2464.65,-5.036,0.000,-2.686,-0.500,-0.290,0.816,0.687,-0.282,-0.670,2801.89,-1.679,-7.162,3.245,-0.899,0.406,-0.165,0.356,-0.472,-0.807,2539.96,-1.567,0.783,0.000,0.854,0.302,-0.423,-0.390,0.371,-0.843,2525.19,-3.021,-2.686,-0.336,0.163,0.348,0.923,0.280,-0.017,0.960,10.946,8.153,-4.534,-3.802,0.574,0.348,0.741,10.086,-3.695,-9.588,0.992,none
6.628089,0.617,-0.168,-0.769,2429.57,-8.952,-0.224,-5.148,-0.498,-0.298,0.815,0.684,-0.239,-0.689,2812.57,-2.686,-23.500,17.681,-0.899,0.409,-0.158,0.363,-0.468,-0.806,2518.03,-1.567,-1.343,1.455,0.830,0.287,-0.479,-0.390,0.382,-0.838,2527.71,-6.602,-6.043,0.336,0.150,0.344,0.927,0.278,-0.013,0.960,10.945,8.840,-5.038,-4.336,0.581,0.349,0.735,10.135,-2.977,-12.489,-0.137,none
6.628217,0.609,-0.159,-0.777,2443.37,-9.736,-0.112,-4.812,-0.503,-0.328,0.800,0.725,-0.182,-0.664,2235.92,-2.238,-33.348,22.829,-0.899,0.421,-0.122,0.364,-0.468,-0.805,2456.10,-2.126,-2.574,3.581,0.898,0.277,-0.341,-0.406,0.395,-0.824,2523.29,-6.043,-6.714,0.448,0.163,0.339,0.927,0.291,-0.011,0.957,11.086,9.038,-3.817,-6.000,0.585,0.347,0.733,10.073,-2.870,-11.008,-0.687,none
6.628344,0.612,-0.158,-0.775,2385.45,-6.714,0.336,-3.133,-0.507,-0.324,0.798,0.720,-0.147,-0.678,2103.52,-1.231,-18.129,11.862,-0.899,0.422,-0.117,0.364,-0.475,-0.801,2397.89,-1.679,0.560,2.910,0.875,0.292,-0.386,-0.398,0.387,-0.832,2522.34,-3.469,-4.700,1.119,0.158,0.334,0.929,0.303,-0.010,0.953,11.061,8.137,-2.702,-3.145,0.596,0.347,0.724,10.153,-3.664,-6.824,-1.374,none
6.629701,0.613,-0.156,-0.774,2427.07,-3.805,0.783,-1.231,-0.511,-0.341,0.789,0.691,-0.247,-0.679,2446.30,2.238,-4.364,3.021,-0.898,0.424,-0.116,0.366,-0.470,-0.803,2463.98,-0.448,2.126,3.133,0.914,0.266,-0.306,-0.403,0.384,-0.830,2538.66,0.783,-1.902,0.448,0.158,0.345,0.925,0.305,-0.017,0.952,10.817,9.023,-2.809,-1.389,0.588,0.349,0.729,10.088,-3.954,-4.931,-1.603,none
6.629823,0.615,-0.159,-0.772,2434.17,-2.462,1.007,-1.231,-0.524,-0.304,0.796,0.695,-0.220,-0.684,2486.15,-1.231,-4.252,3.917,-0.892,0.441,-0.102,0.369,-0.470,-0.802,2553.29,0.448,1.231,3.693,0.909,0.279,-0.311,-0.397,0.378,-0.837,2531.38,0.448,-1.119,0.112,0.161,0.339,0.927,0.303,-0.014,0.953,10.940,11.374,-3.847,1.145,0.589,0.347,0.730,10.092,-2.870,-6.076,-1.603,none
6.629960,0.610,-0.152,-0.778,2426.40,-2.574,2.686,-2.350,-0.514,-0.335,0.790,0.703,-0.211,-0.679,2303.16,-1.231,0.112,-0.783,-0.900,0.422,-0.110,0.371,-0.465,-0.804,2511.48,-0.448,0.224,4.588,0.908,0.254,-0.334,-0.401,0.382,-0.833,2531.65,-0.560,-2.126,-0.336,0.154,0.335,0.930,0.290,-0.013,0.957,10.870,11.115,-2.641,0.840,0.587,0.346,0.732,10.029,-3.160,-5.435,-0.962,none
6.630092,0.609,-0.157,-0.778,2414.07,-0.224,1.567,-1.455,-0.488,-0.363,0.794,0.694,-0.222,-0.685,2325.01,-1.231,5.931,-4.588,-0.900,0.422,-0.110,0.364,-0.466,-0.807,2427.00,0.224,0.895,2.238,0.908,0.254,-0.334,-0.408,0.381,-0.829,2507.77,-1.455,-1.119,-0.336,0.160,0.345,0.925,0.284,-0.010,0.959,10.999,8.901,-1.267,-2.198,0.584,0.349,0.733,10.104,-3.954,-5.985,-0.321,none
6.630205,0.613,-0.156,-0.774,2427.07,-0.783,0.336,-0.783,-0.514,-0.284,0.809,0.687,-0.236,-0.687,2474.31,-2.014,5.819,-3.581,-0.892,0.432,-0.133,0.364,-0.467,-0.806,2480.86,0.000,2.574,0.783,0.897,0.278,-0.345,-0.398,0.395,-0.828,2546.78,-3.357,-0.336,0.336,0.150,0.344,0.927,0.307,-0.007,0.952,11.183,7.771,-0.626,-1.649,0.598,0.350,0.721,10.189,-4.595,-3.863,-1.084,none
6.630322,0.617,-0.150,-0.772,2458.85,-0.224,0.671,-0.112,-0.514,-0.325,0.794,0.687,-0.211,-0.695,2630.51,-1.567,2.574,0.224,-0.890,0.442,-0.111,0.368,-0.461,-0.808,2559.28,1.007,1.567,1.790,0.852,0.269,-0.450,-0.394,0.391,-0.832,2546.75,2.126,1.007,-0.224,0.149,0.335,0.930,0.307,-0.008,0.952,11.059,5.771,-0.611,-0.412,0.597,0.351,0.722,10.129,-3.649,-3.435,-2.153,none
6.630440,0.617,-0.151,-0.773,2444.96,-0.112,2.014,-0.448,-0.510,-0.323,0.797,0.692,-0.218,-0.688,2499.19,0.336,-4.029,2.238,-0.901,0.421,-0.107,0.366,-0.468,-0.805,2521.67,3.133,0.112,2.686,0.926,0.227,-0.300,-0.399,0.383,-0.833,2519.32,2.238,-1.119,-1.455,0.151,0.335,0.930,0.303,-0.013,0.953,10.785,7.496,-0.809,0.611,0.603,0.344,0.720,10.058,-1.527,-5.542,0.107,none
6.630558,0.607,-0.142,-0.782,2388.29,-2.238,2.238,-3.357,-0.511,-0.327,0.795,0.693,-0.208,-0.690,2394.10,-0.671,-4.252,1.679,-0.896,0.428,-0.117,0.358,-0.463,-0.811,2464.00,2.238,-0.671,2.798,0.910,0.241,-0.338,-0.408,0.381,-0.829,2507.77,0.112,-2.686,-2.574,0.157,0.342,0.926,0.308,-0.013,0.951,10.552,11.863,-1.603,0.061,0.582,0.347,0.736,10.094,-0.992,-5.573,1.084,none
6.632103,0.601,-0.155,-0.784,2444.53,-0.671,3.133,-6.043,-0.519,-0.364,0.774,0.687,-0.212,-0.695,2347.12,0.783,-1.790,-2.126,-0.894,0.428,-0.132,0.360,-0.469,-0.807,2453.29,2.350,-0.448,1.455,0.867,0.248,-0.432,-0.414,0.391,-0.822,2495.66,-1.231,-2.126,-2.350,0.154,0.350,0.924,0.294,-0.006,0.956,10.895,15.863,-3.053,-0.718,0.574,0.353,0.739,10.180,-3.359,-5.985,-0.198,none
6.632206,0.612,-0.173,-0.771,2462.23,-0.336,0.671,-3.245,-0.522,-0.355,0.776,0.696,-0.232,-0.680,2400.30,2.126,1.119,-3.357,-0.894,0.431,-0.125,0.361,-0.475,-0.802,2418.67,3.021,1.567,-0.224,0.885,0.233,-0.403,-0.405,0.386,-0.829,2531.20,-2.574,-1.455,-2.014,0.152,0.340,0.928,0.286,0.003,0.958,11.200,13.359,-2.046,-1.176,0.555,0.359,0.750,10.448,-3.527,-7.481,-1.588,none
6.632303,0.619,-0.160,-0.769,2483.57,-0.336,0.560,-1.790,-0.491,-0.363,0.792,0.697,-0.224,-0.681,2481.54,1.902,2.014,-3.133,-0.906,0.402,-0.131,0.368,-0.475,-0.799,2562.26,2.574,1.343,0.448,0.909,0.254,-0.331,-0.394,0.386,-0.834,2551.20,-2.910,-0.671,-1.679,0.158,0.351,0.923,0.305,-0.000,0.952,11.032,11.725,-4.366,-2.244,0.612,0.352,0.708,10.281,0.885,-12.214,-1.511,none
6.632393,0.623,-0.118,-0.773,2453.83,-4.252,1.231,-4.141,-0.499,-0.352,0.792,0.698,-0.118,-0.706,2561.25,4.924,0.783,-7.162,-0.890,0.440,-0.119,0.387,-0.437,-0.812,2583.86,3.693,-1.231,-1.119,0.876,0.300,-0.378,-0.395,0.380,-0.837,2544.37,-1.790,-2.686,-3.133,0.155,0.338,0.928,0.355,0.006,0.935,10.941,16.885,-9.527,2.855,0.632,0.354,0.689,10.065,5.832,-13.298,1.573,none
6.641687,0.606,-0.100,-0.789,2700.89,-1.790,-1.007,-7.498,-0.520,-0.320,0.792,0.696,-0.118,-0.708,2553.58,15.443,-4.029,-18.129,-0.906,0.406,-0.122,0.388,-0.444,-0.808,2607.80,2.686,-6.826,-0.783,0.892,0.297,-0.339,-0.400,0.401,-0.824,2557.90,-6.267,-5.707,-6.602,0.157,0.345,0.925,0.370,0.009,0.929,11.131,20.061,-8.992,11.466,0.658,0.342,0.671,10.667,8.122,-12.626,9.252,none
6.665604,0.606,-0.102,-0.789,2455.93,4.812,-11.526,-8.505,-0.507,-0.339,0.793,0.676,-0.176,-0.715,2485.06,28.648,-4.476,-20.926,-0.885,0.442,-0.147,0.366,-0.459,-0.810,2442.20,5.371,-8.169,-2.462,0.832,0.310,-0.460,-0.424,0.397,-0.814,2507.52,-7.945,-5.371,-12.310,0.167,0.321,0.932,0.330,0.016,0.944,11.239,17.618,-5.664,19.878,0.616,0.351,0.705,10.316,8.427,-6.351,15.618,none
6.689160,0.604,-0.153,-0.782,2400.40,7.833,-10.519,-11.302,-0.488,-0.334,0.807,0.683,-0.145,-0.716,2346.15,37.377,-7.162,-27.641,-0.874,0.458,-0.163,0.362,-0.464,-0.808,2411.82,6.155,-8.617,-4.364,0.886,0.269,-0.378,-0.429,0.395,-0.813,2524.18,-8.841,-2.686,-13.876,0.161,0.339,0.927,0.264,0.016,0.964,11.427,7.237,-0.748,14.794,0.568,0.365,0.738,10.315,-1.298,-0.763,14.702,none
