0.007319,BNO0_UnitAccX,BNO0_UnitAccY,BNO0_UnitAccZ,BNO0_RawAccMag,BNO0_GyrX,BNO0_GyrY,BNO0_GyrZ,BNO0_MagX,BNO0_MagY,BNO0_MagZ,BNO1_UnitAccX,BNO1_UnitAccY,BNO1_UnitAccZ,BNO1_RawAccMag,BNO1_GyrX,BNO1_GyrY,BNO1_GyrZ,BNO1_MagX,BNO1_MagY,BNO1_MagZ,BNO2_UnitAccX,BNO2_UnitAccY,BNO2_UnitAccZ,BNO2_RawAccMag,BNO2_GyrX,BNO2_GyrY,BNO2_GyrZ,BNO2_MagX,BNO2_MagY,BNO2_MagZ,BNO3_UnitAccX,BNO3_UnitAccY,BNO3_UnitAccZ,BNO3_RawAccMag,BNO3_GyrX,BNO3_GyrY,BNO3_GyrZ,BNO3_MagX,BNO3_MagY,BNO3_MagZ,MPU0_UnitAccX,MPU0_UnitAccY,MPU0_UnitAccZ,MPU0_RawAccMag,MPU0_GyrX,MPU0_GyrY,MPU0_GyrZ,MPU1_UnitAccX,MPU1_UnitAccY,MPU1_UnitAccZ,MPU1_RawAccMag,MPU1_GyrX,MPU1_GyrY,MPU1_GyrZ,none
0.049224,0.325,0.414,-0.851,2812.08,-0.112,0.112,0.112,-0.463,-0.885,0.047,0.432,-0.179,-0.884,2609.41,-0.112,3.917,-9.064,-0.097,0.116,0.988,-0.915,0.299,-0.272,1827.76,26.074,26.074,-77.998,0.067,-0.576,-0.815,-0.622,0.317,0.716,2548.05,-55.281,34.579,145.925,0.167,0.303,-0.938,0.271,0.185,0.945,12.621,1.298,5.023,14.168,0.838,0.284,0.466,14.656,-1.725,-22.458,-4.885,none
0.049410,0.325,0.414,-0.851,2812.08,-0.112,0.112,0.112,-0.463,-0.885,0.047,0.432,-0.179,-0.884,2609.41,-0.112,3.917,-9.064,-0.097,0.116,0.988,-0.915,0.299,-0.272,1827.76,26.074,26.074,-77.998,0.067,-0.576,-0.815,-0.622,0.317,0.716,2548.05,-55.281,34.579,145.925,0.167,0.303,-0.938,0.242,0.162,0.957,10.389,-7.496,6.214,15.023,0.841,0.251,0.479,13.689,-0.992,-16.748,-2.336,none
0.049526,0.325,0.414,-0.851,2812.08,-0.112,0.112,0.112,-0.463,-0.885,0.047,0.432,-0.179,-0.884,2609.41,-0.112,3.917,-9.064,-0.097,0.116,0.988,-0.915,0.299,-0.272,1827.76,26.074,26.074,-77.998,0.067,-0.576,-0.815,-0.622,0.317,0.716,2548.05,-55.281,34.579,145.925,0.167,0.303,-0.938,0.253,0.134,0.958,9.593,7.420,-2.672,4.061,0.847,0.242,0.474,14.040,-3.511,-14.244,1.038,none
0.063037,0.325,0.414,-0.851,2812.08,-0.112,0.112,0.112,-0.463,-0.885,0.047,0.432,-0.179,-0.884,2609.41,-0.112,3.917,-9.064,-0.097,0.116,0.988,-0.915,0.299,-0.272,1827.76,26.074,26.074,-77.998,0.067,-0.576,-0.815,-0.622,0.317,0.716,2548.05,-55.281,34.579,145.925,0.167,0.303,-0.938,0.323,0.153,0.934,10.857,16.458,-5.817,-0.534,0.849,0.262,0.459,14.248,-5.435,-9.450,2.092,none
0.083357,0.325,0.414,-0.851,2812.08,-0.112,0.112,0.112,-0.463,-0.885,0.047,0.432,-0.179,-0.884,2609.41,-0.112,3.917,-9.064,-0.097,0.116,0.988,-0.915,0.299,-0.272,1827.76,26.074,26.074,-77.998,0.067,-0.576,-0.815,-0.622,0.317,0.716,2548.05,-55.281,34.579,145.925,0.167,0.303,-0.938,0.298,0.180,0.938,11.601,10.992,-0.153,1.710,0.846,0.276,0.457,14.351,-8.412,-8.153,0.046,none
0.103115,0.325,0.414,-0.851,2812.08,-0.112,0.112,0.112,-0.463,-0.885,0.047,0.432,-0.179,-0.884,2609.41,-0.112,3.917,-9.064,-0.097,0.116,0.988,-0.915,0.299,-0.272,1827.76,26.074,26.074,-77.998,0.067,-0.576,-0.815,-0.622,0.317,0.716,2548.05,-55.281,34.579,145.925,0.167,0.303,-0.938,0.280,0.185,0.942,11.253,3.878,3.038,-0.977,0.846,0.277,0.456,14.260,-8.626,-5.145,-2.366,none
0.123173,0.325,0.414,-0.851,2812.08,-0.112,0.112,0.112,-0.463,-0.885,0.047,0.432,-0.179,-0.884,2609.41,-0.112,3.917,-9.064,-0.097,0.116,0.988,-0.915,0.299,-0.272,1827.76,26.074,26.074,-77.998,0.067,-0.576,-0.815,-0.622,0.317,0.716,2548.05,-55.281,34.579,145.925,0.167,0.303,-0.938,0.307,0.170,0.936,10.870,6.168,4.519,-1.542,0.846,0.271,0.459,14.118,-9.145,-5.908,-2.595,none
0.143373,0.325,0.414,-0.851,2812.08,-0.112,0.112,0.112,-0.463,-0.885,0.047,0.432,-0.179,-0.884,2609.41,-0.112,3.917,-9.064,-0.097,0.116,0.988,-0.915,0.299,-0.272,1827.76,26.074,26.074,-77.998,0.067,-0.576,-0.815,-0.622,0.317,0.716,2548.05,-55.281,34.579,145.925,0.167,0.303,-0.938,0.276,0.171,0.946,10.662,6.107,4.702,-2.611,0.846,0.269,0.460,14.202,-9.099,-6.748,-1.511,none
0.163749,0.325,0.414,-0.851,2812.08,-0.112,0.112,0.112,-0.463,-0.885,0.047,0.432,-0.179,-0.884,2609.41,-0.112,3.917,-9.064,-0.097,0.116,0.988,-0.915,0.299,-0.272,1827.76,26.074,26.074,-77.998,0.067,-0.576,-0.815,-0.622,0.317,0.716,2548.05,-55.281,34.579,145.925,0.167,0.303,-0.938,0.313,0.163,0.936,10.650,11.237,1.389,-2.809,0.847,0.267,0.460,14.104,-8.626,-7.527,-0.687,none
0.184104,0.325,0.414,-0.851,2812.08,-0.112,0.112,0.112,-0.463,-0.885,0.047,0.432,-0.179,-0.884,2609.41,-0.112,3.917,-9.064,-0.097,0.116,0.988,-0.915,0.299,-0.272,1827.76,26.074,26.074,-77.998,0.067,-0.576,-0.815,-0.622,0.317,0.716,2548.05,-55.281,34.579,145.925,0.167,0.303,-0.938,0.310,0.170,0.935,10.642,16.351,0.366,0.336,0.847,0.271,0.457,14.155,-9.221,-8.275,0.901,none
0.204226,0.325,0.414,-0.851,2812.08,-0.112,0.112,0.112,-0.463,-0.885,0.047,0.432,-0.179,-0.884,2609.41,-0.112,3.917,-9.064,-0.097,0.116,0.988,-0.915,0.299,-0.272,1827.76,26.074,26.074,-77.998,0.067,-0.576,-0.815,-0.622,0.317,0.716,2548.05,-55.281,34.579,145.925,0.167,0.303,-0.938,0.293,0.186,0.938,11.149,19.328,-0.595,2.504,0.845,0.276,0.458,14.277,-7.985,-8.214,1.282,none
0.224301,0.325,0.414,-0.851,2812.08,-0.112,0.112,0.112,-0.463,-0.885,0.047,0.432,-0.179,-0.884,2609.41,-0.112,3.917,-9.064,-0.097,0.116,0.988,-0.915,0.299,-0.272,1827.76,26.074,26.074,-77.998,0.067,-0.576,-0.815,-0.622,0.317,0.716,2548.05,-55.281,34.579,145.925,0.167,0.303,-0.938,0.257,0.194,0.947,11.728,12.336,0.458,0.687,0.848,0.272,0.454,14.213,-7.038,-6.351,0.336,none
0.244634,0.325,0.414,-0.851,2812.08,-0.112,0.112,0.112,-0.463,-0.885,0.047,0.432,-0.179,-0.884,2609.41,-0.112,3.917,-9.064,-0.097,0.116,0.988,-0.915,0.299,-0.272,1827.76,26.074,26.074,-77.998,0.067,-0.576,-0.815,-0.622,0.317,0.716,2548.05,-55.281,34.579,145.925,0.167,0.303,-0.938,0.300,0.177,0.937,10.877,5.435,3.710,-2.214,0.848,0.267,0.457,14.252,-6.626,-5.053,-0.427,none
0.264374,0.325,0.414,-0.851,2812.08,-0.112,0.112,0.112,-0.463,-0.885,0.047,0.432,-0.179,-0.884,2609.41,-0.112,3.917,-9.064,-0.097,0.116,0.988,-0.915,0.299,-0.272,1827.76,26.074,26.074,-77.998,0.067,-0.576,-0.815,-0.622,0.317,0.716,2548.05,-55.281,34.579,145.925,0.167,0.303,-0.938,0.296,0.178,0.939,11.046,6.947,1.420,-0.321,0.848,0.267,0.457,14.172,-5.786,-4.870,-0.931,none
0.284412,0.325,0.414,-0.851,2812.08,-0.112,0.112,0.112,-0.463,-0.885,0.047,0.432,-0.179,-0.884,2609.41,-0.112,3.917,-9.064,-0.097,0.116,0.988,-0.915,0.299,-0.272,1827.76,26.074,26.074,-77.998,0.067,-0.576,-0.815,-0.622,0.317,0.716,2548.05,-55.281,34.579,145.925,0.167,0.303,-0.938,0.299,0.186,0.936,10.826,8.656,0.748,0.473,0.848,0.269,0.456,14.186,-7.099,-5.344,-0.305,none
0.303982,0.325,0.414,-0.851,2812.08,-0.112,0.112,0.112,-0.463,-0.885,0.047,0.432,-0.179,-0.884,2609.41,-0.112,3.917,-9.064,-0.097,0.116,0.988,-0.915,0.299,-0.272,1827.76,26.074,26.074,-77.998,0.067,-0.576,-0.815,-0.622,0.317,0.716,2548.05,-55.281,34.579,145.925,0.167,0.303,-0.938,0.286,0.186,0.940,10.919,10.107,0.580,1.038,0.847,0.268,0.459,14.214,-8.092,-6.351,0.779,none
0.324162,0.325,0.414,-0.851,2812.08,-0.112,0.112,0.112,-0.463,-0.885,0.047,0.432,-0.179,-0.884,2609.41,-0.112,3.917,-9.064,-0.097,0.116,0.988,-0.915,0.299,-0.272,1827.76,26.074,26.074,-77.998,0.067,-0.576,-0.815,-0.622,0.317,0.716,2548.05,-55.281,34.579,145.925,0.167,0.303,-0.938,0.286,0.184,0.941,11.116,8.733,-0.382,-0.015,0.849,0.264,0.458,14.226,-7.099,-6.504,0.763,none
0.344130,0.325,0.414,-0.851,2812.08,-0.112,0.112,0.112,-0.463,-0.885,0.047,0.432,-0.179,-0.884,2609.41,-0.112,3.917,-9.064,-0.097,0.116,0.988,-0.915,0.299,-0.272,1827.76,26.074,26.074,-77.998,0.067,-0.576,-0.815,-0.622,0.317,0.716,2548.05,-55.281,34.579,145.925,0.167,0.303,-0.938,0.304,0.179,0.936,10.851,7.252,-0.168,-0.107,0.848,0.263,0.460,14.254,-6.183,-6.092,-0.046,none
0.364267,0.325,0.414,-0.851,2812.08,-0.112,0.112,0.112,-0.463,-0.885,0.047,0.432,-0.179,-0.884,2609.41,-0.112,3.917,-9.064,-0.097,0.116,0.988,-0.915,0.299,-0.272,1827.76,26.074,26.074,-77.998,0.067,-0.576,-0.815,-0.622,0.317,0.716,2548.05,-55.281,34.579,145.925,0.167,0.303,-0.938,0.299,0.184,0.936,11.028,8.901,-0.031,0.824,0.849,0.265,0.457,14.139,-5.832,-5.649,-1.008,none
0.384254,0.325,0.414,-0.851,2812.08,-0.112,0.112,0.112,-0.463,-0.885,0.047,0.432,-0.179,-0.884,2609.41,-0.112,3.917,-9.064,-0.097,0.116,0.988,-0.915,0.299,-0.272,1827.76,26.074,26.074,-77.998,0.067,-0.576,-0.815,-0.622,0.317,0.716,2548.05,-55.281,34.579,145.925,0.167,0.303,-0.938,0.299,0.188,0.935,10.561,11.802,-0.718,1.496,0.848,0.269,0.457,14.175,-6.702,-6.672,-0.229,none
0.404324,0.325,0.414,-0.851,2812.08,-0.112,0.112,0.112,-0.463,-0.885,0.047,0.432,-0.179,-0.884,2609.41,-0.112,3.917,-9.064,-0.097,0.116,0.988,-0.915,0.299,-0.272,1827.76,26.074,26.074,-77.998,0.067,-0.576,-0.815,-0.622,0.317,0.716,2548.05,-55.281,34.579,145.925,0.167,0.303,-0.938,0.303,0.189,0.934,10.995,15.298,-2.214,2.992,0.849,0.263,0.459,14.166,-6.672,-6.885,-0.061,none
0.424327,0.325,0.414,-0.851,2812.08,-0.112,0.112,0.112,-0.463,-0.885,0.047,0.432,-0.179,-0.884,2609.41,-0.112,3.917,-9.064,-0.097,0.116,0.988,-0.915,0.299,-0.272,1827.76,26.074,26.074,-77.998,0.067,-0.576,-0.815,-0.622,0.317,0.716,2548.05,-55.281,34.579,145.925,0.167,0.303,-0.938,0.285,0.191,0.939,10.971,14.885,-2.977,3.145,0.849,0.263,0.458,14.242,-5.985,-6.672,0.244,none
0.444394,0.325,0.414,-0.851,2812.08,-0.112,0.112,0.112,-0.463,-0.885,0.047,0.432,-0.179,-0.884,2609.41,-0.112,3.917,-9.064,-0.097,0.116,0.988,-0.915,0.299,-0.272,1827.76,26.074,26.074,-77.998,0.067,-0.576,-0.815,-0.622,0.317,0.716,2548.05,-55.281,34.579,145.925,0.167,0.303,-0.938,0.288,0.196,0.937,11.094,13.023,-1.954,1.802,0.849,0.263,0.458,14.213,-5.267,-6.214,-0.366,none
0.464691,0.325,0.414,-0.851,2812.08,-0.112,0.112,0.112,-0.463,-0.885,0.047,0.432,-0.179,-0.884,2609.41,-0.112,3.917,-9.064,-0.097,0.116,0.988,-0.915,0.299,-0.272,1827.76,26.074,26.074,-77.998,0.067,-0.576,-0.815,-0.622,0.317,0.716,2548.05,-55.281,34.579,145.925,0.167,0.303,-0.938,0.292,0.196,0.936,11.185,10.626,-0.382,-0.748,0.850,0.265,0.454,14.213,-5.344,-5.847,-1.664,none
0.486004,0.325,0.414,-0.851,2812.08,-0.112,0.112,0.112,-0.463,-0.885,0.047,0.432,-0.179,-0.884,2609.41,-0.112,3.917,-9.064,-0.097,0.116,0.988,-0.915,0.299,-0.272,1827.76,26.074,26.074,-77.998,0.067,-0.576,-0.815,-0.622,0.317,0.716,2548.05,-55.281,34.579,145.925,0.167,0.303,-0.938,0.303,0.196,0.933,10.816,9.130,0.977,-0.534,0.849,0.266,0.457,14.221,-5.924,-5.969,-1.481,none
0.506545,0.325,0.414,-0.851,2812.08,-0.112,0.112,0.112,-0.463,-0.885,0.047,0.432,-0.179,-0.884,2609.41,-0.112,3.917,-9.064,-0.097,0.116,0.988,-0.915,0.299,-0.272,1827.76,26.074,26.074,-77.998,0.067,-0.576,-0.815,-0.622,0.317,0.716,2548.05,-55.281,34.579,145.925,0.167,0.303,-0.938,0.302,0.196,0.933,10.796,12.626,-2.076,0.427,0.850,0.265,0.454,14.218,-5.450,-6.153,-1.771,none
0.526773,0.325,0.414,-0.851,2812.08,-0.112,0.112,0.112,-0.463,-0.885,0.047,0.432,-0.179,-0.884,2609.41,-0.112,3.917,-9.064,-0.097,0.116,0.988,-0.915,0.299,-0.272,1827.76,26.074,26.074,-77.998,0.067,-0.576,-0.815,-0.622,0.317,0.716,2548.05,-55.281,34.579,145.925,0.167,0.303,-0.938,0.306,0.201,0.931,10.917,14.947,-2.183,2.366,0.850,0.265,0.455,14.177,-5.832,-5.847,-0.656,none
0.546913,0.325,0.414,-0.851,2812.08,-0.112,0.112,0.112,-0.463,-0.885,0.047,0.432,-0.179,-0.884,2609.41,-0.112,3.917,-9.064,-0.097,0.116,0.988,-0.915,0.299,-0.272,1827.76,26.074,26.074,-77.998,0.067,-0.576,-0.815,-0.622,0.317,0.716,2548.05,-55.281,34.579,145.925,0.167,0.303,-0.938,0.320,0.199,0.926,10.616,16.229,-1.496,4.244,0.851,0.265,0.454,14.225,-6.061,-6.656,0.626,none
0.566906,0.325,0.414,-0.851,2812.08,-0.112,0.112,0.112,-0.463,-0.885,0.047,0.432,-0.179,-0.884,2609.41,-0.112,3.917,-9.064,-0.097,0.116,0.988,-0.915,0.299,-0.272,1827.76,26.074,26.074,-77.998,0.067,-0.576,-0.815,-0.622,0.317,0.716,2548.05,-55.281,34.579,145.925,0.167,0.303,-0.938,0.251,0.215,0.944,12.101,16.260,-1.267,5.221,0.852,0.262,0.454,14.172,-5.588,-6.321,0.397,none
0.587009,0.325,0.414,-0.851,2812.08,-0.112,0.112,0.112,-0.463,-0.885,0.047,0.432,-0.179,-0.884,2609.41,-0.112,3.917,-9.064,-0.097,0.116,0.988,-0.915,0.299,-0.272,1827.76,26.074,26.074,-77.998,0.067,-0.576,-0.815,-0.622,0.317,0.716,2548.05,-55.281,34.579,145.925,0.167,0.303,-0.938,0.316,0.200,0.927,11.008,7.802,-2.534,-0.260,0.851,0.263,0.455,14.243,-5.023,-5.252,-0.015,none
0.606994,0.325,0.414,-0.851,2812.08,-0.112,0.112,0.112,-0.463,-0.885,0.047,0.432,-0.179,-0.884,2609.41,-0.112,3.917,-9.064,-0.097,0.116,0.988,-0.915,0.299,-0.272,1827.76,26.074,26.074,-77.998,0.067,-0.576,-0.815,-0.622,0.317,0.716,2548.05,-55.281,34.579,145.925,0.167,0.303,-0.938,0.302,0.205,0.931,10.930,8.366,-1.038,-0.244,0.852,0.262,0.454,14.178,-5.038,-5.038,-0.412,none
0.627151,0.325,0.414,-0.851,2812.08,-0.112,0.112,0.112,-0.463,-0.885,0.047,0.432,-0.179,-0.884,2609.41,-0.112,3.917,-9.064,-0.097,0.116,0.988,-0.915,0.299,-0.272,1827.76,26.074,26.074,-77.998,0.067,-0.576,-0.815,-0.622,0.317,0.716,2548.05,-55.281,34.579,145.925,0.167,0.303,-0.938,0.302,0.207,0.931,11.018,8.840,1.847,-0.611,0.853,0.263,0.451,14.267,-5.130,-4.748,-1.130,none
0.646973,0.325,0.414,-0.851,2812.08,-0.112,0.112,0.112,-0.463,-0.885,0.047,0.432,-0.179,-0.884,2609.41,-0.112,3.917,-9.064,-0.097,0.116,0.988,-0.915,0.299,-0.272,1827.76,26.074,26.074,-77.998,0.067,-0.576,-0.815,-0.622,0.317,0.716,2548.05,-55.281,34.579,145.925,0.167,0.303,-0.938,0.305,0.207,0.930,10.978,8.931,3.786,-1.802,0.850,0.262,0.457,14.342,-6.122,-3.313,-2.641,none
0.666931,0.325,0.414,-0.851,2812.08,-0.112,0.112,0.112,-0.463,-0.885,0.047,0.432,-0.179,-0.884,2609.41,-0.112,3.917,-9.064,-0.097,0.116,0.988,-0.915,0.299,-0.272,1827.76,26.074,26.074,-77.998,0.067,-0.576,-0.815,-0.622,0.317,0.716,2548.05,-55.281,34.579,145.925,0.167,0.303,-0.938,0.270,0.211,0.940,10.993,9.282,1.771,-0.672,0.852,0.257,0.457,14.116,-4.229,-4.534,-1.634,none
0.687125,0.325,0.414,-0.851,2812.08,-0.112,0.112,0.112,-0.463,-0.885,0.047,0.432,-0.179,-0.884,2609.41,-0.112,3.917,-9.064,-0.097,0.116,0.988,-0.915,0.299,-0.272,1827.76,26.074,26.074,-77.998,0.067,-0.576,-0.815,-0.622,0.317,0.716,2548.05,-55.281,34.579,145.925,0.167,0.303,-0.938,0.319,0.208,0.925,11.067,8.000,-1.863,-1.053,0.851,0.265,0.454,14.300,-5.954,-7.069,-0.290,none
0.707285,0.325,0.414,-0.851,2812.08,-0.112,0.112,0.112,-0.463,-0.885,0.047,0.432,-0.179,-0.884,2609.41,-0.112,3.917,-9.064,-0.097,0.116,0.988,-0.915,0.299,-0.272,1827.76,26.074,26.074,-77.998,0.067,-0.576,-0.815,-0.622,0.317,0.716,2548.05,-55.281,34.579,145.925,0.167,0.303,-0.938,0.316,0.205,0.926,11.003,8.122,-0.824,-1.817,0.851,0.260,0.456,14.234,-4.473,-5.221,-2.397,none
0.727348,0.325,0.414,-0.851,2812.08,-0.112,0.112,0.112,-0.463,-0.885,0.047,0.432,-0.179,-0.884,2609.41,-0.112,3.917,-9.064,-0.097,0.116,0.988,-0.915,0.299,-0.272,1827.76,26.074,26.074,-77.998,0.067,-0.576,-0.815,-0.622,0.317,0.716,2548.05,-55.281,34.579,145.925,0.167,0.303,-0.938,0.298,0.212,0.931,10.993,6.382,-0.733,-1.695,0.852,0.265,0.452,14.234,-5.847,-5.679,-1.557,none
0.747185,0.325,0.414,-0.851,2812.08,-0.112,0.112,0.112,-0.463,-0.885,0.047,0.432,-0.179,-0.884,2609.41,-0.112,3.917,-9.064,-0.097,0.116,0.988,-0.915,0.299,-0.272,1827.76,26.074,26.074,-77.998,0.067,-0.576,-0.815,-0.622,0.317,0.716,2548.05,-55.281,34.579,145.925,0.167,0.303,-0.938,0.299,0.217,0.929,10.941,6.458,-1.420,-1.832,0.849,0.270,0.454,14.241,-5.206,-5.954,-1.847,none
0.767376,0.325,0.414,-0.851,2812.08,-0.112,0.112,0.112,-0.463,-0.885,0.047,0.432,-0.179,-0.884,2609.41,-0.112,3.917,-9.064,-0.097,0.116,0.988,-0.915,0.299,-0.272,1827.76,26.074,26.074,-77.998,0.067,-0.576,-0.815,-0.622,0.317,0.716,2548.05,-55.281,34.579,145.925,0.167,0.303,-0.938,0.300,0.215,0.929,10.915,7.496,-0.565,-1.863,0.851,0.266,0.452,14.170,-3.969,-5.481,-2.489,none
0.787451,0.325,0.414,-0.851,2812.08,-0.112,0.112,0.112,-0.463,-0.885,0.047,0.432,-0.179,-0.884,2609.41,-0.112,3.917,-9.064,-0.097,0.116,0.988,-0.915,0.299,-0.272,1827.76,26.074,26.074,-77.998,0.067,-0.576,-0.815,-0.622,0.317,0.716,2548.05,-55.281,34.579,145.925,0.167,0.303,-0.938,0.304,0.211,0.929,11.002,6.687,0.351,-1.954,0.850,0.265,0.455,14.256,-5.145,-6.168,-1.939,none
0.807524,0.325,0.414,-0.851,2812.08,-0.112,0.112,0.112,-0.463,-0.885,0.047,0.432,-0.179,-0.884,2609.41,-0.112,3.917,-9.064,-0.097,0.116,0.988,-0.915,0.299,-0.272,1827.76,26.074,26.074,-77.998,0.067,-0.576,-0.815,-0.622,0.317,0.716,2548.05,-55.281,34.579,145.925,0.167,0.303,-0.938,0.305,0.207,0.930,10.932,6.137,0.046,-2.718,0.852,0.260,0.455,14.237,-5.588,-6.763,-2.504,none
0.827751,0.325,0.414,-0.851,2812.08,-0.112,0.112,0.112,-0.463,-0.885,0.047,0.432,-0.179,-0.884,2609.41,-0.112,3.917,-9.064,-0.097,0.116,0.988,-0.915,0.299,-0.272,1827.76,26.074,26.074,-77.998,0.067,-0.576,-0.815,-0.622,0.317,0.716,2548.05,-55.281,34.579,145.925,0.167,0.303,-0.938,0.296,0.211,0.932,11.001,4.840,-0.931,-3.099,0.852,0.264,0.453,14.207,-6.611,-7.664,-2.260,none
0.847757,0.325,0.414,-0.851,2812.08,-0.112,0.112,0.112,-0.463,-0.885,0.047,0.432,-0.179,-0.884,2609.41,-0.112,3.917,-9.064,-0.097,0.116,0.988,-0.915,0.299,-0.272,1827.76,26.074,26.074,-77.998,0.067,-0.576,-0.815,-0.622,0.317,0.716,2548.05,-55.281,34.579,145.925,0.167,0.303,-0.938,0.302,0.213,0.929,10.973,4.076,-1.786,-3.573,0.851,0.266,0.453,14.252,-6.885,-7.740,-1.969,none
0.868053,0.325,0.414,-0.851,2812.08,-0.112,0.112,0.112,-0.463,-0.885,0.047,0.432,-0.179,-0.884,2609.41,-0.112,3.917,-9.064,-0.097,0.116,0.988,-0.915,0.299,-0.272,1827.76,26.074,26.074,-77.998,0.067,-0.576,-0.815,-0.622,0.317,0.716,2548.05,-55.281,34.579,145.925,0.167,0.303,-0.938,0.306,0.211,0.928,10.975,4.504,-0.550,-3.511,0.852,0.268,0.451,14.221,-7.084,-6.458,-1.802,none
0.887956,0.325,0.414,-0.851,2812.08,-0.112,0.112,0.112,-0.463,-0.885,0.047,0.432,-0.179,-0.884,2609.41,-0.112,3.917,-9.064,-0.097,0.116,0.988,-0.915,0.299,-0.272,1827.76,26.074,26.074,-77.998,0.067,-0.576,-0.815,-0.622,0.317,0.716,2548.05,-55.281,34.579,145.925,0.167,0.303,-0.938,0.305,0.221,0.926,10.925,5.237,0.473,-2.901,0.850,0.272,0.450,14.190,-6.885,-6.336,-1.389,none
0.907943,0.325,0.414,-0.851,2812.08,-0.112,0.112,0.112,-0.463,-0.885,0.047,0.432,-0.179,-0.884,2609.41,-0.112,3.917,-9.064,-0.097,0.116,0.988,-0.915,0.299,-0.272,1827.76,26.074,26.074,-77.998,0.067,-0.576,-0.815,-0.622,0.317,0.716,2548.05,-55.281,34.579,145.925,0.167,0.303,-0.938,0.298,0.222,0.928,10.919,5.664,-2.061,-1.603,0.849,0.275,0.451,14.209,-5.573,-7.389,-0.244,none
0.929263,0.325,0.414,-0.851,2812.08,-0.112,0.112,0.112,-0.463,-0.885,0.047,0.432,-0.179,-0.884,2609.41,-0.112,3.917,-9.064,-0.097,0.116,0.988,-0.915,0.299,-0.272,1827.76,26.074,26.074,-77.998,0.067,-0.576,-0.815,-0.622,0.317,0.716,2548.05,-55.281,34.579,145.925,0.167,0.303,-0.938,0.306,0.217,0.927,11.007,4.992,-2.122,-0.687,0.853,0.267,0.449,14.220,-5.924,-6.947,0.473,none
0.948301,0.325,0.414,-0.851,2812.08,-0.112,0.112,0.112,-0.463,-0.885,0.047,0.432,-0.179,-0.884,2609.41,-0.112,3.917,-9.064,-0.097,0.116,0.988,-0.915,0.299,-0.272,1827.76,26.074,26.074,-77.998,0.067,-0.576,-0.815,-0.622,0.317,0.716,2548.05,-55.281,34.579,145.925,0.167,0.303,-0.938,0.305,0.210,0.929,10.941,4.733,-2.260,0.031,0.853,0.264,0.450,14.246,-6.076,-6.305,1.160,none
0.968679,0.325,0.414,-0.851,2812.08,-0.112,0.112,0.112,-0.463,-0.885,0.047,0.432,-0.179,-0.884,2609.41,-0.112,3.917,-9.064,-0.097,0.116,0.988,-0.915,0.299,-0.272,1827.76,26.074,26.074,-77.998,0.067,-0.576,-0.815,-0.622,0.317,0.716,2548.05,-55.281,34.579,145.925,0.167,0.303,-0.938,0.306,0.214,0.928,10.952,4.977,0.427,-0.947,0.852,0.266,0.450,14.207,-6.000,-5.786,-0.137,none
0.988672,0.325,0.414,-0.851,2812.08,-0.112,0.112,0.112,-0.463,-0.885,0.047,0.432,-0.179,-0.884,2609.41,-0.112,3.917,-9.064,-0.097,0.116,0.988,-0.915,0.299,-0.272,1827.76,26.074,26.074,-77.998,0.067,-0.576,-0.815,-0.622,0.317,0.716,2548.05,-55.281,34.579,145.925,0.167,0.303,-0.938,0.305,0.211,0.929,10.991,4.916,-0.824,-1.099,0.852,0.264,0.452,14.263,-5.954,-6.061,-0.015,none
1.011527,0.325,0.414,-0.851,2812.08,-0.112,0.112,0.112,-0.463,-0.885,0.047,0.432,-0.179,-0.884,2609.41,-0.112,3.917,-9.064,-0.097,0.116,0.988,-0.915,0.299,-0.272,1827.76,26.074,26.074,-77.998,0.067,-0.576,-0.815,-0.622,0.317,0.716,2548.05,-55.281,34.579,145.925,0.167,0.303,-0.938,0.307,0.211,0.928,10.944,5.405,-0.015,-1.252,0.854,0.264,0.449,14.244,-5.863,-5.359,-0.382,none
1.030832,0.325,0.414,-0.851,2812.08,-0.112,0.112,0.112,-0.463,-0.885,0.047,0.432,-0.179,-0.884,2609.41,-0.112,3.917,-9.064,-0.097,0.116,0.988,-0.915,0.299,-0.272,1827.76,26.074,26.074,-77.998,0.067,-0.576,-0.815,-0.622,0.317,0.716,2548.05,-55.281,34.579,145.925,0.167,0.303,-0.938,0.307,0.210,0.928,10.942,5.817,0.748,-1.130,0.853,0.262,0.452,14.257,-5.740,-5.023,-0.412,none
1.048798,0.325,0.414,-0.851,2812.08,-0.112,0.112,0.112,-0.463,-0.885,0.047,0.432,-0.179,-0.884,2609.41,-0.112,3.917,-9.064,-0.097,0.116,0.988,-0.915,0.299,-0.272,1827.76,26.074,26.074,-77.998,0.067,-0.576,-0.815,-0.622,0.317,0.716,2548.05,-55.281,34.579,145.925,0.167,0.303,-0.938,0.304,0.212,0.929,10.992,6.137,0.595,-1.115,0.853,0.264,0.451,14.251,-5.405,-4.779,-0.412,none
1.068987,0.325,0.414,-0.851,2812.08,-0.112,0.112,0.112,-0.463,-0.885,0.047,0.432,-0.179,-0.884,2609.41,-0.112,3.917,-9.064,-0.097,0.116,0.988,-0.915,0.299,-0.272,1827.76,26.074,26.074,-77.998,0.067,-0.576,-0.815,-0.622,0.317,0.716,2548.05,-55.281,34.579,145.925,0.167,0.303,-0.938,0.305,0.210,0.929,11.001,5.939,0.702,-1.405,0.853,0.265,0.450,14.239,-5.466,-4.794,-0.779,none
1.088741,0.325,0.414,-0.851,2812.08,-0.112,0.112,0.112,-0.463,-0.885,0.047,0.432,-0.179,-0.884,2609.41,-0.112,3.917,-9.064,-0.097,0.116,0.988,-0.915,0.299,-0.272,1827.76,26.074,26.074,-77.998,0.067,-0.576,-0.815,-0.622,0.317,0.716,2548.05,-55.281,34.579,145.925,0.167,0.303,-0.938,0.304,0.214,0.928,10.983,5.542,-0.702,-1.344,0.852,0.265,0.451,14.234,-5.450,-4.779,-0.550,none
1.108841,0.325,0.414,-0.851,2812.08,-0.112,0.112,0.112,-0.463,-0.885,0.047,0.432,-0.179,-0.884,2609.41,-0.112,3.917,-9.064,-0.097,0.116,0.988,-0.915,0.299,-0.272,1827.76,26.074,26.074,-77.998,0.067,-0.576,-0.815,-0.622,0.317,0.716,2548.05,-55.281,34.579,145.925,0.167,0.303,-0.938,0.306,0.210,0.928,10.936,5.649,-0.244,-1.298,0.854,0.264,0.448,14.196,-5.603,-4.748,-0.580,none
1.128902,0.325,0.414,-0.851,2812.08,-0.112,0.112,0.112,-0.463,-0.885,0.047,0.432,-0.179,-0.884,2609.41,-0.112,3.917,-9.064,-0.097,0.116,0.988,-0.915,0.299,-0.272,1827.76,26.074,26.074,-77.998,0.067,-0.576,-0.815,-0.622,0.317,0.716,2548.05,-55.281,34.579,145.925,0.167,0.303,-0.938,0.311,0.209,0.927,10.977,5.588,0.855,-1.053,0.854,0.262,0.450,14.265,-5.527,-4.702,-0.336,none
1.148899,0.325,0.414,-0.851,2812.08,-0.112,0.112,0.112,-0.463,-0.885,0.047,0.432,-0.179,-0.884,2609.41,-0.112,3.917,-9.064,-0.097,0.116,0.988,-0.915,0.299,-0.272,1827.76,26.074,26.074,-77.998,0.067,-0.576,-0.815,-0.622,0.317,0.716,2548.05,-55.281,34.579,145.925,0.167,0.303,-0.938,0.307,0.213,0.928,10.944,5.832,0.244,-1.221,0.852,0.265,0.451,14.251,-5.374,-4.489,-0.580,none
1.169458,0.325,0.414,-0.851,2812.08,-0.112,0.112,0.112,-0.463,-0.885,0.047,0.432,-0.179,-0.884,2609.41,-0.112,3.917,-9.064,-0.097,0.116,0.988,-0.915,0.299,-0.272,1827.76,26.074,26.074,-77.998,0.067,-0.576,-0.815,-0.622,0.317,0.716,2548.05,-55.281,34.579,145.925,0.167,0.303,-0.938,0.308,0.212,0.927,10.974,5.832,0.794,-1.420,0.853,0.265,0.449,14.232,-5.756,-4.641,-0.916,none
1.188889,0.325,0.414,-0.851,2812.08,-0.112,0.112,0.112,-0.463,-0.885,0.047,0.432,-0.179,-0.884,2609.41,-0.112,3.917,-9.064,-0.097,0.116,0.988,-0.915,0.299,-0.272,1827.76,26.074,26.074,-77.998,0.067,-0.576,-0.815,-0.622,0.317,0.716,2548.05,-55.281,34.579,145.925,0.167,0.303,-0.938,0.305,0.213,0.928,10.977,5.725,0.656,-1.450,0.853,0.265,0.450,14.247,-5.939,-4.901,-0.687,none
1.211794,0.325,0.414,-0.851,2812.08,-0.112,0.112,0.112,-0.463,-0.885,0.047,0.432,-0.179,-0.884,2609.41,-0.112,3.917,-9.064,-0.097,0.116,0.988,-0.915,0.299,-0.272,1827.76,26.074,26.074,-77.998,0.067,-0.576,-0.815,-0.622,0.317,0.716,2548.05,-55.281,34.579,145.925,0.167,0.303,-0.938,0.304,0.214,0.928,10.939,5.634,1.267,-1.176,0.852,0.265,0.451,14.250,-6.336,-5.298,-0.351,none
1.231925,0.325,0.414,-0.851,2812.08,-0.112,0.112,0.112,-0.463,-0.885,0.047,0.432,-0.179,-0.884,2609.41,-0.112,3.917,-9.064,-0.097,0.116,0.988,-0.915,0.299,-0.272,1827.76,26.074,26.074,-77.998,0.067,-0.576,-0.815,-0.622,0.317,0.716,2548.05,-55.281,34.579,145.925,0.167,0.303,-0.938,0.303,0.210,0.930,10.965,5.466,1.542,-0.977,0.854,0.262,0.450,14.259,-6.061,-5.359,-0.214,none
1.252281,0.325,0.414,-0.851,2812.08,-0.112,0.112,0.112,-0.463,-0.885,0.047,0.432,-0.179,-0.884,2609.41,-0.112,3.917,-9.064,-0.097,0.116,0.988,-0.915,0.299,-0.272,1827.76,26.074,26.074,-77.998,0.067,-0.576,-0.815,-0.622,0.317,0.716,2548.05,-55.281,34.579,145.925,0.167,0.303,-0.938,0.300,0.213,0.930,10.952,5.710,-0.290,-1.145,0.852,0.264,0.452,14.265,-5.954,-5.237,-0.427,none
1.272467,0.325,0.414,-0.851,2812.08,-0.112,0.112,0.112,-0.463,-0.885,0.047,0.432,-0.179,-0.884,2609.41,-0.112,3.917,-9.064,-0.097,0.116,0.988,-0.915,0.299,-0.272,1827.76,26.074,26.074,-77.998,0.067,-0.576,-0.815,-0.622,0.317,0.716,2548.05,-55.281,34.579,145.925,0.167,0.303,-0.938,0.304,0.212,0.929,10.927,6.168,-0.061,-1.588,0.854,0.262,0.450,14.219,-5.954,-4.794,-1.115,none
1.293209,0.325,0.414,-0.851,2812.08,-0.112,0.112,0.112,-0.463,-0.885,0.047,0.432,-0.179,-0.884,2609.41,-0.112,3.917,-9.064,-0.097,0.116,0.988,-0.915,0.299,-0.272,1827.76,26.074,26.074,-77.998,0.067,-0.576,-0.815,-0.622,0.317,0.716,2548.05,-55.281,34.579,145.925,0.167,0.303,-0.938,0.310,0.218,0.925,10.995,5.557,1.618,-1.420,0.852,0.266,0.450,14.282,-6.687,-5.160,-0.458,none
1.312578,0.325,0.414,-0.851,2812.08,-0.112,0.112,0.112,-0.463,-0.885,0.047,0.432,-0.179,-0.884,2609.41,-0.112,3.917,-9.064,-0.097,0.116,0.988,-0.915,0.299,-0.272,1827.76,26.074,26.074,-77.998,0.067,-0.576,-0.815,-0.622,0.317,0.716,2548.05,-55.281,34.579,145.925,0.167,0.303,-0.938,0.302,0.215,0.929,10.981,5.817,3.710,-1.099,0.853,0.261,0.451,14.247,-6.718,-4.611,-0.183,none
1.332846,0.325,0.414,-0.851,2812.08,-0.112,0.112,0.112,-0.463,-0.885,0.047,0.432,-0.179,-0.884,2609.41,-0.112,3.917,-9.064,-0.097,0.116,0.988,-0.915,0.299,-0.272,1827.76,26.074,26.074,-77.998,0.067,-0.576,-0.815,-0.622,0.317,0.716,2548.05,-55.281,34.579,145.925,0.167,0.303,-0.938,0.298,0.211,0.931,10.920,5.267,2.977,-0.611,0.854,0.261,0.450,14.236,-6.504,-4.565,0.244,none
1.352970,0.325,0.414,-0.851,2812.08,-0.112,0.112,0.112,-0.463,-0.885,0.047,0.432,-0.179,-0.884,2609.41,-0.112,3.917,-9.064,-0.097,0.116,0.988,-0.915,0.299,-0.272,1827.76,26.074,26.074,-77.998,0.067,-0.576,-0.815,-0.622,0.317,0.716,2548.05,-55.281,34.579,145.925,0.167,0.303,-0.938,0.297,0.208,0.932,10.964,5.786,0.916,-1.038,0.854,0.259,0.452,14.240,-5.618,-4.595,-0.626,none
1.372674,0.325,0.414,-0.851,2812.08,-0.112,0.112,0.112,-0.463,-0.885,0.047,0.432,-0.179,-0.884,2609.41,-0.112,3.917,-9.064,-0.097,0.116,0.988,-0.915,0.299,-0.272,1827.76,26.074,26.074,-77.998,0.067,-0.576,-0.815,-0.622,0.317,0.716,2548.05,-55.281,34.579,145.925,0.167,0.303,-0.938,0.300,0.211,0.930,10.905,6.534,-0.366,-1.725,0.855,0.262,0.448,14.214,-4.870,-4.443,-1.542,none
1.392427,0.325,0.414,-0.851,2812.08,-0.112,0.112,0.112,-0.463,-0.885,0.047,0.432,-0.179,-0.884,2609.41,-0.112,3.917,-9.064,-0.097,0.116,0.988,-0.915,0.299,-0.272,1827.76,26.074,26.074,-77.998,0.067,-0.576,-0.815,-0.622,0.317,0.716,2548.05,-55.281,34.579,145.925,0.167,0.303,-0.938,0.306,0.215,0.927,11.050,5.267,-0.427,-1.405,0.852,0.266,0.451,14.277,-5.817,-5.389,-0.595,none
1.412501,0.325,0.414,-0.851,2812.08,-0.112,0.112,0.112,-0.463,-0.885,0.047,0.432,-0.179,-0.884,2609.41,-0.112,3.917,-9.064,-0.097,0.116,0.988,-0.915,0.299,-0.272,1827.76,26.074,26.074,-77.998,0.067,-0.576,-0.815,-0.622,0.317,0.716,2548.05,-55.281,34.579,145.925,0.167,0.303,-0.938,0.301,0.213,0.930,10.933,5.725,1.573,-1.221,0.854,0.263,0.448,14.187,-6.092,-5.191,-0.519,none
1.433212,0.325,0.414,-0.851,2812.08,-0.112,0.112,0.112,-0.463,-0.885,0.047,0.432,-0.179,-0.884,2609.41,-0.112,3.917,-9.064,-0.097,0.116,0.988,-0.915,0.299,-0.272,1827.76,26.074,26.074,-77.998,0.067,-0.576,-0.815,-0.622,0.317,0.716,2548.05,-55.281,34.579,145.925,0.167,0.303,-0.938,0.307,0.211,0.928,10.979,5.603,0.504,-1.145,0.855,0.264,0.446,14.275,-6.336,-4.931,-0.214,none
1.453110,0.325,0.414,-0.851,2812.08,-0.112,0.112,0.112,-0.463,-0.885,0.047,0.432,-0.179,-0.884,2609.41,-0.112,3.917,-9.064,-0.097,0.116,0.988,-0.915,0.299,-0.272,1827.76,26.074,26.074,-77.998,0.067,-0.576,-0.815,-0.622,0.317,0.716,2548.05,-55.281,34.579,145.925,0.167,0.303,-0.938,0.300,0.212,0.930,10.942,6.137,0.473,-1.237,0.854,0.261,0.451,14.255,-6.244,-4.443,-0.611,none
1.473326,0.325,0.414,-0.851,2812.08,-0.112,0.112,0.112,-0.463,-0.885,0.047,0.432,-0.179,-0.884,2609.41,-0.112,3.917,-9.064,-0.097,0.116,0.988,-0.915,0.299,-0.272,1827.76,26.074,26.074,-77.998,0.067,-0.576,-0.815,-0.622,0.317,0.716,2548.05,-55.281,34.579,145.925,0.167,0.303,-0.938,0.301,0.216,0.929,10.960,6.412,-0.137,-1.038,0.854,0.263,0.449,14.267,-6.168,-4.290,-0.153,none
1.493416,0.325,0.414,-0.851,2812.08,-0.112,0.112,0.112,-0.463,-0.885,0.047,0.432,-0.179,-0.884,2609.41,-0.112,3.917,-9.064,-0.097,0.116,0.988,-0.915,0.299,-0.272,1827.76,26.074,26.074,-77.998,0.067,-0.576,-0.815,-0.622,0.317,0.716,2548.05,-55.281,34.579,145.925,0.167,0.303,-0.938,0.309,0.213,0.927,11.054,5.863,0.183,-0.824,0.854,0.264,0.449,14.297,-6.198,-4.992,-0.107,none
1.512849,0.325,0.414,-0.851,2812.08,-0.112,0.112,0.112,-0.463,-0.885,0.047,0.432,-0.179,-0.884,2609.41,-0.112,3.917,-9.064,-0.097,0.116,0.988,-0.915,0.299,-0.272,1827.76,26.074,26.074,-77.998,0.067,-0.576,-0.815,-0.622,0.317,0.716,2548.05,-55.281,34.579,145.925,0.167,0.303,-0.938,0.301,0.211,0.930,10.948,6.015,2.672,-1.511,0.855,0.260,0.449,14.221,-6.107,-4.687,-1.023,none
1.533062,0.325,0.414,-0.851,2812.08,-0.112,0.112,0.112,-0.463,-0.885,0.047,0.432,-0.179,-0.884,2609.41,-0.112,3.917,-9.064,-0.097,0.116,0.988,-0.915,0.299,-0.272,1827.76,26.074,26.074,-77.998,0.067,-0.576,-0.815,-0.622,0.317,0.716,2548.05,-55.281,34.579,145.925,0.167,0.303,-0.938,0.297,0.209,0.932,10.978,5.664,2.656,-1.832,0.855,0.258,0.451,14.294,-6.473,-4.641,-1.038,none
1.553173,0.325,0.414,-0.851,2812.08,-0.112,0.112,0.112,-0.463,-0.885,0.047,0.432,-0.179,-0.884,2609.41,-0.112,3.917,-9.064,-0.097,0.116,0.988,-0.915,0.299,-0.272,1827.76,26.074,26.074,-77.998,0.067,-0.576,-0.815,-0.622,0.317,0.716,2548.05,-55.281,34.579,145.925,0.167,0.303,-0.938,0.297,0.212,0.931,10.921,6.260,2.122,-2.366,0.853,0.258,0.453,14.260,-5.649,-4.198,-1.740,none
1.573056,0.325,0.414,-0.851,2812.08,-0.112,0.112,0.112,-0.463,-0.885,0.047,0.432,-0.179,-0.884,2609.41,-0.112,3.917,-9.064,-0.097,0.116,0.988,-0.915,0.299,-0.272,1827.76,26.074,26.074,-77.998,0.067,-0.576,-0.815,-0.622,0.317,0.716,2548.05,-55.281,34.579,145.925,0.167,0.303,-0.938,0.300,0.214,0.930,10.957,6.015,4.000,-2.595,0.854,0.262,0.450,14.223,-6.061,-3.588,-1.863,none
1.592463,0.325,0.414,-0.851,2812.08,-0.112,0.112,0.112,-0.463,-0.885,0.047,0.432,-0.179,-0.884,2609.41,-0.112,3.917,-9.064,-0.097,0.116,0.988,-0.915,0.299,-0.272,1827.76,26.074,26.074,-77.998,0.067,-0.576,-0.815,-0.622,0.317,0.716,2548.05,-55.281,34.579,145.925,0.167,0.303,-0.938,0.300,0.217,0.929,10.986,5.786,3.450,-1.725,0.853,0.264,0.451,14.240,-6.748,-4.061,-0.992,none
1.612478,0.325,0.414,-0.851,2812.08,-0.112,0.112,0.112,-0.463,-0.885,0.047,0.432,-0.179,-0.884,2609.41,-0.112,3.917,-9.064,-0.097,0.116,0.988,-0.915,0.299,-0.272,1827.76,26.074,26.074,-77.998,0.067,-0.576,-0.815,-0.622,0.317,0.716,2548.05,-55.281,34.579,145.925,0.167,0.303,-0.938,0.296,0.214,0.931,10.967,5.328,6.947,-1.863,0.853,0.261,0.451,14.217,-7.695,-3.374,-0.687,none
1.632780,0.325,0.414,-0.851,2812.08,-0.112,0.112,0.112,-0.463,-0.885,0.047,0.432,-0.179,-0.884,2609.41,-0.112,3.917,-9.064,-0.097,0.116,0.988,-0.915,0.299,-0.272,1827.76,26.074,26.074,-77.998,0.067,-0.576,-0.815,-0.622,0.317,0.716,2548.05,-55.281,34.579,145.925,0.167,0.303,-0.938,0.290,0.217,0.932,10.955,4.290,6.763,-1.695,0.852,0.263,0.452,14.246,-8.214,-3.038,0.275,none
1.652810,0.325,0.414,-0.851,2812.08,-0.112,0.112,0.112,-0.463,-0.885,0.047,0.432,-0.179,-0.884,2609.41,-0.112,3.917,-9.064,-0.097,0.116,0.988,-0.915,0.299,-0.272,1827.76,26.074,26.074,-77.998,0.067,-0.576,-0.815,-0.622,0.317,0.716,2548.05,-55.281,34.579,145.925,0.167,0.303,-0.938,0.292,0.224,0.930,10.970,5.344,0.550,0.351,0.852,0.266,0.451,14.228,-6.168,-2.855,0.763,none
1.672501,0.325,0.414,-0.851,2812.08,-0.112,0.112,0.112,-0.463,-0.885,0.047,0.432,-0.179,-0.884,2609.41,-0.112,3.917,-9.064,-0.097,0.116,0.988,-0.915,0.299,-0.272,1827.76,26.074,26.074,-77.998,0.067,-0.576,-0.815,-0.622,0.317,0.716,2548.05,-55.281,34.579,145.925,0.167,0.303,-0.938,0.296,0.222,0.929,10.960,5.786,3.695,0.748,0.853,0.267,0.449,14.187,-6.626,-1.359,0.443,none
1.693006,0.325,0.414,-0.851,2812.08,-0.112,0.112,0.112,-0.463,-0.885,0.047,0.432,-0.179,-0.884,2609.41,-0.112,3.917,-9.064,-0.097,0.116,0.988,-0.915,0.299,-0.272,1827.76,26.074,26.074,-77.998,0.067,-0.576,-0.815,-0.622,0.317,0.716,2548.05,-55.281,34.579,145.925,0.167,0.303,-0.938,0.296,0.217,0.930,10.987,6.656,5.008,0.015,0.852,0.261,0.454,14.238,-6.565,-2.107,-0.382,none
1.712057,0.325,0.414,-0.851,2812.08,-0.112,0.112,0.112,-0.463,-0.885,0.047,0.432,-0.179,-0.884,2609.41,-0.112,3.917,-9.064,-0.097,0.116,0.988,-0.915,0.299,-0.272,1827.76,26.074,26.074,-77.998,0.067,-0.576,-0.815,-0.622,0.317,0.716,2548.05,-55.281,34.579,145.925,0.167,0.303,-0.938,0.295,0.214,0.931,10.980,6.947,7.145,-1.053,0.853,0.256,0.455,14.290,-7.191,-2.046,-1.252,none
1.732105,0.325,0.414,-0.851,2812.08,-0.112,0.112,0.112,-0.463,-0.885,0.047,0.432,-0.179,-0.884,2609.41,-0.112,3.917,-9.064,-0.097,0.116,0.988,-0.915,0.299,-0.272,1827.76,26.074,26.074,-77.998,0.067,-0.576,-0.815,-0.622,0.317,0.716,2548.05,-55.281,34.579,145.925,0.167,0.303,-0.938,0.297,0.225,0.928,11.031,6.244,10.534,-2.733,0.851,0.262,0.455,14.297,-9.344,-0.519,-1.985,none
1.752341,0.325,0.414,-0.851,2812.08,-0.112,0.112,0.112,-0.463,-0.885,0.047,0.432,-0.179,-0.884,2609.41,-0.112,3.917,-9.064,-0.097,0.116,0.988,-0.915,0.299,-0.272,1827.76,26.074,26.074,-77.998,0.067,-0.576,-0.815,-0.622,0.317,0.716,2548.05,-55.281,34.579,145.925,0.167,0.303,-0.938,0.290,0.225,0.930,10.984,7.176,16.366,-3.679,0.850,0.266,0.454,14.271,-10.214,3.450,-3.634,none
1.771840,0.325,0.414,-0.851,2812.08,-0.112,0.112,0.112,-0.463,-0.885,0.047,0.432,-0.179,-0.884,2609.41,-0.112,3.917,-9.064,-0.097,0.116,0.988,-0.915,0.299,-0.272,1827.76,26.074,26.074,-77.998,0.067,-0.576,-0.815,-0.622,0.317,0.716,2548.05,-55.281,34.579,145.925,0.167,0.303,-0.938,0.278,0.219,0.935,10.901,8.168,18.687,-4.046,0.849,0.262,0.459,14.205,-11.206,6.092,-4.672,none
1.792065,0.325,0.414,-0.851,2812.08,-0.112,0.112,0.112,-0.463,-0.885,0.047,0.432,-0.179,-0.884,2609.41,-0.112,3.917,-9.064,-0.097,0.116,0.988,-0.915,0.299,-0.272,1827.76,26.074,26.074,-77.998,0.067,-0.576,-0.815,-0.622,0.317,0.716,2548.05,-55.281,34.579,145.925,0.167,0.303,-0.938,0.265,0.226,0.938,10.978,11.985,18.046,-3.893,0.846,0.267,0.461,14.275,-9.908,8.534,-6.672,none
1.812130,0.325,0.414,-0.851,2812.08,-0.112,0.112,0.112,-0.463,-0.885,0.047,0.432,-0.179,-0.884,2609.41,-0.112,3.917,-9.064,-0.097,0.116,0.988,-0.915,0.299,-0.272,1827.76,26.074,26.074,-77.998,0.067,-0.576,-0.815,-0.622,0.317,0.716,2548.05,-55.281,34.579,145.925,0.167,0.303,-0.938,0.255,0.229,0.939,10.767,14.046,11.557,-4.031,0.846,0.268,0.460,14.146,-5.756,8.733,-7.618,none
1.831499,0.325,0.414,-0.851,2812.08,-0.112,0.112,0.112,-0.463,-0.885,0.047,0.432,-0.179,-0.884,2609.41,-0.112,3.917,-9.064,-0.097,0.116,0.988,-0.915,0.299,-0.272,1827.76,26.074,26.074,-77.998,0.067,-0.576,-0.815,-0.622,0.317,0.716,2548.05,-55.281,34.579,145.925,0.167,0.303,-0.938,0.267,0.230,0.936,10.929,12.519,9.344,-3.771,0.845,0.266,0.465,14.139,-5.817,7.557,-6.275,none
1.851476,0.325,0.414,-0.851,2812.08,-0.112,0.112,0.112,-0.463,-0.885,0.047,0.432,-0.179,-0.884,2609.41,-0.112,3.917,-9.064,-0.097,0.116,0.988,-0.915,0.299,-0.272,1827.76,26.074,26.074,-77.998,0.067,-0.576,-0.815,-0.622,0.317,0.716,2548.05,-55.281,34.579,145.925,0.167,0.303,-0.938,0.254,0.237,0.938,10.912,13.466,9.405,-2.611,0.841,0.275,0.465,14.153,-5.298,10.015,-6.244,none
1.874210,0.325,0.414,-0.851,2812.08,-0.112,0.112,0.112,-0.463,-0.885,0.047,0.432,-0.179,-0.884,2609.41,-0.112,3.917,-9.064,-0.097,0.116,0.988,-0.915,0.299,-0.272,1827.76,26.074,26.074,-77.998,0.067,-0.576,-0.815,-0.622,0.317,0.716,2548.05,-55.281,34.579,145.925,0.167,0.303,-0.938,0.264,0.231,0.936,10.933,15.344,5.023,-3.557,0.841,0.272,0.467,14.111,-3.893,10.153,-6.901,none
1.891738,0.325,0.414,-0.851,2812.08,-0.112,0.112,0.112,-0.463,-0.885,0.047,0.432,-0.179,-0.884,2609.41,-0.112,3.917,-9.064,-0.097,0.116,0.988,-0.915,0.299,-0.272,1827.76,26.074,26.074,-77.998,0.067,-0.576,-0.815,-0.622,0.317,0.716,2548.05,-55.281,34.579,145.925,0.167,0.303,-0.938,0.263,0.222,0.939,10.979,15.237,7.313,-5.023,0.841,0.262,0.473,14.170,-3.481,7.145,-7.908,none
1.911690,0.325,0.414,-0.851,2812.08,-0.112,0.112,0.112,-0.463,-0.885,0.047,0.432,-0.179,-0.884,2609.41,-0.112,3.917,-9.064,-0.097,0.116,0.988,-0.915,0.299,-0.272,1827.76,26.074,26.074,-77.998,0.067,-0.576,-0.815,-0.622,0.317,0.716,2548.05,-55.281,34.579,145.925,0.167,0.303,-0.938,0.262,0.223,0.939,10.942,13.863,9.817,-5.496,0.838,0.262,0.479,14.036,-4.901,5.237,-7.954,none
1.931625,0.325,0.414,-0.851,2812.08,-0.112,0.112,0.112,-0.463,-0.885,0.047,0.432,-0.179,-0.884,2609.41,-0.112,3.917,-9.064,-0.097,0.116,0.988,-0.915,0.299,-0.272,1827.76,26.074,26.074,-77.998,0.067,-0.576,-0.815,-0.622,0.317,0.716,2548.05,-55.281,34.579,145.925,0.167,0.303,-0.938,0.244,0.231,0.942,10.968,10.290,8.489,-3.908,0.835,0.264,0.482,14.062,-5.939,1.634,-4.901,none
1.952443,0.325,0.414,-0.851,2812.08,-0.112,0.112,0.112,-0.463,-0.885,0.047,0.432,-0.179,-0.884,2609.41,-0.112,3.917,-9.064,-0.097,0.116,0.988,-0.915,0.299,-0.272,1827.76,26.074,26.074,-77.998,0.067,-0.576,-0.815,-0.622,0.317,0.716,2548.05,-55.281,34.579,145.925,0.167,0.303,-0.938,0.239,0.231,0.943,10.946,6.748,2.824,-1.115,0.833,0.266,0.484,14.008,-6.473,1.023,-1.344,none
1.971860,0.325,0.414,-0.851,2812.08,-0.112,0.112,0.112,-0.463,-0.885,0.047,0.432,-0.179,-0.884,2609.41,-0.112,3.917,-9.064,-0.097,0.116,0.988,-0.915,0.299,-0.272,1827.76,26.074,26.074,-77.998,0.067,-0.576,-0.815,-0.622,0.317,0.716,2548.05,-55.281,34.579,145.925,0.167,0.303,-0.938,0.251,0.222,0.942,10.904,1.206,0.748,0.092,0.837,0.256,0.484,14.028,-8.901,-2.153,2.046,none
1.992203,0.325,0.414,-0.851,2812.08,-0.112,0.112,0.112,-0.463,-0.885,0.047,0.432,-0.179,-0.884,2609.41,-0.112,3.917,-9.064,-0.097,0.116,0.988,-0.915,0.299,-0.272,1827.76,26.074,26.074,-77.998,0.067,-0.576,-0.815,-0.622,0.317,0.716,2548.05,-55.281,34.579,145.925,0.167,0.303,-0.938,0.251,0.213,0.944,10.971,-2.153,-0.977,0.611,0.836,0.252,0.487,14.079,-10.748,-3.481,3.893,none
2.012096,0.325,0.414,-0.851,2812.08,-0.112,0.112,0.112,-0.463,-0.885,0.047,0.432,-0.179,-0.884,2609.41,-0.112,3.917,-9.064,-0.097,0.116,0.988,-0.915,0.299,-0.272,1827.76,26.074,26.074,-77.998,0.067,-0.576,-0.815,-0.622,0.317,0.716,2548.05,-55.281,34.579,145.925,0.167,0.303,-0.938,0.253,0.210,0.944,10.942,-4.626,-0.351,1.237,0.836,0.252,0.487,14.025,-11.420,-4.031,4.885,none
2.032121,0.325,0.414,-0.851,2812.08,-0.112,0.112,0.112,-0.463,-0.885,0.047,0.432,-0.179,-0.884,2609.41,-0.112,3.917,-9.064,-0.097,0.116,0.988,-0.915,0.299,-0.272,1827.76,26.074,26.074,-77.998,0.067,-0.576,-0.815,-0.622,0.317,0.716,2548.05,-55.281,34.579,145.925,0.167,0.303,-0.938,0.240,0.209,0.948,10.928,-5.618,-0.031,2.519,0.835,0.250,0.491,14.091,-11.573,-4.687,6.366,none
2.054992,0.325,0.414,-0.851,2812.08,-0.112,0.112,0.112,-0.463,-0.885,0.047,0.432,-0.179,-0.884,2609.41,-0.112,3.917,-9.064,-0.097,0.116,0.988,-0.915,0.299,-0.272,1827.76,26.074,26.074,-77.998,0.067,-0.576,-0.815,-0.622,0.317,0.716,2548.05,-55.281,34.579,145.925,0.167,0.303,-0.938,0.248,0.214,0.945,10.906,-3.298,-0.885,3.160,0.837,0.255,0.484,14.103,-10.595,-4.748,6.305,none
2.072664,0.325,0.414,-0.851,2812.08,-0.112,0.112,0.112,-0.463,-0.885,0.047,0.432,-0.179,-0.884,2609.41,-0.112,3.917,-9.064,-0.097,0.116,0.988,-0.915,0.299,-0.272,1827.76,26.074,26.074,-77.998,0.067,-0.576,-0.815,-0.622,0.317,0.716,2548.05,-55.281,34.579,145.925,0.167,0.303,-0.938,0.258,0.211,0.943,10.991,0.473,-2.870,2.198,0.837,0.254,0.485,14.125,-8.611,-4.061,4.229,none
2.092692,0.325,0.414,-0.851,2812.08,-0.112,0.112,0.112,-0.463,-0.885,0.047,0.432,-0.179,-0.884,2609.41,-0.112,3.917,-9.064,-0.097,0.116,0.988,-0.915,0.299,-0.272,1827.76,26.074,26.074,-77.998,0.067,-0.576,-0.815,-0.622,0.317,0.716,2548.05,-55.281,34.579,145.925,0.167,0.303,-0.938,0.251,0.210,0.945,11.005,1.527,-0.702,0.809,0.836,0.252,0.488,14.073,-6.748,-5.466,2.061,none
2.112785,0.325,0.414,-0.851,2812.08,-0.112,0.112,0.112,-0.463,-0.885,0.047,0.432,-0.179,-0.884,2609.41,-0.112,3.917,-9.064,-0.097,0.116,0.988,-0.915,0.299,-0.272,1827.76,26.074,26.074,-77.998,0.067,-0.576,-0.815,-0.622,0.317,0.716,2548.05,-55.281,34.579,145.925,0.167,0.303,-0.938,0.252,0.211,0.944,10.894,1.344,-4.473,1.221,0.837,0.256,0.484,14.034,-4.840,-7.160,2.061,none
2.132825,0.325,0.414,-0.851,2812.08,-0.112,0.112,0.112,-0.463,-0.885,0.047,0.432,-0.179,-0.884,2609.41,-0.112,3.917,-9.064,-0.097,0.116,0.988,-0.915,0.299,-0.272,1827.76,26.074,26.074,-77.998,0.067,-0.576,-0.815,-0.622,0.317,0.716,2548.05,-55.281,34.579,145.925,0.167,0.303,-0.938,0.248,0.214,0.945,10.979,2.412,-8.672,2.489,0.836,0.257,0.484,14.083,-3.969,-7.466,3.191,none
2.152956,0.325,0.414,-0.851,2812.08,-0.112,0.112,0.112,-0.463,-0.885,0.047,0.432,-0.179,-0.884,2609.41,-0.112,3.917,-9.064,-0.097,0.116,0.988,-0.915,0.299,-0.272,1827.76,26.074,26.074,-77.998,0.067,-0.576,-0.815,-0.622,0.317,0.716,2548.05,-55.281,34.579,145.925,0.167,0.303,-0.938,0.270,0.213,0.939,10.974,3.527,-9.374,2.611,0.839,0.255,0.481,14.069,-2.916,-7.832,3.359,none
2.173206,0.325,0.414,-0.851,2812.08,-0.112,0.112,0.112,-0.463,-0.885,0.047,0.432,-0.179,-0.884,2609.41,-0.112,3.917,-9.064,-0.097,0.116,0.988,-0.915,0.299,-0.272,1827.76,26.074,26.074,-77.998,0.067,-0.576,-0.815,-0.622,0.317,0.716,2548.05,-55.281,34.579,145.925,0.167,0.303,-0.938,0.262,0.226,0.938,10.983,3.679,-6.870,2.458,0.840,0.261,0.475,14.008,-2.977,-8.000,3.221,none
2.192937,0.325,0.414,-0.851,2812.08,-0.112,0.112,0.112,-0.463,-0.885,0.047,0.432,-0.179,-0.884,2609.41,-0.112,3.917,-9.064,-0.097,0.116,0.988,-0.915,0.299,-0.272,1827.76,26.074,26.074,-77.998,0.067,-0.576,-0.815,-0.622,0.317,0.716,2548.05,-55.281,34.579,145.925,0.167,0.303,-0.938,0.263,0.228,0.937,11.011,4.137,-5.954,1.817,0.838,0.265,0.477,14.112,-3.313,-10.198,3.481,none
2.213066,0.325,0.414,-0.851,2812.08,-0.112,0.112,0.112,-0.463,-0.885,0.047,0.432,-0.179,-0.884,2609.41,-0.112,3.917,-9.064,-0.097,0.116,0.988,-0.915,0.299,-0.272,1827.76,26.074,26.074,-77.998,0.067,-0.576,-0.815,-0.622,0.317,0.716,2548.05,-55.281,34.579,145.925,0.167,0.303,-0.938,0.282,0.218,0.934,11.021,2.427,-1.756,0.382,0.840,0.262,0.474,14.089,-4.214,-8.718,2.198,none
2.233119,0.325,0.414,-0.851,2812.08,-0.112,0.112,0.112,-0.463,-0.885,0.047,0.432,-0.179,-0.884,2609.41,-0.112,3.917,-9.064,-0.097,0.116,0.988,-0.915,0.299,-0.272,1827.76,26.074,26.074,-77.998,0.067,-0.576,-0.815,-0.622,0.317,0.716,2548.05,-55.281,34.579,145.925,0.167,0.303,-0.938,0.275,0.211,0.938,10.934,1.679,3.099,-1.420,0.841,0.254,0.479,14.139,-5.435,-7.527,0.901,none
2.253125,0.325,0.414,-0.851,2812.08,-0.112,0.112,0.112,-0.463,-0.885,0.047,0.432,-0.179,-0.884,2609.41,-0.112,3.917,-9.064,-0.097,0.116,0.988,-0.915,0.299,-0.272,1827.76,26.074,26.074,-77.998,0.067,-0.576,-0.815,-0.622,0.317,0.716,2548.05,-55.281,34.579,145.925,0.167,0.303,-0.938,0.266,0.205,0.942,10.918,4.794,3.282,-1.618,0.841,0.253,0.478,14.092,-4.763,-7.191,-1.130,none
2.273388,0.325,0.414,-0.851,2812.08,-0.112,0.112,0.112,-0.463,-0.885,0.047,0.432,-0.179,-0.884,2609.41,-0.112,3.917,-9.064,-0.097,0.116,0.988,-0.915,0.299,-0.272,1827.76,26.074,26.074,-77.998,0.067,-0.576,-0.815,-0.622,0.317,0.716,2548.05,-55.281,34.579,145.925,0.167,0.303,-0.938,0.256,0.205,0.945,10.914,5.145,-1.466,-1.603,0.840,0.251,0.480,14.102,-5.221,-7.542,-1.084,none
2.296298,0.325,0.414,-0.851,2812.08,-0.112,0.112,0.112,-0.463,-0.885,0.047,0.432,-0.179,-0.884,2609.41,-0.112,3.917,-9.064,-0.097,0.116,0.988,-0.915,0.299,-0.272,1827.76,26.074,26.074,-77.998,0.067,-0.576,-0.815,-0.622,0.317,0.716,2548.05,-55.281,34.579,145.925,0.167,0.303,-0.938,0.271,0.205,0.940,10.976,5.802,-0.565,-2.137,0.842,0.251,0.478,14.163,-4.611,-7.924,-1.618,none
2.313100,0.325,0.414,-0.851,2812.08,-0.112,0.112,0.112,-0.463,-0.885,0.047,0.432,-0.179,-0.884,2609.41,-0.112,3.917,-9.064,-0.097,0.116,0.988,-0.915,0.299,-0.272,1827.76,26.074,26.074,-77.998,0.067,-0.576,-0.815,-0.622,0.317,0.716,2548.05,-55.281,34.579,145.925,0.167,0.303,-0.938,0.265,0.208,0.942,10.935,5.908,1.160,-2.931,0.843,0.252,0.476,14.146,-5.069,-7.023,-2.137,none
2.333092,0.325,0.414,-0.851,2812.08,-0.112,0.112,0.112,-0.463,-0.885,0.047,0.432,-0.179,-0.884,2609.41,-0.112,3.917,-9.064,-0.097,0.116,0.988,-0.915,0.299,-0.272,1827.76,26.074,26.074,-77.998,0.067,-0.576,-0.815,-0.622,0.317,0.716,2548.05,-55.281,34.579,145.925,0.167,0.303,-0.938,0.265,0.212,0.941,11.037,5.832,0.641,-3.359,0.840,0.257,0.478,14.164,-6.290,-4.718,-2.336,none
2.353060,0.325,0.414,-0.851,2812.08,-0.112,0.112,0.112,-0.463,-0.885,0.047,0.432,-0.179,-0.884,2609.41,-0.112,3.917,-9.064,-0.097,0.116,0.988,-0.915,0.299,-0.272,1827.76,26.074,26.074,-77.998,0.067,-0.576,-0.815,-0.622,0.317,0.716,2548.05,-55.281,34.579,145.925,0.167,0.303,-0.938,0.266,0.214,0.940,10.941,4.916,2.107,-3.588,0.841,0.258,0.476,13.994,-6.931,-4.931,-2.397,none
2.380962,0.325,0.414,-0.851,2812.08,-0.112,0.112,0.112,-0.463,-0.885,0.047,0.432,-0.179,-0.884,2609.41,-0.112,3.917,-9.064,-0.097,0.116,0.988,-0.915,0.299,-0.272,1827.76,26.074,26.074,-77.998,0.067,-0.576,-0.815,-0.622,0.317,0.716,2548.05,-55.281,34.579,145.925,0.167,0.303,-0.938,0.264,0.217,0.940,10.970,5.221,2.687,-1.496,0.841,0.261,0.474,14.118,-5.939,-5.817,-1.634,none
2.396733,0.325,0.414,-0.851,2812.08,-0.112,0.112,0.112,-0.463,-0.885,0.047,0.432,-0.179,-0.884,2609.41,-0.112,3.917,-9.064,-0.097,0.116,0.988,-0.915,0.299,-0.272,1827.76,26.074,26.074,-77.998,0.067,-0.576,-0.815,-0.622,0.317,0.716,2548.05,-55.281,34.579,145.925,0.167,0.303,-0.938,0.261,0.205,0.943,10.908,5.145,3.008,-1.756,0.842,0.249,0.479,14.151,-7.313,-4.779,-1.450,none
2.416744,0.325,0.414,-0.851,2812.08,-0.112,0.112,0.112,-0.463,-0.885,0.047,0.432,-0.179,-0.884,2609.41,-0.112,3.917,-9.064,-0.097,0.116,0.988,-0.915,0.299,-0.272,1827.76,26.074,26.074,-77.998,0.067,-0.576,-0.815,-0.622,0.317,0.716,2548.05,-55.281,34.579,145.925,0.167,0.303,-0.938,0.261,0.201,0.944,10.923,5.893,2.366,-2.565,0.843,0.248,0.477,14.106,-6.198,-3.374,-2.305,none
2.436817,0.325,0.414,-0.851,2812.08,-0.112,0.112,0.112,-0.463,-0.885,0.047,0.432,-0.179,-0.884,2609.41,-0.112,3.917,-9.064,-0.097,0.116,0.988,-0.915,0.299,-0.272,1827.76,26.074,26.074,-77.998,0.067,-0.576,-0.815,-0.622,0.317,0.716,2548.05,-55.281,34.579,145.925,0.167,0.303,-0.938,0.265,0.208,0.942,10.965,6.672,0.901,-2.550,0.842,0.256,0.476,14.128,-4.855,-3.206,-2.580,none
2.457120,0.325,0.414,-0.851,2812.08,-0.112,0.112,0.112,-0.463,-0.885,0.047,0.432,-0.179,-0.884,2609.41,-0.112,3.917,-9.064,-0.097,0.116,0.988,-0.915,0.299,-0.272,1827.76,26.074,26.074,-77.998,0.067,-0.576,-0.815,-0.622,0.317,0.716,2548.05,-55.281,34.579,145.925,0.167,0.303,-0.938,0.266,0.210,0.941,10.940,7.298,1.023,-2.779,0.842,0.255,0.475,14.082,-4.733,-3.435,-2.962,none
2.477307,0.325,0.414,-0.851,2812.08,-0.112,0.112,0.112,-0.463,-0.885,0.047,0.432,-0.179,-0.884,2609.41,-0.112,3.917,-9.064,-0.097,0.116,0.988,-0.915,0.299,-0.272,1827.76,26.074,26.074,-77.998,0.067,-0.576,-0.815,-0.622,0.317,0.716,2548.05,-55.281,34.579,145.925,0.167,0.303,-0.938,0.262,0.211,0.942,10.960,7.328,1.618,-2.519,0.841,0.258,0.475,14.102,-4.870,-3.603,-2.641,none
2.498581,0.325,0.414,-0.851,2812.08,-0.112,0.112,0.112,-0.463,-0.885,0.047,0.432,-0.179,-0.884,2609.41,-0.112,3.917,-9.064,-0.097,0.116,0.988,-0.915,0.299,-0.272,1827.76,26.074,26.074,-77.998,0.067,-0.576,-0.815,-0.622,0.317,0.716,2548.05,-55.281,34.579,145.925,0.167,0.303,-0.938,0.262,0.210,0.942,10.985,7.695,0.351,-2.534,0.840,0.257,0.478,14.109,-5.115,-3.847,-2.611,none
2.517860,0.325,0.414,-0.851,2812.08,-0.112,0.112,0.112,-0.463,-0.885,0.047,0.432,-0.179,-0.884,2609.41,-0.112,3.917,-9.064,-0.097,0.116,0.988,-0.915,0.299,-0.272,1827.76,26.074,26.074,-77.998,0.067,-0.576,-0.815,-0.622,0.317,0.716,2548.05,-55.281,34.579,145.925,0.167,0.303,-0.938,0.261,0.213,0.942,10.918,7.908,-0.473,-2.504,0.840,0.258,0.477,14.082,-4.855,-4.153,-2.550,none
2.540422,0.325,0.414,-0.851,2812.08,-0.112,0.112,0.112,-0.463,-0.885,0.047,0.432,-0.179,-0.884,2609.41,-0.112,3.917,-9.064,-0.097,0.116,0.988,-0.915,0.299,-0.272,1827.76,26.074,26.074,-77.998,0.067,-0.576,-0.815,-0.622,0.317,0.716,2548.05,-55.281,34.579,145.925,0.167,0.303,-0.938,0.262,0.213,0.941,10.962,7.282,-2.198,-1.939,0.840,0.258,0.478,14.126,-4.489,-5.298,-2.137,none
2.557938,0.325,0.414,-0.851,2812.08,-0.112,0.112,0.112,-0.463,-0.885,0.047,0.432,-0.179,-0.884,2609.41,-0.112,3.917,-9.064,-0.097,0.116,0.988,-0.915,0.299,-0.272,1827.76,26.074,26.074,-77.998,0.067,-0.576,-0.815,-0.622,0.317,0.716,2548.05,-55.281,34.579,145.925,0.167,0.303,-0.938,0.260,0.218,0.941,10.947,7.863,-3.756,-1.344,0.840,0.260,0.476,14.098,-4.153,-5.313,-1.450,none
2.578255,0.325,0.414,-0.851,2812.08,-0.112,0.112,0.112,-0.463,-0.885,0.047,0.432,-0.179,-0.884,2609.41,-0.112,3.917,-9.064,-0.097,0.116,0.988,-0.915,0.299,-0.272,1827.76,26.074,26.074,-77.998,0.067,-0.576,-0.815,-0.622,0.317,0.716,2548.05,-55.281,34.579,145.925,0.167,0.303,-0.938,0.264,0.216,0.940,10.969,7.130,-3.344,-0.840,0.839,0.261,0.477,14.141,-5.267,-5.405,-0.962,none
2.597409,0.325,0.414,-0.851,2812.08,-0.112,0.112,0.112,-0.463,-0.885,0.047,0.432,-0.179,-0.884,2609.41,-0.112,3.917,-9.064,-0.097,0.116,0.988,-0.915,0.299,-0.272,1827.76,26.074,26.074,-77.998,0.067,-0.576,-0.815,-0.622,0.317,0.716,2548.05,-55.281,34.579,145.925,0.167,0.303,-0.938,0.266,0.213,0.940,10.970,6.977,-1.420,-1.405,0.840,0.257,0.477,14.127,-5.466,-4.962,-1.267,none
2.617331,0.325,0.414,-0.851,2812.08,-0.112,0.112,0.112,-0.463,-0.885,0.047,0.432,-0.179,-0.884,2609.41,-0.112,3.917,-9.064,-0.097,0.116,0.988,-0.915,0.299,-0.272,1827.76,26.074,26.074,-77.998,0.067,-0.576,-0.815,-0.622,0.317,0.716,2548.05,-55.281,34.579,145.925,0.167,0.303,-0.938,0.265,0.212,0.941,10.929,6.656,-1.924,-1.496,0.841,0.258,0.476,14.074,-4.473,-5.038,-1.603,none
2.637332,0.325,0.414,-0.851,2812.08,-0.112,0.112,0.112,-0.463,-0.885,0.047,0.432,-0.179,-0.884,2609.41,-0.112,3.917,-9.064,-0.097,0.116,0.988,-0.915,0.299,-0.272,1827.76,26.074,26.074,-77.998,0.067,-0.576,-0.815,-0.622,0.317,0.716,2548.05,-55.281,34.579,145.925,0.167,0.303,-0.938,0.264,0.213,0.941,11.014,6.748,-3.191,-1.511,0.841,0.259,0.475,14.170,-3.710,-5.756,-2.198,none
2.657401,0.325,0.414,-0.851,2812.08,-0.112,0.112,0.112,-0.463,-0.885,0.047,0.432,-0.179,-0.884,2609.41,-0.112,3.917,-9.064,-0.097,0.116,0.988,-0.915,0.299,-0.272,1827.76,26.074,26.074,-77.998,0.067,-0.576,-0.815,-0.622,0.317,0.716,2548.05,-55.281,34.579,145.925,0.167,0.303,-0.938,0.264,0.219,0.939,10.897,7.038,-3.908,-1.420,0.839,0.260,0.477,14.085,-3.603,-5.527,-2.244,none
2.677547,0.325,0.414,-0.851,2812.08,-0.112,0.112,0.112,-0.463,-0.885,0.047,0.432,-0.179,-0.884,2609.41,-0.112,3.917,-9.064,-0.097,0.116,0.988,-0.915,0.299,-0.272,1827.76,26.074,26.074,-77.998,0.067,-0.576,-0.815,-0.622,0.317,0.716,2548.05,-55.281,34.579,145.925,0.167,0.303,-0.938,0.273,0.220,0.936,10.961,7.038,-4.015,-1.267,0.841,0.262,0.474,14.116,-4.137,-5.511,-1.634,none
2.697543,0.325,0.414,-0.851,2812.08,-0.112,0.112,0.112,-0.463,-0.885,0.047,0.432,-0.179,-0.884,2609.41,-0.112,3.917,-9.064,-0.097,0.116,0.988,-0.915,0.299,-0.272,1827.76,26.074,26.074,-77.998,0.067,-0.576,-0.815,-0.622,0.317,0.716,2548.05,-55.281,34.579,145.925,0.167,0.303,-0.938,0.269,0.220,0.938,10.951,6.076,-1.588,-1.328,0.839,0.261,0.477,14.103,-4.977,-5.450,-1.176,none
2.717263,0.325,0.414,-0.851,2812.08,-0.112,0.112,0.112,-0.463,-0.885,0.047,0.432,-0.179,-0.884,2609.41,-0.112,3.917,-9.064,-0.097,0.116,0.988,-0.915,0.299,-0.272,1827.76,26.074,26.074,-77.998,0.067,-0.576,-0.815,-0.622,0.317,0.716,2548.05,-55.281,34.579,145.925,0.167,0.303,-0.938,0.269,0.217,0.938,10.960,6.031,-1.084,-1.313,0.840,0.259,0.476,14.142,-5.084,-5.191,-1.099,none
2.737369,0.325,0.414,-0.851,2812.08,-0.112,0.112,0.112,-0.463,-0.885,0.047,0.432,-0.179,-0.884,2609.41,-0.112,3.917,-9.064,-0.097,0.116,0.988,-0.915,0.299,-0.272,1827.76,26.074,26.074,-77.998,0.067,-0.576,-0.815,-0.622,0.317,0.716,2548.05,-55.281,34.579,145.925,0.167,0.303,-0.938,0.268,0.218,0.938,10.977,5.847,-2.015,-0.916,0.839,0.261,0.478,14.137,-5.099,-5.298,-0.702,none
2.761296,0.325,0.414,-0.851,2812.08,-0.112,0.112,0.112,-0.463,-0.885,0.047,0.432,-0.179,-0.884,2609.41,-0.112,3.917,-9.064,-0.097,0.116,0.988,-0.915,0.299,-0.272,1827.76,26.074,26.074,-77.998,0.067,-0.576,-0.815,-0.622,0.317,0.716,2548.05,-55.281,34.579,145.925,0.167,0.303,-0.938,0.270,0.219,0.938,10.964,5.878,-2.321,-0.733,0.841,0.261,0.474,14.115,-5.282,-5.313,-0.504,none
2.780393,0.325,0.414,-0.851,2812.08,-0.112,0.112,0.112,-0.463,-0.885,0.047,0.432,-0.179,-0.884,2609.41,-0.112,3.917,-9.064,-0.097,0.116,0.988,-0.915,0.299,-0.272,1827.76,26.074,26.074,-77.998,0.067,-0.576,-0.815,-0.622,0.317,0.716,2548.05,-55.281,34.579,145.925,0.167,0.303,-0.938,0.269,0.217,0.938,10.935,5.969,-2.626,-0.656,0.840,0.261,0.475,14.105,-5.573,-4.992,-0.626,none
2.797428,0.325,0.414,-0.851,2812.08,-0.112,0.112,0.112,-0.463,-0.885,0.047,0.432,-0.179,-0.884,2609.41,-0.112,3.917,-9.064,-0.097,0.116,0.988,-0.915,0.299,-0.272,1827.76,26.074,26.074,-77.998,0.067,-0.576,-0.815,-0.622,0.317,0.716,2548.05,-55.281,34.579,145.925,0.167,0.303,-0.938,0.265,0.219,0.939,10.939,6.305,-4.580,0.214,0.840,0.260,0.476,14.094,-5.206,-5.023,-0.198,none
2.817376,0.325,0.414,-0.851,2812.08,-0.112,0.112,0.112,-0.463,-0.885,0.047,0.432,-0.179,-0.884,2609.41,-0.112,3.917,-9.064,-0.097,0.116,0.988,-0.915,0.299,-0.272,1827.76,26.074,26.074,-77.998,0.067,-0.576,-0.815,-0.622,0.317,0.716,2548.05,-55.281,34.579,145.925,0.167,0.303,-0.938,0.271,0.221,0.937,10.942,6.458,-7.069,1.603,0.840,0.261,0.475,14.088,-5.008,-5.221,0.244,none
2.837399,0.325,0.414,-0.851,2812.08,-0.112,0.112,0.112,-0.463,-0.885,0.047,0.432,-0.179,-0.884,2609.41,-0.112,3.917,-9.064,-0.097,0.116,0.988,-0.915,0.299,-0.272,1827.76,26.074,26.074,-77.998,0.067,-0.576,-0.815,-0.622,0.317,0.716,2548.05,-55.281,34.579,145.925,0.167,0.303,-0.938,0.287,0.222,0.932,10.936,6.855,-4.702,1.298,0.840,0.262,0.474,14.125,-5.511,-4.947,0.336,none
2.857557,0.325,0.414,-0.851,2812.08,-0.112,0.112,0.112,-0.463,-0.885,0.047,0.432,-0.179,-0.884,2609.41,-0.112,3.917,-9.064,-0.097,0.116,0.988,-0.915,0.299,-0.272,1827.76,26.074,26.074,-77.998,0.067,-0.576,-0.815,-0.622,0.317,0.716,2548.05,-55.281,34.579,145.925,0.167,0.303,-0.938,0.287,0.218,0.933,10.968,8.748,0.351,0.168,0.841,0.260,0.474,14.131,-5.954,-3.817,-0.534,none
2.877885,0.325,0.414,-0.851,2812.08,-0.112,0.112,0.112,-0.463,-0.885,0.047,0.432,-0.179,-0.884,2609.41,-0.112,3.917,-9.064,-0.097,0.116,0.988,-0.915,0.299,-0.272,1827.76,26.074,26.074,-77.998,0.067,-0.576,-0.815,-0.622,0.317,0.716,2548.05,-55.281,34.579,145.925,0.167,0.303,-0.938,0.285,0.219,0.933,10.970,10.183,4.626,-0.733,0.841,0.259,0.474,14.170,-5.679,-1.786,-2.092,none
2.897959,0.325,0.414,-0.851,2812.08,-0.112,0.112,0.112,-0.463,-0.885,0.047,0.432,-0.179,-0.884,2609.41,-0.112,3.917,-9.064,-0.097,0.116,0.988,-0.915,0.299,-0.272,1827.76,26.074,26.074,-77.998,0.067,-0.576,-0.815,-0.622,0.317,0.716,2548.05,-55.281,34.579,145.925,0.167,0.303,-0.938,0.285,0.216,0.934,11.050,14.931,9.939,-2.947,0.841,0.256,0.477,14.251,-4.107,2.305,-6.031,none
2.918101,0.325,0.414,-0.851,2812.08,-0.112,0.112,0.112,-0.463,-0.885,0.047,0.432,-0.179,-0.884,2609.41,-0.112,3.917,-9.064,-0.097,0.116,0.988,-0.915,0.299,-0.272,1827.76,26.074,26.074,-77.998,0.067,-0.576,-0.815,-0.622,0.317,0.716,2548.05,-55.281,34.579,145.925,0.167,0.303,-0.938,0.278,0.232,0.932,10.926,23.084,17.252,-6.473,0.840,0.266,0.473,14.083,-0.840,11.053,-12.718,none
2.938202,0.325,0.414,-0.851,2812.08,-0.112,0.112,0.112,-0.463,-0.885,0.047,0.432,-0.179,-0.884,2609.41,-0.112,3.917,-9.064,-0.097,0.116,0.988,-0.915,0.299,-0.272,1827.76,26.074,26.074,-77.998,0.067,-0.576,-0.815,-0.622,0.317,0.716,2548.05,-55.281,34.579,145.925,0.167,0.303,-0.938,0.254,0.264,0.931,11.266,36.031,22.656,-11.664,0.834,0.284,0.474,14.345,1.160,27.145,-24.351,none
2.958941,0.325,0.414,-0.851,2812.08,-0.112,0.112,0.112,-0.463,-0.885,0.047,0.432,-0.179,-0.884,2609.41,-0.112,3.917,-9.064,-0.097,0.116,0.988,-0.915,0.299,-0.272,1827.76,26.074,26.074,-77.998,0.067,-0.576,-0.815,-0.622,0.317,0.716,2548.05,-55.281,34.579,145.925,0.167,0.303,-0.938,0.192,0.294,0.936,11.872,56.565,16.214,-18.901,0.816,0.320,0.482,14.173,15.664,39.573,-39.099,none
2.978945,0.325,0.414,-0.851,2812.08,-0.112,0.112,0.112,-0.463,-0.885,0.047,0.432,-0.179,-0.884,2609.41,-0.112,3.917,-9.064,-0.097,0.116,0.988,-0.915,0.299,-0.272,1827.76,26.074,26.074,-77.998,0.067,-0.576,-0.815,-0.622,0.317,0.716,2548.05,-55.281,34.579,145.925,0.167,0.303,-0.938,0.157,0.296,0.942,16.421,45.298,14.443,-40.519,0.747,0.355,0.563,16.267,37.282,19.786,-51.298,none
2.998818,0.325,0.414,-0.851,2812.08,-0.112,0.112,0.112,-0.463,-0.885,0.047,0.432,-0.179,-0.884,2609.41,-0.112,3.917,-9.064,-0.097,0.116,0.988,-0.915,0.299,-0.272,1827.76,26.074,26.074,-77.998,0.067,-0.576,-0.815,-0.622,0.317,0.716,2548.05,-55.281,34.579,145.925,0.167,0.303,-0.938,0.187,0.277,0.942,19.394,-1.969,19.832,-43.267,0.678,0.357,0.643,24.327,1.710,-10.916,-28.550,none
3.018761,0.325,0.414,-0.851,2812.08,-0.112,0.112,0.112,-0.463,-0.885,0.047,0.432,-0.179,-0.884,2609.41,-0.112,3.917,-9.064,-0.097,0.116,0.988,-0.915,0.299,-0.272,1827.76,26.074,26.074,-77.998,0.067,-0.576,-0.815,-0.622,0.317,0.716,2548.05,-55.281,34.579,145.925,0.167,0.303,-0.938,0.245,0.285,0.927,23.213,-46.290,4.763,-19.084,0.703,0.364,0.611,27.682,-47.634,-8.504,21.008,none
3.038856,0.325,0.414,-0.851,2812.08,-0.112,0.112,0.112,-0.463,-0.885,0.047,0.432,-0.179,-0.884,2609.41,-0.112,3.917,-9.064,-0.097,0.116,0.988,-0.915,0.299,-0.272,1827.76,26.074,26.074,-77.998,0.067,-0.576,-0.815,-0.622,0.317,0.716,2548.05,-55.281,34.579,145.925,0.167,0.303,-0.938,0.227,0.298,0.927,23.801,-104.641,10.092,18.519,0.668,0.384,0.637,26.473,-91.405,13.908,72.351,none
3.058928,0.325,0.414,-0.851,2812.08,-0.112,0.112,0.112,-0.463,-0.885,0.047,0.432,-0.179,-0.884,2609.41,-0.112,3.917,-9.064,-0.097,0.116,0.988,-0.915,0.299,-0.272,1827.76,26.074,26.074,-77.998,0.067,-0.576,-0.815,-0.622,0.317,0.716,2548.05,-55.281,34.579,145.925,0.167,0.303,-0.938,0.182,0.303,0.935,21.931,-148.046,12.824,31.008,0.678,0.382,0.628,24.597,-127.099,17.695,90.641,none
3.079160,0.325,0.414,-0.851,2812.08,-0.112,0.112,0.112,-0.463,-0.885,0.047,0.432,-0.179,-0.884,2609.41,-0.112,3.917,-9.064,-0.097,0.116,0.988,-0.915,0.299,-0.272,1827.76,26.074,26.074,-77.998,0.067,-0.576,-0.815,-0.622,0.317,0.716,2548.05,-55.281,34.579,145.925,0.167,0.303,-0.938,0.160,0.314,0.936,21.579,-181.756,8.504,29.664,0.667,0.387,0.637,24.785,-159.863,17.450,108.031,none
3.098962,0.325,0.414,-0.851,2812.08,-0.112,0.112,0.112,-0.463,-0.885,0.047,0.432,-0.179,-0.884,2609.41,-0.112,3.917,-9.064,-0.097,0.116,0.988,-0.915,0.299,-0.272,1827.76,26.074,26.074,-77.998,0.067,-0.576,-0.815,-0.622,0.317,0.716,2548.05,-55.281,34.579,145.925,0.167,0.303,-0.938,0.199,0.310,0.930,20.040,-217.832,-2.489,27.542,0.669,0.393,0.630,23.401,-197.802,12.137,122.534,none
3.120840,0.325,0.414,-0.851,2812.08,-0.112,0.112,0.112,-0.463,-0.885,0.047,0.432,-0.179,-0.884,2609.41,-0.112,3.917,-9.064,-0.097,0.116,0.988,-0.915,0.299,-0.272,1827.76,26.074,26.074,-77.998,0.067,-0.576,-0.815,-0.622,0.317,0.716,2548.05,-55.281,34.579,145.925,0.167,0.303,-0.938,0.275,0.287,0.918,17.013,-234.412,-5.786,38.137,0.746,0.377,0.549,19.846,-216.458,7.542,130.275,none
3.139027,0.325,0.414,-0.851,2812.08,-0.112,0.112,0.112,-0.463,-0.885,0.047,0.432,-0.179,-0.884,2609.41,-0.112,3.917,-9.064,-0.097,0.116,0.988,-0.915,0.299,-0.272,1827.76,26.074,26.074,-77.998,0.067,-0.576,-0.815,-0.622,0.317,0.716,2548.05,-55.281,34.579,145.925,0.167,0.303,-0.938,0.281,0.252,0.926,15.053,-232.168,-8.458,49.206,0.782,0.331,0.528,18.645,-215.084,3.817,138.748,none
3.159114,0.325,0.414,-0.851,2812.08,-0.112,0.112,0.112,-0.463,-0.885,0.047,0.432,-0.179,-0.884,2609.41,-0.112,3.917,-9.064,-0.097,0.116,0.988,-0.915,0.299,-0.272,1827.76,26.074,26.074,-77.998,0.067,-0.576,-0.815,-0.622,0.317,0.716,2548.05,-55.281,34.579,145.925,0.167,0.303,-0.938,0.208,0.240,0.948,15.168,-247.679,-8.107,49.176,0.757,0.320,0.570,18.272,-235.023,9.389,150.168,none
3.181248,0.325,0.414,-0.851,2812.08,-0.112,0.112,0.112,-0.463,-0.885,0.047,0.432,-0.179,-0.884,2609.41,-0.112,3.917,-9.064,-0.097,0.116,0.988,-0.915,0.299,-0.272,1827.76,26.074,26.074,-77.998,0.067,-0.576,-0.815,-0.622,0.317,0.716,2548.05,-55.281,34.579,145.925,0.167,0.303,-0.938,0.239,0.238,0.941,12.859,-274.626,-0.198,45.771,0.780,0.327,0.533,15.750,-261.634,21.557,157.008,none
3.199761,0.325,0.414,-0.851,2812.08,-0.112,0.112,0.112,-0.463,-0.885,0.047,0.432,-0.179,-0.884,2609.41,-0.112,3.917,-9.064,-0.097,0.116,0.988,-0.915,0.299,-0.272,1827.76,26.074,26.074,-77.998,0.067,-0.576,-0.815,-0.622,0.317,0.716,2548.05,-55.281,34.579,145.925,0.167,0.303,-0.938,0.320,0.222,0.921,9.907,-281.450,12.687,47.802,0.861,0.296,0.413,13.136,-272.733,31.679,154.656,none
3.219639,0.325,0.414,-0.851,2812.08,-0.112,0.112,0.112,-0.463,-0.885,0.047,0.432,-0.179,-0.884,2609.41,-0.112,3.917,-9.064,-0.097,0.116,0.988,-0.915,0.299,-0.272,1827.76,26.074,26.074,-77.998,0.067,-0.576,-0.815,-0.622,0.317,0.716,2548.05,-55.281,34.579,145.925,0.167,0.303,-0.938,0.321,0.225,0.920,7.988,-283.511,22.122,54.031,0.918,0.262,0.299,11.304,-273.756,43.206,160.015,none
3.240026,0.325,0.414,-0.851,2812.08,-0.112,0.112,0.112,-0.463,-0.885,0.047,0.432,-0.179,-0.884,2609.41,-0.112,3.917,-9.064,-0.097,0.116,0.988,-0.915,0.299,-0.272,1827.76,26.074,26.074,-77.998,0.067,-0.576,-0.815,-0.622,0.317,0.716,2548.05,-55.281,34.579,145.925,0.167,0.303,-0.938,0.327,0.275,0.904,5.346,-293.023,26.305,55.023,0.960,0.234,0.155,8.686,-270.198,47.221,161.466,none
3.260294,0.325,0.414,-0.851,2812.08,-0.112,0.112,0.112,-0.463,-0.885,0.047,0.432,-0.179,-0.884,2609.41,-0.112,3.917,-9.064,-0.097,0.116,0.988,-0.915,0.299,-0.272,1827.76,26.074,26.074,-77.998,0.067,-0.576,-0.815,-0.622,0.317,0.716,2548.05,-55.281,34.579,145.925,0.167,0.303,-0.938,0.743,0.123,0.658,2.070,-292.061,22.733,53.573,0.990,0.104,-0.100,7.162,-261.725,39.130,157.542,none
3.280410,0.325,0.414,-0.851,2812.08,-0.112,0.112,0.112,-0.463,-0.885,0.047,0.432,-0.179,-0.884,2609.41,-0.112,3.917,-9.064,-0.097,0.116,0.988,-0.915,0.299,-0.272,1827.76,26.074,26.074,-77.998,0.067,-0.576,-0.815,-0.622,0.317,0.716,2548.05,-55.281,34.579,145.925,0.167,0.303,-0.938,0.634,-0.669,-0.388,1.672,-269.176,14.427,52.473,0.902,-0.158,-0.402,6.938,-242.122,33.863,149.847,none
3.300599,0.325,0.414,-0.851,2812.08,-0.112,0.112,0.112,-0.463,-0.885,0.047,0.432,-0.179,-0.884,2609.41,-0.112,3.917,-9.064,-0.097,0.116,0.988,-0.915,0.299,-0.272,1827.76,26.074,26.074,-77.998,0.067,-0.576,-0.815,-0.622,0.317,0.716,2548.05,-55.281,34.579,145.925,0.167,0.303,-0.938,0.240,-0.876,-0.418,2.672,-244.824,16.947,43.405,0.792,-0.381,-0.477,7.023,-215.618,36.183,136.031,none
3.320180,0.325,0.414,-0.851,2812.08,-0.112,0.112,0.112,-0.463,-0.885,0.047,0.432,-0.179,-0.884,2609.41,-0.112,3.917,-9.064,-0.097,0.116,0.988,-0.915,0.299,-0.272,1827.76,26.074,26.074,-77.998,0.067,-0.576,-0.815,-0.622,0.317,0.716,2548.05,-55.281,34.579,145.925,0.167,0.303,-0.938,0.301,-0.860,-0.412,4.209,-218.931,26.992,35.023,0.747,-0.505,-0.431,7.592,-194.183,42.183,120.779,none
3.340237,0.325,0.414,-0.851,2812.08,-0.112,0.112,0.112,-0.463,-0.885,0.047,0.432,-0.179,-0.884,2609.41,-0.112,3.917,-9.064,-0.097,0.116,0.988,-0.915,0.299,-0.272,1827.76,26.074,26.074,-77.998,0.067,-0.576,-0.815,-0.622,0.317,0.716,2548.05,-55.281,34.579,145.925,0.167,0.303,-0.938,0.259,-0.845,-0.468,5.671,-185.771,35.115,39.023,0.641,-0.607,-0.471,8.518,-164.504,46.779,110.855,none
3.360314,0.325,0.414,-0.851,2812.08,-0.112,0.112,0.112,-0.463,-0.885,0.047,0.432,-0.179,-0.884,2609.41,-0.112,3.917,-9.064,-0.097,0.116,0.988,-0.915,0.299,-0.272,1827.76,26.074,26.074,-77.998,0.067,-0.576,-0.815,-0.622,0.317,0.716,2548.05,-55.281,34.579,145.925,0.167,0.303,-0.938,0.029,-0.880,-0.474,6.568,-148.611,34.290,40.962,0.532,-0.734,-0.423,8.242,-131.786,45.405,100.382,none
3.379791,0.325,0.414,-0.851,2812.08,-0.112,0.112,0.112,-0.463,-0.885,0.047,0.432,-0.179,-0.884,2609.41,-0.112,3.917,-9.064,-0.097,0.116,0.988,-0.915,0.299,-0.272,1827.76,26.074,26.074,-77.998,0.067,-0.576,-0.815,-0.622,0.317,0.716,2548.05,-55.281,34.579,145.925,0.167,0.303,-0.938,-0.045,-0.931,-0.362,7.033,-102.779,24.763,34.656,0.509,-0.834,-0.215,7.627,-104.366,35.573,85.053,none
3.400012,0.325,0.414,-0.851,2812.08,-0.112,0.112,0.112,-0.463,-0.885,0.047,0.432,-0.179,-0.884,2609.41,-0.112,3.917,-9.064,-0.097,0.116,0.988,-0.915,0.299,-0.272,1827.76,26.074,26.074,-77.998,0.067,-0.576,-0.815,-0.622,0.317,0.716,2548.05,-55.281,34.579,145.925,0.167,0.303,-0.938,-0.116,-0.987,0.108,6.632,-82.168,22.443,26.443,0.528,-0.849,0.020,7.893,-95.878,29.481,70.748,none
3.424232,0.325,0.414,-0.851,2812.08,-0.112,0.112,0.112,-0.463,-0.885,0.047,0.432,-0.179,-0.884,2609.41,-0.112,3.917,-9.064,-0.097,0.116,0.988,-0.915,0.299,-0.272,1827.76,26.074,26.074,-77.998,0.067,-0.576,-0.815,-0.622,0.317,0.716,2548.05,-55.281,34.579,145.925,0.167,0.303,-0.938,-0.153,-0.980,0.124,7.516,-80.229,22.214,13.008,0.468,-0.884,0.002,8.570,-86.931,27.069,55.023,none
3.440091,0.325,0.414,-0.851,2812.08,-0.112,0.112,0.112,-0.463,-0.885,0.047,0.432,-0.179,-0.884,2609.41,-0.112,3.917,-9.064,-0.097,0.116,0.988,-0.915,0.299,-0.272,1827.76,26.074,26.074,-77.998,0.067,-0.576,-0.815,-0.622,0.317,0.716,2548.05,-55.281,34.579,145.925,0.167,0.303,-0.938,-0.027,-1.000,-0.011,8.556,-62.748,25.527,2.427,0.442,-0.897,-0.016,9.462,-69.954,25.954,38.046,none
3.461259,0.325,0.414,-0.851,2812.08,-0.112,0.112,0.112,-0.463,-0.885,0.047,0.432,-0.179,-0.884,2609.41,-0.112,3.917,-9.064,-0.097,0.116,0.988,-0.915,0.299,-0.272,1827.76,26.074,26.074,-77.998,0.067,-0.576,-0.815,-0.622,0.317,0.716,2548.05,-55.281,34.579,145.925,0.167,0.303,-0.938,0.007,-0.999,-0.032,9.168,-40.992,28.015,3.573,0.437,-0.899,-0.040,10.200,-53.389,23.130,25.817,none
3.480655,0.325,0.414,-0.851,2812.08,-0.112,0.112,0.112,-0.463,-0.885,0.047,0.432,-0.179,-0.884,2609.41,-0.112,3.917,-9.064,-0.097,0.116,0.988,-0.915,0.299,-0.272,1827.76,26.074,26.074,-77.998,0.067,-0.576,-0.815,-0.622,0.317,0.716,2548.05,-55.281,34.579,145.925,0.167,0.303,-0.938,-0.100,-0.990,0.098,9.179,-27.802,25.893,-1.450,0.437,-0.899,0.036,10.370,-36.687,17.450,19.527,none
3.500857,0.325,0.414,-0.851,2812.08,-0.112,0.112,0.112,-0.463,-0.885,0.047,0.432,-0.179,-0.884,2609.41,-0.112,3.917,-9.064,-0.097,0.116,0.988,-0.915,0.299,-0.272,1827.76,26.074,26.074,-77.998,0.067,-0.576,-0.815,-0.622,0.317,0.716,2548.05,-55.281,34.579,145.925,0.167,0.303,-0.938,-0.066,-0.993,0.098,9.719,-23.298,13.405,-12.305,0.411,-0.901,0.143,10.449,-28.504,4.794,10.779,none
3.525401,0.325,0.414,-0.851,2812.08,-0.112,0.112,0.112,-0.463,-0.885,0.047,0.432,-0.179,-0.884,2609.41,-0.112,3.917,-9.064,-0.097,0.116,0.988,-0.915,0.299,-0.272,1827.76,26.074,26.074,-77.998,0.067,-0.576,-0.815,-0.622,0.317,0.716,2548.05,-55.281,34.579,145.925,0.167,0.303,-0.938,0.061,-0.998,0.017,10.551,-4.275,1.985,-10.412,0.421,-0.907,0.024,11.351,-15.603,-5.725,-1.450,none
3.541135,0.325,0.414,-0.851,2812.08,-0.112,0.112,0.112,-0.463,-0.885,0.047,0.432,-0.179,-0.884,2609.41,-0.112,3.917,-9.064,-0.097,0.116,0.988,-0.915,0.299,-0.272,1827.76,26.074,26.074,-77.998,0.067,-0.576,-0.815,-0.622,0.317,0.716,2548.05,-55.281,34.579,145.925,0.167,0.303,-0.938,0.024,-0.998,0.065,10.567,21.023,-4.687,-7.206,0.448,-0.892,0.057,11.671,11.023,-13.786,-10.000,none
3.561228,0.325,0.414,-0.851,2812.08,-0.112,0.112,0.112,-0.463,-0.885,0.047,0.432,-0.179,-0.884,2609.41,-0.112,3.917,-9.064,-0.097,0.116,0.988,-0.915,0.299,-0.272,1827.76,26.074,26.074,-77.998,0.067,-0.576,-0.815,-0.622,0.317,0.716,2548.05,-55.281,34.579,145.925,0.167,0.303,-0.938,0.004,-0.982,0.190,10.240,36.168,-13.450,-8.519,0.490,-0.833,0.256,11.568,10.137,-25.053,-12.855,none
3.581391,0.325,0.414,-0.851,2812.08,-0.112,0.112,0.112,-0.463,-0.885,0.047,0.432,-0.179,-0.884,2609.41,-0.112,3.917,-9.064,-0.097,0.116,0.988,-0.915,0.299,-0.272,1827.76,26.074,26.074,-77.998,0.067,-0.576,-0.815,-0.622,0.317,0.716,2548.05,-55.281,34.579,145.925,0.167,0.303,-0.938,-0.010,-0.977,0.215,10.212,33.420,-33.725,-15.084,0.490,-0.847,0.206,11.549,5.634,-45.985,-12.122,none
3.601439,0.325,0.414,-0.851,2812.08,-0.112,0.112,0.112,-0.463,-0.885,0.047,0.432,-0.179,-0.884,2609.41,-0.112,3.917,-9.064,-0.097,0.116,0.988,-0.915,0.299,-0.272,1827.76,26.074,26.074,-77.998,0.067,-0.576,-0.815,-0.622,0.317,0.716,2548.05,-55.281,34.579,145.925,0.167,0.303,-0.938,0.088,-0.965,0.249,10.519,41.206,-56.580,-17.649,0.510,-0.852,0.119,11.989,20.519,-68.626,-18.718,none
3.621607,0.325,0.414,-0.851,2812.08,-0.112,0.112,0.112,-0.463,-0.885,0.047,0.432,-0.179,-0.884,2609.41,-0.112,3.917,-9.064,-0.097,0.116,0.988,-0.915,0.299,-0.272,1827.76,26.074,26.074,-77.998,0.067,-0.576,-0.815,-0.622,0.317,0.716,2548.05,-55.281,34.579,145.925,0.167,0.303,-0.938,0.116,-0.978,0.171,10.710,52.779,-69.008,-17.771,0.515,-0.856,0.054,12.255,43.771,-82.061,-25.969,none
3.641627,0.325,0.414,-0.851,2812.08,-0.112,0.112,0.112,-0.463,-0.885,0.047,0.432,-0.179,-0.884,2609.41,-0.112,3.917,-9.064,-0.097,0.116,0.988,-0.915,0.299,-0.272,1827.76,26.074,26.074,-77.998,0.067,-0.576,-0.815,-0.622,0.317,0.716,2548.05,-55.281,34.579,145.925,0.167,0.303,-0.938,0.159,-0.985,-0.071,11.042,87.847,-90.534,-11.802,0.506,-0.862,-0.015,12.083,78.901,-104.779,-35.053,none
3.661619,0.325,0.414,-0.851,2812.08,-0.112,0.112,0.112,-0.463,-0.885,0.047,0.432,-0.179,-0.884,2609.41,-0.112,3.917,-9.064,-0.097,0.116,0.988,-0.915,0.299,-0.272,1827.76,26.074,26.074,-77.998,0.067,-0.576,-0.815,-0.622,0.317,0.716,2548.05,-55.281,34.579,145.925,0.167,0.303,-0.938,0.230,-0.917,-0.326,11.348,154.351,-142.000,8.763,0.580,-0.799,0.159,11.450,97.725,-153.710,-29.786,none
3.681702,0.325,0.414,-0.851,2812.08,-0.112,0.112,0.112,-0.463,-0.885,0.047,0.432,-0.179,-0.884,2609.41,-0.112,3.917,-9.064,-0.097,0.116,0.988,-0.915,0.299,-0.272,1827.76,26.074,26.074,-77.998,0.067,-0.576,-0.815,-0.622,0.317,0.716,2548.05,-55.281,34.579,145.925,0.167,0.303,-0.938,0.282,-0.957,0.065,8.328,215.267,-194.840,15.939,0.638,-0.703,0.315,11.076,85.527,-197.954,-29.725,none
3.702254,0.325,0.414,-0.851,2812.08,-0.112,0.112,0.112,-0.463,-0.885,0.047,0.432,-0.179,-0.884,2609.41,-0.112,3.917,-9.064,-0.097,0.116,0.988,-0.915,0.299,-0.272,1827.76,26.074,26.074,-77.998,0.067,-0.576,-0.815,-0.622,0.317,0.716,2548.05,-55.281,34.579,145.925,0.167,0.303,-0.938,0.332,-0.580,0.744,10.297,219.756,-216.443,11.817,0.715,-0.625,0.314,11.836,74.321,-211.130,-43.115,none
3.722316,0.325,0.414,-0.851,2812.08,-0.112,0.112,0.112,-0.463,-0.885,0.047,0.432,-0.179,-0.884,2609.41,-0.112,3.917,-9.064,-0.097,0.116,0.988,-0.915,0.299,-0.272,1827.76,26.074,26.074,-77.998,0.067,-0.576,-0.815,-0.622,0.317,0.716,2548.05,-55.281,34.579,145.925,0.167,0.303,-0.938,0.241,-0.430,0.870,13.189,157.847,-189.114,10.687,0.772,-0.603,0.202,12.862,77.435,-195.817,-51.908,none
3.742547,0.325,0.414,-0.851,2812.08,-0.112,0.112,0.112,-0.463,-0.885,0.047,0.432,-0.179,-0.884,2609.41,-0.112,3.917,-9.064,-0.097,0.116,0.988,-0.915,0.299,-0.272,1827.76,26.074,26.074,-77.998,0.067,-0.576,-0.815,-0.622,0.317,0.716,2548.05,-55.281,34.579,145.925,0.167,0.303,-0.938,0.150,-0.664,0.733,10.622,99.405,-151.603,-10.107,0.780,-0.571,0.256,13.153,84.580,-164.962,-54.977,none
3.762691,0.325,0.414,-0.851,2812.08,-0.112,0.112,0.112,-0.463,-0.885,0.047,0.432,-0.179,-0.884,2609.41,-0.112,3.917,-9.064,-0.097,0.116,0.988,-0.915,0.299,-0.272,1827.76,26.074,26.074,-77.998,0.067,-0.576,-0.815,-0.622,0.317,0.716,2548.05,-55.281,34.579,145.925,0.167,0.303,-0.938,0.281,-0.794,0.539,9.556,97.206,-142.198,-28.626,0.773,-0.526,0.355,13.262,72.748,-154.687,-49.832,none
3.782647,0.325,0.414,-0.851,2812.08,-0.112,0.112,0.112,-0.463,-0.885,0.047,0.432,-0.179,-0.884,2609.41,-0.112,3.917,-9.064,-0.097,0.116,0.988,-0.915,0.299,-0.272,1827.76,26.074,26.074,-77.998,0.067,-0.576,-0.815,-0.622,0.317,0.716,2548.05,-55.281,34.579,145.925,0.167,0.303,-0.938,0.402,-0.611,0.683,11.116,97.588,-136.733,-25.908,0.806,-0.465,0.366,13.900,56.519,-151.863,-45.954,none
3.802451,0.325,0.414,-0.851,2812.08,-0.112,0.112,0.112,-0.463,-0.885,0.047,0.432,-0.179,-0.884,2609.41,-0.112,3.917,-9.064,-0.097,0.116,0.988,-0.915,0.299,-0.272,1827.76,26.074,26.074,-77.998,0.067,-0.576,-0.815,-0.622,0.317,0.716,2548.05,-55.281,34.579,145.925,0.167,0.303,-0.938,0.365,-0.518,0.774,12.230,77.191,-119.878,-16.687,0.842,-0.416,0.344,15.232,42.000,-133.969,-37.359,none
3.822098,0.325,0.414,-0.851,2812.08,-0.112,0.112,0.112,-0.463,-0.885,0.047,0.432,-0.179,-0.884,2609.41,-0.112,3.917,-9.064,-0.097,0.116,0.988,-0.915,0.299,-0.272,1827.76,26.074,26.074,-77.998,0.067,-0.576,-0.815,-0.622,0.317,0.716,2548.05,-55.281,34.579,145.925,0.167,0.303,-0.938,0.409,-0.588,0.698,11.660,57.756,-105.954,-10.031,0.846,-0.463,0.265,14.922,37.328,-112.473,-23.252,none
3.842072,0.325,0.414,-0.851,2812.08,-0.112,0.112,0.112,-0.463,-0.885,0.047,0.432,-0.179,-0.884,2609.41,-0.112,3.917,-9.064,-0.097,0.116,0.988,-0.915,0.299,-0.272,1827.76,26.074,26.074,-77.998,0.067,-0.576,-0.815,-0.622,0.317,0.716,2548.05,-55.281,34.579,145.925,0.167,0.303,-0.938,0.471,-0.702,0.535,10.714,54.519,-100.076,2.931,0.836,-0.504,0.217,14.368,42.305,-109.389,-11.634,none
3.862398,0.325,0.414,-0.851,2812.08,-0.112,0.112,0.112,-0.463,-0.885,0.047,0.432,-0.179,-0.884,2609.41,-0.112,3.917,-9.064,-0.097,0.116,0.988,-0.915,0.299,-0.272,1827.76,26.074,26.074,-77.998,0.067,-0.576,-0.815,-0.622,0.317,0.716,2548.05,-55.281,34.579,145.925,0.167,0.303,-0.938,0.446,-0.700,0.558,10.192,60.046,-111.725,10.702,0.829,-0.505,0.240,13.853,44.458,-120.489,-0.031,none
3.882808,0.325,0.414,-0.851,2812.08,-0.112,0.112,0.112,-0.463,-0.885,0.047,0.432,-0.179,-0.884,2609.41,-0.112,3.917,-9.064,-0.097,0.116,0.988,-0.915,0.299,-0.272,1827.76,26.074,26.074,-77.998,0.067,-0.576,-0.815,-0.622,0.317,0.716,2548.05,-55.281,34.579,145.925,0.167,0.303,-0.938,0.474,-0.678,0.562,10.138,68.214,-130.198,15.756,0.828,-0.503,0.247,13.640,46.046,-138.275,0.092,none
3.902925,0.325,0.414,-0.851,2812.08,-0.112,0.112,0.112,-0.463,-0.885,0.047,0.432,-0.179,-0.884,2609.41,-0.112,3.917,-9.064,-0.097,0.116,0.988,-0.915,0.299,-0.272,1827.76,26.074,26.074,-77.998,0.067,-0.576,-0.815,-0.622,0.317,0.716,2548.05,-55.281,34.579,145.925,0.167,0.303,-0.938,0.577,-0.726,0.374,10.564,84.183,-158.305,22.641,0.841,-0.531,0.104,14.171,55.053,-163.695,1.206,none
3.923188,0.325,0.414,-0.851,2812.08,-0.112,0.112,0.112,-0.463,-0.885,0.047,0.432,-0.179,-0.884,2609.41,-0.112,3.917,-9.064,-0.097,0.116,0.988,-0.915,0.299,-0.272,1827.76,26.074,26.074,-77.998,0.067,-0.576,-0.815,-0.622,0.317,0.716,2548.05,-55.281,34.579,145.925,0.167,0.303,-0.938,0.700,-0.664,0.262,11.551,119.053,-181.573,44.779,0.858,-0.514,0.000,14.958,82.153,-194.901,5.420,none
3.943690,0.325,0.414,-0.851,2812.08,-0.112,0.112,0.112,-0.463,-0.885,0.047,0.432,-0.179,-0.884,2609.41,-0.112,3.917,-9.064,-0.097,0.116,0.988,-0.915,0.299,-0.272,1827.76,26.074,26.074,-77.998,0.067,-0.576,-0.815,-0.622,0.317,0.716,2548.05,-55.281,34.579,145.925,0.167,0.303,-0.938,0.640,-0.518,0.567,11.304,142.061,-193.618,65.481,0.903,-0.406,0.140,15.664,100.992,-205.939,11.985,none
4.259214,0.325,0.414,-0.851,2812.08,-0.112,0.112,0.112,-0.463,-0.885,0.047,0.432,-0.179,-0.884,2609.41,-0.112,3.917,-9.064,-0.097,0.116,0.988,-0.915,0.299,-0.272,1827.76,26.074,26.074,-77.998,0.067,-0.576,-0.815,-0.622,0.317,0.716,2548.05,-55.281,34.579,145.925,0.167,0.303,-0.938,0.473,-0.401,0.785,12.183,113.603,-197.603,61.817,0.891,-0.367,0.267,15.835,90.153,-201.176,21.817,none
4.259375,0.325,0.414,-0.851,2812.08,-0.112,0.112,0.112,-0.463,-0.885,0.047,0.432,-0.179,-0.884,2609.41,-0.112,3.917,-9.064,-0.097,0.116,0.988,-0.915,0.299,-0.272,1827.76,26.074,26.074,-77.998,0.067,-0.576,-0.815,-0.622,0.317,0.716,2548.05,-55.281,34.579,145.925,0.167,0.303,-0.938,0.567,-0.484,0.666,12.164,84.198,-188.061,51.450,0.891,-0.421,0.172,15.421,79.206,-194.183,21.023,none
4.259488,0.325,0.414,-0.851,2812.08,-0.112,0.112,0.112,-0.463,-0.885,0.047,0.432,-0.179,-0.884,2609.41,-0.112,3.917,-9.064,-0.097,0.116,0.988,-0.915,0.299,-0.272,1827.76,26.074,26.074,-77.998,0.067,-0.576,-0.815,-0.622,0.317,0.716,2548.05,-55.281,34.579,145.925,0.167,0.303,-0.938,0.698,-0.561,0.446,12.150,81.893,-191.344,60.824,0.907,-0.421,0.018,16.666,92.061,-205.786,28.626,none
4.259590,0.325,0.414,-0.851,2812.08,-0.112,0.112,0.112,-0.463,-0.885,0.047,0.432,-0.179,-0.884,2609.41,-0.112,3.917,-9.064,-0.097,0.116,0.988,-0.915,0.299,-0.272,1827.76,26.074,26.074,-77.998,0.067,-0.576,-0.815,-0.622,0.317,0.716,2548.05,-55.281,34.579,145.925,0.167,0.303,-0.938,0.700,-0.576,0.423,11.199,84.641,-199.237,79.069,0.916,-0.397,0.062,16.367,102.565,-212.504,51.145,none
4.259694,0.325,0.414,-0.851,2812.08,-0.112,0.112,0.112,-0.463,-0.885,0.047,0.432,-0.179,-0.884,2609.41,-0.112,3.917,-9.064,-0.097,0.116,0.988,-0.915,0.299,-0.272,1827.76,26.074,26.074,-77.998,0.067,-0.576,-0.815,-0.622,0.317,0.716,2548.05,-55.281,34.579,145.925,0.167,0.303,-0.938,0.640,-0.474,0.605,11.512,93.847,-194.275,78.763,0.908,-0.378,0.182,15.157,106.427,-201.924,48.260,none
4.259794,0.325,0.414,-0.851,2812.08,-0.112,0.112,0.112,-0.463,-0.885,0.047,0.432,-0.179,-0.884,2609.41,-0.112,3.917,-9.064,-0.097,0.116,0.988,-0.915,0.299,-0.272,1827.76,26.074,26.074,-77.998,0.067,-0.576,-0.815,-0.622,0.317,0.716,2548.05,-55.281,34.579,145.925,0.167,0.303,-0.938,0.630,-0.495,0.599,11.523,91.679,-179.832,76.885,0.894,-0.360,0.266,15.677,90.244,-184.672,39.740,none
4.259893,0.325,0.414,-0.851,2812.08,-0.112,0.112,0.112,-0.463,-0.885,0.047,0.432,-0.179,-0.884,2609.41,-0.112,3.917,-9.064,-0.097,0.116,0.988,-0.915,0.299,-0.272,1827.76,26.074,26.074,-77.998,0.067,-0.576,-0.815,-0.622,0.317,0.716,2548.05,-55.281,34.579,145.925,0.167,0.303,-0.938,0.695,-0.540,0.475,11.569,89.847,-174.656,81.527,0.909,-0.397,0.129,15.958,67.939,-179.282,48.061,none
4.259990,0.325,0.414,-0.851,2812.08,-0.112,0.112,0.112,-0.463,-0.885,0.047,0.432,-0.179,-0.884,2609.41,-0.112,3.917,-9.064,-0.097,0.116,0.988,-0.915,0.299,-0.272,1827.76,26.074,26.074,-77.998,0.067,-0.576,-0.815,-0.622,0.317,0.716,2548.05,-55.281,34.579,145.925,0.167,0.303,-0.938,0.725,-0.632,0.274,10.519,87.084,-194.595,100.443,0.869,-0.490,-0.077,14.682,74.015,-201.420,61.969,none
4.260092,0.325,0.414,-0.851,2812.08,-0.112,0.112,0.112,-0.463,-0.885,0.047,0.432,-0.179,-0.884,2609.41,-0.112,3.917,-9.064,-0.097,0.116,0.988,-0.915,0.299,-0.272,1827.76,26.074,26.074,-77.998,0.067,-0.576,-0.815,-0.622,0.317,0.716,2548.05,-55.281,34.579,145.925,0.167,0.303,-0.938,0.702,-0.622,0.348,10.295,100.626,-220.275,100.687,0.881,-0.472,0.011,14.513,88.290,-225.343,58.656,none
4.260214,0.325,0.414,-0.851,2812.08,-0.112,0.112,0.112,-0.463,-0.885,0.047,0.432,-0.179,-0.884,2609.41,-0.112,3.917,-9.064,-0.097,0.116,0.988,-0.915,0.299,-0.272,1827.76,26.074,26.074,-77.998,0.067,-0.576,-0.815,-0.622,0.317,0.716,2548.05,-55.281,34.579,145.925,0.167,0.303,-0.938,0.705,-0.556,0.441,10.808,117.359,-220.733,95.527,0.888,-0.459,0.024,14.505,91.771,-219.954,44.015,none
4.260311,0.325,0.414,-0.851,2812.08,-0.112,0.112,0.112,-0.463,-0.885,0.047,0.432,-0.179,-0.884,2609.41,-0.112,3.917,-9.064,-0.097,0.116,0.988,-0.915,0.299,-0.272,1827.76,26.074,26.074,-77.998,0.067,-0.576,-0.815,-0.622,0.317,0.716,2548.05,-55.281,34.579,145.925,0.167,0.303,-0.938,0.715,-0.539,0.444,11.441,129.786,-203.771,92.412,0.904,-0.427,0.017,15.589,93.725,-204.351,29.710,none
4.260407,0.325,0.414,-0.851,2812.08,-0.112,0.112,0.112,-0.463,-0.885,0.047,0.432,-0.179,-0.884,2609.41,-0.112,3.917,-9.064,-0.097,0.116,0.988,-0.915,0.299,-0.272,1827.76,26.074,26.074,-77.998,0.067,-0.576,-0.815,-0.622,0.317,0.716,2548.05,-55.281,34.579,145.925,0.167,0.303,-0.938,0.754,-0.523,0.398,12.018,132.137,-174.962,96.809,0.926,-0.376,0.034,16.989,88.076,-180.092,36.947,none
4.260503,0.325,0.414,-0.851,2812.08,-0.112,0.112,0.112,-0.463,-0.885,0.047,0.432,-0.179,-0.884,2609.41,-0.112,3.917,-9.064,-0.097,0.116,0.988,-0.915,0.299,-0.272,1827.76,26.074,26.074,-77.998,0.067,-0.576,-0.815,-0.622,0.317,0.716,2548.05,-55.281,34.579,145.925,0.167,0.303,-0.938,0.753,-0.483,0.448,11.759,131.695,-148.504,111.634,0.921,-0.391,0.012,16.173,81.145,-149.374,52.840,none
4.260599,0.325,0.414,-0.851,2812.08,-0.112,0.112,0.112,-0.463,-0.885,0.047,0.432,-0.179,-0.884,2609.41,-0.112,3.917,-9.064,-0.097,0.116,0.988,-0.915,0.299,-0.272,1827.76,26.074,26.074,-77.998,0.067,-0.576,-0.815,-0.622,0.317,0.716,2548.05,-55.281,34.579,145.925,0.167,0.303,-0.938,0.646,-0.438,0.625,11.389,127.084,-117.496,113.115,0.912,-0.399,0.096,15.094,79.588,-122.290,49.252,none
4.260695,0.325,0.414,-0.851,2812.08,-0.112,0.112,0.112,-0.463,-0.885,0.047,0.432,-0.179,-0.884,2609.41,-0.112,3.917,-9.064,-0.097,0.116,0.988,-0.915,0.299,-0.272,1827.76,26.074,26.074,-77.998,0.067,-0.576,-0.815,-0.622,0.317,0.716,2548.05,-55.281,34.579,145.925,0.167,0.303,-0.938,0.529,-0.484,0.697,10.803,94.290,-101.649,100.672,0.900,-0.413,0.138,14.916,63.634,-109.084,45.603,none
4.260793,0.325,0.414,-0.851,2812.08,-0.112,0.112,0.112,-0.463,-0.885,0.047,0.432,-0.179,-0.884,2609.41,-0.112,3.917,-9.064,-0.097,0.116,0.988,-0.915,0.299,-0.272,1827.76,26.074,26.074,-77.998,0.067,-0.576,-0.815,-0.622,0.317,0.716,2548.05,-55.281,34.579,145.925,0.167,0.303,-0.938,0.595,-0.609,0.524,10.623,58.565,-116.824,87.466,0.883,-0.468,0.039,14.832,49.191,-119.481,51.908,none
4.278304,0.325,0.414,-0.851,2812.08,-0.112,0.112,0.112,-0.463,-0.885,0.047,0.432,-0.179,-0.884,2609.41,-0.112,3.917,-9.064,-0.097,0.116,0.988,-0.915,0.299,-0.272,1827.76,26.074,26.074,-77.998,0.067,-0.576,-0.815,-0.622,0.317,0.716,2548.05,-55.281,34.579,145.925,0.167,0.303,-0.938,0.630,-0.638,0.442,10.666,47.802,-144.168,97.924,0.871,-0.490,-0.030,14.999,57.450,-153.466,64.855,none
4.298302,0.325,0.414,-0.851,2812.08,-0.112,0.112,0.112,-0.463,-0.885,0.047,0.432,-0.179,-0.884,2609.41,-0.112,3.917,-9.064,-0.097,0.116,0.988,-0.915,0.299,-0.272,1827.76,26.074,26.074,-77.998,0.067,-0.576,-0.815,-0.622,0.317,0.716,2548.05,-55.281,34.579,145.925,0.167,0.303,-0.938,0.448,-0.467,0.762,11.319,12.962,-158.855,82.198,0.886,-0.411,0.216,14.777,56.489,-167.511,67.740,none
4.318567,0.325,0.414,-0.851,2812.08,-0.112,0.112,0.112,-0.463,-0.885,0.047,0.432,-0.179,-0.884,2609.41,-0.112,3.917,-9.064,-0.097,0.116,0.988,-0.915,0.299,-0.272,1827.76,26.074,26.074,-77.998,0.067,-0.576,-0.815,-0.622,0.317,0.716,2548.05,-55.281,34.579,145.925,0.167,0.303,-0.938,0.591,-0.571,0.570,11.563,-22.107,-176.718,76.137,0.871,-0.420,0.256,14.972,24.107,-181.802,68.702,none
4.338812,0.325,0.414,-0.851,2812.08,-0.112,0.112,0.112,-0.463,-0.885,0.047,0.432,-0.179,-0.884,2609.41,-0.112,3.917,-9.064,-0.097,0.116,0.988,-0.915,0.299,-0.272,1827.76,26.074,26.074,-77.998,0.067,-0.576,-0.815,-0.622,0.317,0.716,2548.05,-55.281,34.579,145.925,0.167,0.303,-0.938,0.657,-0.729,0.192,11.341,-24.931,-207.496,100.153,0.868,-0.496,0.019,15.280,3.893,-217.405,89.908,none
4.360746,0.325,0.414,-0.851,2812.08,-0.112,0.112,0.112,-0.463,-0.885,0.047,0.432,-0.179,-0.884,2609.41,-0.112,3.917,-9.064,-0.097,0.116,0.988,-0.915,0.299,-0.272,1827.76,26.074,26.074,-77.998,0.067,-0.576,-0.815,-0.622,0.317,0.716,2548.05,-55.281,34.579,145.925,0.167,0.303,-0.938,0.704,-0.633,0.321,11.673,3.969,-210.382,116.916,0.868,-0.495,-0.044,15.210,16.031,-217.267,95.817,none
4.379358,0.325,0.414,-0.851,2812.08,-0.112,0.112,0.112,-0.463,-0.885,0.047,0.432,-0.179,-0.884,2609.41,-0.112,3.917,-9.064,-0.097,0.116,0.988,-0.915,0.299,-0.272,1827.76,26.074,26.074,-77.998,0.067,-0.576,-0.815,-0.622,0.317,0.716,2548.05,-55.281,34.579,145.925,0.167,0.303,-0.938,0.566,-0.615,0.549,10.553,22.137,-156.427,116.168,0.873,-0.479,0.096,14.442,16.260,-155.176,80.458,none
4.399970,0.325,0.414,-0.851,2812.08,-0.112,0.112,0.112,-0.463,-0.885,0.047,0.432,-0.179,-0.884,2609.41,-0.112,3.917,-9.064,-0.097,0.116,0.988,-0.915,0.299,-0.272,1827.76,26.074,26.074,-77.998,0.067,-0.576,-0.815,-0.622,0.317,0.716,2548.05,-55.281,34.579,145.925,0.167,0.303,-0.938,0.476,-0.670,0.570,9.594,30.443,-87.053,81.710,0.843,-0.538,0.003,13.492,7.603,-77.588,53.313,none
4.419433,0.325,0.414,-0.851,2812.08,-0.112,0.112,0.112,-0.463,-0.885,0.047,0.432,-0.179,-0.884,2609.41,-0.112,3.917,-9.064,-0.097,0.116,0.988,-0.915,0.299,-0.272,1827.76,26.074,26.074,-77.998,0.067,-0.576,-0.815,-0.622,0.317,0.716,2548.05,-55.281,34.579,145.925,0.167,0.303,-0.938,0.358,-0.805,0.473,8.420,31.878,-27.359,48.000,0.786,-0.607,-0.119,12.862,4.901,-8.809,27.618,none
4.439501,0.325,0.414,-0.851,2812.08,-0.112,0.112,0.112,-0.463,-0.885,0.047,0.432,-0.179,-0.884,2609.41,-0.112,3.917,-9.064,-0.097,0.116,0.988,-0.915,0.299,-0.272,1827.76,26.074,26.074,-77.998,0.067,-0.576,-0.815,-0.622,0.317,0.716,2548.05,-55.281,34.579,145.925,0.167,0.303,-0.938,0.330,-0.938,0.109,8.310,34.137,-7.405,7.725,0.709,-0.671,-0.219,12.233,4.198,24.107,7.542,none
4.459826,0.325,0.414,-0.851,2812.08,-0.112,0.112,0.112,-0.463,-0.885,0.047,0.432,-0.179,-0.884,2609.41,-0.112,3.917,-9.064,-0.097,0.116,0.988,-0.915,0.299,-0.272,1827.76,26.074,26.074,-77.998,0.067,-0.576,-0.815,-0.622,0.317,0.716,2548.05,-55.281,34.579,145.925,0.167,0.303,-0.938,0.247,-0.948,-0.201,8.776,68.473,-1.649,-27.298,0.662,-0.706,-0.251,11.596,7.282,36.214,-19.298,none
4.480048,0.325,0.414,-0.851,2812.08,-0.112,0.112,0.112,-0.463,-0.885,0.047,0.432,-0.179,-0.884,2609.41,-0.112,3.917,-9.064,-0.097,0.116,0.988,-0.915,0.299,-0.272,1827.76,26.074,26.074,-77.998,0.067,-0.576,-0.815,-0.622,0.317,0.716,2548.05,-55.281,34.579,145.925,0.167,0.303,-0.938,0.392,-0.904,0.174,8.078,109.328,-4.244,-63.969,0.726,-0.674,-0.139,11.338,5.710,42.107,-52.611,none
4.500289,0.325,0.414,-0.851,2812.08,-0.112,0.112,0.112,-0.463,-0.885,0.047,0.432,-0.179,-0.884,2609.41,-0.112,3.917,-9.064,-0.097,0.116,0.988,-0.915,0.299,-0.272,1827.76,26.074,26.074,-77.998,0.067,-0.576,-0.815,-0.622,0.317,0.716,2548.05,-55.281,34.579,145.925,0.167,0.303,-0.938,0.483,-0.682,0.550,10.175,73.053,12.504,-75.908,0.837,-0.547,0.017,13.747,-17.328,38.748,-65.282,none
4.520367,0.325,0.414,-0.851,2812.08,-0.112,0.112,0.112,-0.463,-0.885,0.047,0.432,-0.179,-0.884,2609.41,-0.112,3.917,-9.064,-0.097,0.116,0.988,-0.915,0.299,-0.272,1827.76,26.074,26.074,-77.998,0.067,-0.576,-0.815,-0.622,0.317,0.716,2548.05,-55.281,34.579,145.925,0.167,0.303,-0.938,0.535,-0.765,0.358,10.560,24.015,9.664,-85.863,0.819,-0.558,-0.137,15.189,-35.084,40.031,-46.366,none
4.540463,0.325,0.414,-0.851,2812.08,-0.112,0.112,0.112,-0.463,-0.885,0.047,0.432,-0.179,-0.884,2609.41,-0.112,3.917,-9.064,-0.097,0.116,0.988,-0.915,0.299,-0.272,1827.76,26.074,26.074,-77.998,0.067,-0.576,-0.815,-0.622,0.317,0.716,2548.05,-55.281,34.579,145.925,0.167,0.303,-0.938,0.656,-0.735,0.171,11.601,22.458,10.519,-69.679,0.771,-0.595,-0.226,15.170,-20.763,31.237,-34.931,none
4.560217,0.325,0.414,-0.851,2812.08,-0.112,0.112,0.112,-0.463,-0.885,0.047,0.432,-0.179,-0.884,2609.41,-0.112,3.917,-9.064,-0.097,0.116,0.988,-0.915,0.299,-0.272,1827.76,26.074,26.074,-77.998,0.067,-0.576,-0.815,-0.622,0.317,0.716,2548.05,-55.281,34.579,145.925,0.167,0.303,-0.938,0.631,-0.689,0.358,10.837,35.618,29.160,-59.420,0.837,-0.543,-0.073,14.786,-10.534,41.130,-37.481,none
4.580555,0.325,0.414,-0.851,2812.08,-0.112,0.112,0.112,-0.463,-0.885,0.047,0.432,-0.179,-0.884,2609.41,-0.112,3.917,-9.064,-0.097,0.116,0.988,-0.915,0.299,-0.272,1827.76,26.074,26.074,-77.998,0.067,-0.576,-0.815,-0.622,0.317,0.716,2548.05,-55.281,34.579,145.925,0.167,0.303,-0.938,0.593,-0.588,0.551,11.474,16.840,48.611,-59.450,0.870,-0.493,0.012,15.185,-21.359,61.908,-34.397,none
4.600511,0.325,0.414,-0.851,2812.08,-0.112,0.112,0.112,-0.463,-0.885,0.047,0.432,-0.179,-0.884,2609.41,-0.112,3.917,-9.064,-0.097,0.116,0.988,-0.915,0.299,-0.272,1827.76,26.074,26.074,-77.998,0.067,-0.576,-0.815,-0.622,0.317,0.716,2548.05,-55.281,34.579,145.925,0.167,0.303,-0.938,0.647,-0.685,0.335,11.605,-13.847,49.954,-51.130,0.828,-0.547,-0.124,15.364,-28.504,60.962,-18.473,none
4.620341,0.325,0.414,-0.851,2812.08,-0.112,0.112,0.112,-0.463,-0.885,0.047,0.432,-0.179,-0.884,2609.41,-0.112,3.917,-9.064,-0.097,0.116,0.988,-0.915,0.299,-0.272,1827.76,26.074,26.074,-77.998,0.067,-0.576,-0.815,-0.622,0.317,0.716,2548.05,-55.281,34.579,145.925,0.167,0.303,-0.938,0.664,-0.730,0.163,11.892,-8.489,40.565,-22.260,0.794,-0.587,-0.155,14.817,-13.603,41.191,-5.313,none
4.640379,0.325,0.414,-0.851,2812.08,-0.112,0.112,0.112,-0.463,-0.885,0.047,0.432,-0.179,-0.884,2609.41,-0.112,3.917,-9.064,-0.097,0.116,0.988,-0.915,0.299,-0.272,1827.76,26.074,26.074,-77.998,0.067,-0.576,-0.815,-0.622,0.317,0.716,2548.05,-55.281,34.579,145.925,0.167,0.303,-0.938,0.616,-0.722,0.314,11.003,-2.977,31.832,-2.244,0.806,-0.587,-0.077,14.233,-9.542,23.221,0.427,none
4.660466,0.325,0.414,-0.851,2812.08,-0.112,0.112,0.112,-0.463,-0.885,0.047,0.432,-0.179,-0.884,2609.41,-0.112,3.917,-9.064,-0.097,0.116,0.988,-0.915,0.299,-0.272,1827.76,26.074,26.074,-77.998,0.067,-0.576,-0.815,-0.622,0.317,0.716,2548.05,-55.281,34.579,145.925,0.167,0.303,-0.938,0.581,-0.650,0.489,10.557,-9.115,38.489,0.565,0.842,-0.539,0.005,14.327,-14.870,29.969,-3.145,none
4.680620,0.325,0.414,-0.851,2812.08,-0.112,0.112,0.112,-0.463,-0.885,0.047,0.432,-0.179,-0.884,2609.41,-0.112,3.917,-9.064,-0.097,0.116,0.988,-0.915,0.299,-0.272,1827.76,26.074,26.074,-77.998,0.067,-0.576,-0.815,-0.622,0.317,0.716,2548.05,-55.281,34.579,145.925,0.167,0.303,-0.938,0.586,-0.661,0.468,10.527,-24.977,50.107,-8.168,0.850,-0.527,-0.010,14.552,-27.008,45.481,-5.802,none
4.700607,0.325,0.414,-0.851,2812.08,-0.112,0.112,0.112,-0.463,-0.885,0.047,0.432,-0.179,-0.884,2609.41,-0.112,3.917,-9.064,-0.097,0.116,0.988,-0.915,0.299,-0.272,1827.76,26.074,26.074,-77.998,0.067,-0.576,-0.815,-0.622,0.317,0.716,2548.05,-55.281,34.579,145.925,0.167,0.303,-0.938,0.597,-0.748,0.291,10.561,-29.313,56.000,-9.679,0.818,-0.565,-0.107,14.636,-29.023,52.870,-2.992,none
4.720400,0.325,0.414,-0.851,2812.08,-0.112,0.112,0.112,-0.463,-0.885,0.047,0.432,-0.179,-0.884,2609.41,-0.112,3.917,-9.064,-0.097,0.116,0.988,-0.915,0.299,-0.272,1827.76,26.074,26.074,-77.998,0.067,-0.576,-0.815,-0.622,0.317,0.716,2548.05,-55.281,34.579,145.925,0.167,0.303,-0.938,0.544,-0.817,0.190,10.081,-23.542,54.305,-11.206,0.778,-0.608,-0.157,14.044,-19.405,45.908,-2.397,none
4.740810,0.325,0.414,-0.851,2812.08,-0.112,0.112,0.112,-0.463,-0.885,0.047,0.432,-0.179,-0.884,2609.41,-0.112,3.917,-9.064,-0.097,0.116,0.988,-0.915,0.299,-0.272,1827.76,26.074,26.074,-77.998,0.067,-0.576,-0.815,-0.622,0.317,0.716,2548.05,-55.281,34.579,145.925,0.167,0.303,-0.938,0.555,-0.800,0.228,10.003,-4.779,41.771,-14.824,0.784,-0.610,-0.114,13.635,-7.786,34.794,-9.023,none
4.760892,0.325,0.414,-0.851,2812.08,-0.112,0.112,0.112,-0.463,-0.885,0.047,0.432,-0.179,-0.884,2609.41,-0.112,3.917,-9.064,-0.097,0.116,0.988,-0.915,0.299,-0.272,1827.76,26.074,26.074,-77.998,0.067,-0.576,-0.815,-0.622,0.317,0.716,2548.05,-55.281,34.579,145.925,0.167,0.303,-0.938,0.538,-0.750,0.385,9.820,3.435,35.160,-18.183,0.816,-0.578,-0.035,13.615,-5.802,30.107,-14.809,none
4.781176,0.325,0.414,-0.851,2812.08,-0.112,0.112,0.112,-0.463,-0.885,0.047,0.432,-0.179,-0.884,2609.41,-0.112,3.917,-9.064,-0.097,0.116,0.988,-0.915,0.299,-0.272,1827.76,26.074,26.074,-77.998,0.067,-0.576,-0.815,-0.622,0.317,0.716,2548.05,-55.281,34.579,145.925,0.167,0.303,-0.938,0.580,-0.720,0.381,10.276,-4.229,32.824,-20.763,0.831,-0.555,-0.043,14.033,-11.481,28.336,-16.260,none
4.806478,0.325,0.414,-0.851,2812.08,-0.112,0.112,0.112,-0.463,-0.885,0.047,0.432,-0.179,-0.884,2609.41,-0.112,3.917,-9.064,-0.097,0.116,0.988,-0.915,0.299,-0.272,1827.76,26.074,26.074,-77.998,0.067,-0.576,-0.815,-0.622,0.317,0.716,2548.05,-55.281,34.579,145.925,0.167,0.303,-0.938,0.624,-0.724,0.293,10.749,-3.176,29.893,-14.382,0.830,-0.551,-0.082,14.513,-9.344,22.733,-12.458,none
4.821584,0.325,0.414,-0.851,2812.08,-0.112,0.112,0.112,-0.463,-0.885,0.047,0.432,-0.179,-0.884,2609.41,-0.112,3.917,-9.064,-0.097,0.116,0.988,-0.915,0.299,-0.272,1827.76,26.074,26.074,-77.998,0.067,-0.576,-0.815,-0.622,0.317,0.716,2548.05,-55.281,34.579,145.925,0.167,0.303,-0.938,0.602,-0.739,0.304,10.264,5.099,29.389,-4.412,0.836,-0.547,-0.054,14.286,-3.588,17.084,-9.298,none
4.841804,0.325,0.414,-0.851,2812.08,-0.112,0.112,0.112,-0.463,-0.885,0.047,0.432,-0.179,-0.884,2609.41,-0.112,3.917,-9.064,-0.097,0.116,0.988,-0.915,0.299,-0.272,1827.76,26.074,26.074,-77.998,0.067,-0.576,-0.815,-0.622,0.317,0.716,2548.05,-55.281,34.579,145.925,0.167,0.303,-0.938,0.542,-0.726,0.422,9.847,9.985,18.855,-8.855,0.838,-0.545,-0.009,14.015,-5.023,15.832,-8.443,none
4.861940,0.325,0.414,-0.851,2812.08,-0.112,0.112,0.112,-0.463,-0.885,0.047,0.432,-0.179,-0.884,2609.41,-0.112,3.917,-9.064,-0.097,0.116,0.988,-0.915,0.299,-0.272,1827.76,26.074,26.074,-77.998,0.067,-0.576,-0.815,-0.622,0.317,0.716,2548.05,-55.281,34.579,145.925,0.167,0.303,-0.938,0.584,-0.705,0.403,10.309,8.473,13.069,-12.168,0.835,-0.550,-0.020,14.031,-5.282,12.595,-12.412,none
4.881750,0.325,0.414,-0.851,2812.08,-0.112,0.112,0.112,-0.463,-0.885,0.047,0.432,-0.179,-0.884,2609.41,-0.112,3.917,-9.064,-0.097,0.116,0.988,-0.915,0.299,-0.272,1827.76,26.074,26.074,-77.998,0.067,-0.576,-0.815,-0.622,0.317,0.716,2548.05,-55.281,34.579,145.925,0.167,0.303,-0.938,0.592,-0.723,0.357,10.244,11.053,7.206,-11.344,0.837,-0.545,-0.045,14.307,-2.321,5.649,-11.878,none
4.901906,0.325,0.414,-0.851,2812.08,-0.112,0.112,0.112,-0.463,-0.885,0.047,0.432,-0.179,-0.884,2609.41,-0.112,3.917,-9.064,-0.097,0.116,0.988,-0.915,0.299,-0.272,1827.76,26.074,26.074,-77.998,0.067,-0.576,-0.815,-0.622,0.317,0.716,2548.05,-55.281,34.579,145.925,0.167,0.303,-0.938,0.568,-0.725,0.389,9.903,15.008,0.885,-14.015,0.846,-0.533,-0.026,14.268,1.817,-0.229,-13.511,none
4.922013,0.325,0.414,-0.851,2812.08,-0.112,0.112,0.112,-0.463,-0.885,0.047,0.432,-0.179,-0.884,2609.41,-0.112,3.917,-9.064,-0.097,0.116,0.988,-0.915,0.299,-0.272,1827.76,26.074,26.074,-77.998,0.067,-0.576,-0.815,-0.622,0.317,0.716,2548.05,-55.281,34.579,145.925,0.167,0.303,-0.938,0.611,-0.662,0.434,10.440,16.901,-4.107,-20.611,0.852,-0.523,-0.016,14.360,3.298,-1.252,-16.443,none
4.942088,0.325,0.414,-0.851,2812.08,-0.112,0.112,0.112,-0.463,-0.885,0.047,0.432,-0.179,-0.884,2609.41,-0.112,3.917,-9.064,-0.097,0.116,0.988,-0.915,0.299,-0.272,1827.76,26.074,26.074,-77.998,0.067,-0.576,-0.815,-0.622,0.317,0.716,2548.05,-55.281,34.579,145.925,0.167,0.303,-0.938,0.622,-0.658,0.424,10.584,14.321,-1.115,-20.382,0.854,-0.520,-0.028,14.494,4.076,0.962,-19.206,none
4.962251,0.325,0.414,-0.851,2812.08,-0.112,0.112,0.112,-0.463,-0.885,0.047,0.432,-0.179,-0.884,2609.41,-0.112,3.917,-9.064,-0.097,0.116,0.988,-0.915,0.299,-0.272,1827.76,26.074,26.074,-77.998,0.067,-0.576,-0.815,-0.622,0.317,0.716,2548.05,-55.281,34.579,145.925,0.167,0.303,-0.938,0.614,-0.710,0.346,10.219,13.985,-5.847,-19.206,0.846,-0.528,-0.070,14.577,9.618,-1.603,-20.504,none
4.982601,0.325,0.414,-0.851,2812.08,-0.112,0.112,0.112,-0.463,-0.885,0.047,0.432,-0.179,-0.884,2609.41,-0.112,3.917,-9.064,-0.097,0.116,0.988,-0.915,0.299,-0.272,1827.76,26.074,26.074,-77.998,0.067,-0.576,-0.815,-0.622,0.317,0.716,2548.05,-55.281,34.579,145.925,0.167,0.303,-0.938,0.649,-0.679,0.343,10.694,23.954,-13.817,-22.611,0.847,-0.526,-0.071,14.648,22.305,-6.290,-23.557,none
5.002772,0.325,0.414,-0.851,2812.08,-0.112,0.112,0.112,-0.463,-0.885,0.047,0.432,-0.179,-0.884,2609.41,-0.112,3.917,-9.064,-0.097,0.116,0.988,-0.915,0.299,-0.272,1827.76,26.074,26.074,-77.998,0.067,-0.576,-0.815,-0.622,0.317,0.716,2548.05,-55.281,34.579,145.925,0.167,0.303,-0.938,0.611,-0.693,0.384,10.116,22.718,-1.573,-17.145,0.858,-0.512,-0.042,14.624,30.351,-3.069,-24.824,none
5.024415,0.325,0.414,-0.851,2812.08,-0.112,0.112,0.112,-0.463,-0.885,0.047,0.432,-0.179,-0.884,2609.41,-0.112,3.917,-9.064,-0.097,0.116,0.988,-0.915,0.299,-0.272,1827.76,26.074,26.074,-77.998,0.067,-0.576,-0.815,-0.622,0.317,0.716,2548.05,-55.281,34.579,145.925,0.167,0.303,-0.938,0.546,-0.705,0.451,9.632,23.802,-10.687,-37.206,0.863,-0.504,0.031,14.394,29.756,0.809,-28.809,none
5.043016,0.325,0.414,-0.851,2812.08,-0.112,0.112,0.112,-0.463,-0.885,0.047,0.432,-0.179,-0.884,2609.41,-0.112,3.917,-9.064,-0.097,0.116,0.988,-0.915,0.299,-0.272,1827.76,26.074,26.074,-77.998,0.067,-0.576,-0.815,-0.622,0.317,0.716,2548.05,-55.281,34.579,145.925,0.167,0.303,-0.938,0.669,-0.622,0.407,10.925,15.634,-7.298,-45.282,0.865,-0.501,0.030,14.598,16.168,2.748,-26.534,none
5.063123,0.325,0.414,-0.851,2812.08,-0.112,0.112,0.112,-0.463,-0.885,0.047,0.432,-0.179,-0.884,2609.41,-0.112,3.917,-9.064,-0.097,0.116,0.988,-0.915,0.299,-0.272,1827.76,26.074,26.074,-77.998,0.067,-0.576,-0.815,-0.622,0.317,0.716,2548.05,-55.281,34.579,145.925,0.167,0.303,-0.938,0.664,-0.611,0.431,11.034,10.244,0.244,-33.145,0.864,-0.504,0.014,14.615,11.740,1.573,-23.450,none
5.083438,0.325,0.414,-0.851,2812.08,-0.112,0.112,0.112,-0.463,-0.885,0.047,0.432,-0.179,-0.884,2609.41,-0.112,3.917,-9.064,-0.097,0.116,0.988,-0.915,0.299,-0.272,1827.76,26.074,26.074,-77.998,0.067,-0.576,-0.815,-0.622,0.317,0.716,2548.05,-55.281,34.579,145.925,0.167,0.303,-0.938,0.617,-0.622,0.482,10.552,-3.496,3.344,-30.153,0.868,-0.495,0.033,14.641,6.443,1.359,-20.275,none
5.103562,0.325,0.414,-0.851,2812.08,-0.112,0.112,0.112,-0.463,-0.885,0.047,0.432,-0.179,-0.884,2609.41,-0.112,3.917,-9.064,-0.097,0.116,0.988,-0.915,0.299,-0.272,1827.76,26.074,26.074,-77.998,0.067,-0.576,-0.815,-0.622,0.317,0.716,2548.05,-55.281,34.579,145.925,0.167,0.303,-0.938,0.680,-0.620,0.392,10.739,-8.321,4.580,-26.550,0.872,-0.488,0.027,14.579,4.107,2.885,-17.649,none
5.123666,0.325,0.414,-0.851,2812.08,-0.112,0.112,0.112,-0.463,-0.885,0.047,0.432,-0.179,-0.884,2609.41,-0.112,3.917,-9.064,-0.097,0.116,0.988,-0.915,0.299,-0.272,1827.76,26.074,26.074,-77.998,0.067,-0.576,-0.815,-0.622,0.317,0.716,2548.05,-55.281,34.579,145.925,0.167,0.303,-0.938,0.632,-0.666,0.396,10.012,-8.443,12.092,-26.382,0.869,-0.495,0.019,14.498,4.290,3.908,-17.084,none
5.143673,0.325,0.414,-0.851,2812.08,-0.112,0.112,0.112,-0.463,-0.885,0.047,0.432,-0.179,-0.884,2609.41,-0.112,3.917,-9.064,-0.097,0.116,0.988,-0.915,0.299,-0.272,1827.76,26.074,26.074,-77.998,0.067,-0.576,-0.815,-0.622,0.317,0.716,2548.05,-55.281,34.579,145.925,0.167,0.303,-0.938,0.658,-0.652,0.377,10.166,-1.542,7.145,-33.130,0.855,-0.517,-0.031,14.255,10.931,5.664,-20.550,none
5.163723,0.325,0.414,-0.851,2812.08,-0.112,0.112,0.112,-0.463,-0.885,0.047,0.432,-0.179,-0.884,2609.41,-0.112,3.917,-9.064,-0.097,0.116,0.988,-0.915,0.299,-0.272,1827.76,26.074,26.074,-77.998,0.067,-0.576,-0.815,-0.622,0.317,0.716,2548.05,-55.281,34.579,145.925,0.167,0.303,-0.938,0.672,-0.646,0.362,10.156,8.061,6.122,-30.733,0.832,-0.531,-0.158,14.100,30.489,6.168,-28.153,none
5.183936,0.325,0.414,-0.851,2812.08,-0.112,0.112,0.112,-0.463,-0.885,0.047,0.432,-0.179,-0.884,2609.41,-0.112,3.917,-9.064,-0.097,0.116,0.988,-0.915,0.299,-0.272,1827.76,26.074,26.074,-77.998,0.067,-0.576,-0.815,-0.622,0.317,0.716,2548.05,-55.281,34.579,145.925,0.167,0.303,-0.938,0.693,-0.618,0.371,10.432,23.206,1.557,-24.916,0.689,-0.539,-0.484,15.551,153.817,16.092,-74.885,none
5.204230,0.325,0.414,-0.851,2812.08,-0.112,0.112,0.112,-0.463,-0.885,0.047,0.432,-0.179,-0.884,2609.41,-0.112,3.917,-9.064,-0.097,0.116,0.988,-0.915,0.299,-0.272,1827.76,26.074,26.074,-77.998,0.067,-0.576,-0.815,-0.622,0.317,0.716,2548.05,-55.281,34.579,145.925,0.167,0.303,-0.938,0.693,-0.656,0.299,10.512,35.099,7.557,-22.061,0.862,-0.443,-0.245,14.886,261.008,29.725,-99.634,none
5.224263,0.325,0.414,-0.851,2812.08,-0.112,0.112,0.112,-0.463,-0.885,0.047,0.432,-0.179,-0.884,2609.41,-0.112,3.917,-9.064,-0.097,0.116,0.988,-0.915,0.299,-0.272,1827.76,26.074,26.074,-77.998,0.067,-0.576,-0.815,-0.622,0.317,0.716,2548.05,-55.281,34.579,145.925,0.167,0.303,-0.938,0.703,-0.632,0.326,10.387,48.977,7.802,-22.412,0.925,-0.305,0.228,14.557,275.344,45.099,-101.649,none
5.244783,0.325,0.414,-0.851,2812.08,-0.112,0.112,0.112,-0.463,-0.885,0.047,0.432,-0.179,-0.884,2609.41,-0.112,3.917,-9.064,-0.097,0.116,0.988,-0.915,0.299,-0.272,1827.76,26.074,26.074,-77.998,0.067,-0.576,-0.815,-0.622,0.317,0.716,2548.05,-55.281,34.579,145.925,0.167,0.303,-0.938,0.655,-0.592,0.468,10.052,47.863,13.466,-22.260,0.833,-0.171,0.525,17.023,204.076,23.817,-77.176,none
5.265107,0.325,0.414,-0.851,2812.08,-0.112,0.112,0.112,-0.463,-0.885,0.047,0.432,-0.179,-0.884,2609.41,-0.112,3.917,-9.064,-0.097,0.116,0.988,-0.915,0.299,-0.272,1827.76,26.074,26.074,-77.998,0.067,-0.576,-0.815,-0.622,0.317,0.716,2548.05,-55.281,34.579,145.925,0.167,0.303,-0.938,0.640,-0.508,0.577,10.684,38.321,4.427,-22.931,0.839,-0.196,0.508,16.654,102.473,11.023,-49.863,none
5.284957,0.325,0.414,-0.851,2812.08,-0.112,0.112,0.112,-0.463,-0.885,0.047,0.432,-0.179,-0.884,2609.41,-0.112,3.917,-9.064,-0.097,0.116,0.988,-0.915,0.299,-0.272,1827.76,26.074,26.074,-77.998,0.067,-0.576,-0.815,-0.622,0.317,0.716,2548.05,-55.281,34.579,145.925,0.167,0.303,-0.938,0.673,-0.553,0.492,10.334,30.595,-4.168,-26.031,0.894,-0.280,0.351,15.363,45.679,-1.221,-38.779,none
5.305071,0.325,0.414,-0.851,2812.08,-0.112,0.112,0.112,-0.463,-0.885,0.047,0.432,-0.179,-0.884,2609.41,-0.112,3.917,-9.064,-0.097,0.116,0.988,-0.915,0.299,-0.272,1827.76,26.074,26.074,-77.998,0.067,-0.576,-0.815,-0.622,0.317,0.716,2548.05,-55.281,34.579,145.925,0.167,0.303,-0.938,0.728,-0.565,0.388,11.067,33.802,-9.374,-15.496,0.917,-0.295,0.267,15.819,29.817,-11.527,-28.748,none
5.325164,0.325,0.414,-0.851,2812.08,-0.112,0.112,0.112,-0.463,-0.885,0.047,0.432,-0.179,-0.884,2609.41,-0.112,3.917,-9.064,-0.097,0.116,0.988,-0.915,0.299,-0.272,1827.76,26.074,26.074,-77.998,0.067,-0.576,-0.815,-0.622,0.317,0.716,2548.05,-55.281,34.579,145.925,0.167,0.303,-0.938,0.728,-0.593,0.344,10.568,49.267,-21.267,-1.191,0.905,-0.285,0.315,15.992,18.397,-21.053,-9.496,none
5.345251,0.325,0.414,-0.851,2812.08,-0.112,0.112,0.112,-0.463,-0.885,0.047,0.432,-0.179,-0.884,2609.41,-0.112,3.917,-9.064,-0.097,0.116,0.988,-0.915,0.299,-0.272,1827.76,26.074,26.074,-77.998,0.067,-0.576,-0.815,-0.622,0.317,0.716,2548.05,-55.281,34.579,145.925,0.167,0.303,-0.938,0.661,-0.531,0.530,10.273,56.305,-30.000,0.992,0.902,-0.266,0.340,15.481,-10.748,-26.336,3.557,none
5.365836,0.325,0.414,-0.851,2812.08,-0.112,0.112,0.112,-0.463,-0.885,0.047,0.432,-0.179,-0.884,2609.41,-0.112,3.917,-9.064,-0.097,0.116,0.988,-0.915,0.299,-0.272,1827.76,26.074,26.074,-77.998,0.067,-0.576,-0.815,-0.622,0.317,0.716,2548.05,-55.281,34.579,145.925,0.167,0.303,-0.938,0.560,-0.368,0.742,11.803,21.405,-26.168,-5.069,0.909,-0.287,0.302,14.787,-27.344,-20.443,3.969,none
5.385369,0.325,0.414,-0.851,2812.08,-0.112,0.112,0.112,-0.463,-0.885,0.047,0.432,-0.179,-0.884,2609.41,-0.112,3.917,-9.064,-0.097,0.116,0.988,-0.915,0.299,-0.272,1827.76,26.074,26.074,-77.998,0.067,-0.576,-0.815,-0.622,0.317,0.716,2548.05,-55.281,34.579,145.925,0.167,0.303,-0.938,0.678,-0.505,0.534,10.572,-18.092,-21.985,-18.366,0.924,-0.329,0.194,14.940,-32.275,-20.718,0.641,none
5.405614,0.325,0.414,-0.851,2812.08,-0.112,0.112,0.112,-0.463,-0.885,0.047,0.432,-0.179,-0.884,2609.41,-0.112,3.917,-9.064,-0.097,0.116,0.988,-0.915,0.299,-0.272,1827.76,26.074,26.074,-77.998,0.067,-0.576,-0.815,-0.622,0.317,0.716,2548.05,-55.281,34.579,145.925,0.167,0.303,-0.938,0.763,-0.584,0.277,10.704,-10.977,-14.595,-19.924,0.922,-0.366,0.128,15.467,-14.458,-16.031,0.427,none
5.425751,0.325,0.414,-0.851,2812.08,-0.112,0.112,0.112,-0.463,-0.885,0.047,0.432,-0.179,-0.884,2609.41,-0.112,3.917,-9.064,-0.097,0.116,0.988,-0.915,0.299,-0.272,1827.76,26.074,26.074,-77.998,0.067,-0.576,-0.815,-0.622,0.317,0.716,2548.05,-55.281,34.579,145.925,0.167,0.303,-0.938,0.773,-0.550,0.315,10.670,9.511,-9.466,-10.840,0.931,-0.341,0.132,14.829,3.115,-6.061,-0.183,none
5.445690,0.325,0.414,-0.851,2812.08,-0.112,0.112,0.112,-0.463,-0.885,0.047,0.432,-0.179,-0.884,2609.41,-0.112,3.917,-9.064,-0.097,0.116,0.988,-0.915,0.299,-0.272,1827.76,26.074,26.074,-77.998,0.067,-0.576,-0.815,-0.622,0.317,0.716,2548.05,-55.281,34.579,145.925,0.167,0.303,-0.938,0.739,-0.506,0.446,10.590,20.427,-11.985,-4.031,0.933,-0.343,0.107,14.262,39.023,0.168,-11.695,none
5.465957,0.325,0.414,-0.851,2812.08,-0.112,0.112,0.112,-0.463,-0.885,0.047,0.432,-0.179,-0.884,2609.41,-0.112,3.917,-9.064,-0.097,0.116,0.988,-0.915,0.299,-0.272,1827.76,26.074,26.074,-77.998,0.067,-0.576,-0.815,-0.622,0.317,0.716,2548.05,-55.281,34.579,145.925,0.167,0.303,-0.938,0.770,-0.491,0.408,11.357,24.153,-10.153,0.427,0.944,-0.279,0.177,15.695,84.046,3.176,-22.015,none
5.486110,0.325,0.414,-0.851,2812.08,-0.112,0.112,0.112,-0.463,-0.885,0.047,0.432,-0.179,-0.884,2609.41,-0.112,3.917,-9.064,-0.097,0.116,0.988,-0.915,0.299,-0.272,1827.76,26.074,26.074,-77.998,0.067,-0.576,-0.815,-0.622,0.317,0.716,2548.05,-55.281,34.579,145.925,0.167,0.303,-0.938,0.738,-0.525,0.423,10.726,26.122,-5.267,11.649,0.930,-0.280,0.239,15.809,96.916,9.557,-11.847,none
5.506010,0.325,0.414,-0.851,2812.08,-0.112,0.112,0.112,-0.463,-0.885,0.047,0.432,-0.179,-0.884,2609.41,-0.112,3.917,-9.064,-0.097,0.116,0.988,-0.915,0.299,-0.272,1827.76,26.074,26.074,-77.998,0.067,-0.576,-0.815,-0.622,0.317,0.716,2548.05,-55.281,34.579,145.925,0.167,0.303,-0.938,0.724,-0.553,0.412,10.460,24.901,-8.260,8.305,0.922,-0.317,0.221,14.994,72.122,7.771,-7.099,none
5.526471,0.325,0.414,-0.851,2812.08,-0.112,0.112,0.112,-0.463,-0.885,0.047,0.432,-0.179,-0.884,2609.41,-0.112,3.917,-9.064,-0.097,0.116,0.988,-0.915,0.299,-0.272,1827.76,26.074,26.074,-77.998,0.067,-0.576,-0.815,-0.622,0.317,0.716,2548.05,-55.281,34.579,145.925,0.167,0.303,-0.938,0.749,-0.531,0.397,10.726,28.580,-5.924,10.122,0.918,-0.350,0.187,14.890,55.313,2.763,-5.069,none
5.546445,0.325,0.414,-0.851,2812.08,-0.112,0.112,0.112,-0.463,-0.885,0.047,0.432,-0.179,-0.884,2609.41,-0.112,3.917,-9.064,-0.097,0.116,0.988,-0.915,0.299,-0.272,1827.76,26.074,26.074,-77.998,0.067,-0.576,-0.815,-0.622,0.317,0.716,2548.05,-55.281,34.579,145.925,0.167,0.303,-0.938,0.741,-0.531,0.411,10.594,34.336,-2.763,14.840,0.917,-0.265,0.298,15.000,36.031,1.405,-0.427,none
5.566508,0.325,0.414,-0.851,2812.08,-0.112,0.112,0.112,-0.463,-0.885,0.047,0.432,-0.179,-0.884,2609.41,-0.112,3.917,-9.064,-0.097,0.116,0.988,-0.915,0.299,-0.272,1827.76,26.074,26.074,-77.998,0.067,-0.576,-0.815,-0.622,0.317,0.716,2548.05,-55.281,34.579,145.925,0.167,0.303,-0.938,0.737,-0.519,0.433,10.907,42.031,-4.427,23.573,0.915,-0.243,0.322,15.457,14.290,-3.221,4.840,none
5.586596,0.325,0.414,-0.851,2812.08,-0.112,0.112,0.112,-0.463,-0.885,0.047,0.432,-0.179,-0.884,2609.41,-0.112,3.917,-9.064,-0.097,0.116,0.988,-0.915,0.299,-0.272,1827.76,26.074,26.074,-77.998,0.067,-0.576,-0.815,-0.622,0.317,0.716,2548.05,-55.281,34.579,145.925,0.167,0.303,-0.938,0.754,-0.531,0.388,10.908,52.443,-0.656,38.031,0.929,-0.309,0.203,14.881,17.832,5.573,9.771,none
5.606656,0.325,0.414,-0.851,2812.08,-0.112,0.112,0.112,-0.463,-0.885,0.047,0.432,-0.179,-0.884,2609.41,-0.112,3.917,-9.064,-0.097,0.116,0.988,-0.915,0.299,-0.272,1827.76,26.074,26.074,-77.998,0.067,-0.576,-0.815,-0.622,0.317,0.716,2548.05,-55.281,34.579,145.925,0.167,0.303,-0.938,0.758,-0.562,0.331,10.326,81.725,5.786,46.794,0.913,-0.386,0.130,14.146,50.382,14.718,-9.420,none
5.626323,0.325,0.414,-0.851,2812.08,-0.112,0.112,0.112,-0.463,-0.885,0.047,0.432,-0.179,-0.884,2609.41,-0.112,3.917,-9.064,-0.097,0.116,0.988,-0.915,0.299,-0.272,1827.76,26.074,26.074,-77.998,0.067,-0.576,-0.815,-0.622,0.317,0.716,2548.05,-55.281,34.579,145.925,0.167,0.303,-0.938,0.727,-0.549,0.412,10.461,108.504,12.977,58.214,0.914,-0.292,0.280,14.562,63.969,19.160,-20.336,none
5.646361,0.325,0.414,-0.851,2812.08,-0.112,0.112,0.112,-0.463,-0.885,0.047,0.432,-0.179,-0.884,2609.41,-0.112,3.917,-9.064,-0.097,0.116,0.988,-0.915,0.299,-0.272,1827.76,26.074,26.074,-77.998,0.067,-0.576,-0.815,-0.622,0.317,0.716,2548.05,-55.281,34.579,145.925,0.167,0.303,-0.938,0.658,-0.536,0.529,9.910,113.008,14.076,50.779,0.915,-0.250,0.317,14.722,48.977,17.634,-24.275,none
5.666476,0.325,0.414,-0.851,2812.08,-0.112,0.112,0.112,-0.463,-0.885,0.047,0.432,-0.179,-0.884,2609.41,-0.112,3.917,-9.064,-0.097,0.116,0.988,-0.915,0.299,-0.272,1827.76,26.074,26.074,-77.998,0.067,-0.576,-0.815,-0.622,0.317,0.716,2548.05,-55.281,34.579,145.925,0.167,0.303,-0.938,0.707,-0.450,0.546,10.738,118.824,14.382,51.863,0.892,-0.325,0.314,15.368,53.832,20.214,-24.489,none
5.686560,0.325,0.414,-0.851,2812.08,-0.112,0.112,0.112,-0.463,-0.885,0.047,0.432,-0.179,-0.884,2609.41,-0.112,3.917,-9.064,-0.097,0.116,0.988,-0.915,0.299,-0.272,1827.76,26.074,26.074,-77.998,0.067,-0.576,-0.815,-0.622,0.317,0.716,2548.05,-55.281,34.579,145.925,0.167,0.303,-0.938,0.767,-0.483,0.422,10.208,145.496,16.351,66.855,0.937,-0.230,0.263,14.159,47.267,25.435,-35.496,none
5.706722,0.325,0.414,-0.851,2812.08,-0.112,0.112,0.112,-0.463,-0.885,0.047,0.432,-0.179,-0.884,2609.41,-0.112,3.917,-9.064,-0.097,0.116,0.988,-0.915,0.299,-0.272,1827.76,26.074,26.074,-77.998,0.067,-0.576,-0.815,-0.622,0.317,0.716,2548.05,-55.281,34.579,145.925,0.167,0.303,-0.938,0.845,-0.534,0.034,10.904,284.122,-0.183,118.855,0.940,-0.318,-0.125,13.404,268.748,47.588,-72.550,none
5.726861,0.325,0.414,-0.851,2812.08,-0.112,0.112,0.112,-0.463,-0.885,0.047,0.432,-0.179,-0.884,2609.41,-0.112,3.917,-9.064,-0.097,0.116,0.988,-0.915,0.299,-0.272,1827.76,26.074,26.074,-77.998,0.067,-0.576,-0.815,-0.622,0.317,0.716,2548.05,-55.281,34.579,145.925,0.167,0.303,-0.938,0.463,-0.498,0.733,9.046,349.267,8.092,109.603,0.930,-0.144,0.339,15.255,320.519,45.710,-89.069,none
5.747469,0.325,0.414,-0.851,2812.08,-0.112,0.112,0.112,-0.463,-0.885,0.047,0.432,-0.179,-0.884,2609.41,-0.112,3.917,-9.064,-0.097,0.116,0.988,-0.915,0.299,-0.272,1827.76,26.074,26.074,-77.998,0.067,-0.576,-0.815,-0.622,0.317,0.716,2548.05,-55.281,34.579,145.925,0.167,0.303,-0.938,0.307,-0.160,0.938,12.624,253.786,2.565,45.344,0.825,0.016,0.564,15.877,208.244,31.374,-77.496,none
5.766745,0.325,0.414,-0.851,2812.08,-0.112,0.112,0.112,-0.463,-0.885,0.047,0.432,-0.179,-0.884,2609.41,-0.112,3.917,-9.064,-0.097,0.116,0.988,-0.915,0.299,-0.272,1827.76,26.074,26.074,-77.998,0.067,-0.576,-0.815,-0.622,0.317,0.716,2548.05,-55.281,34.579,145.925,0.167,0.303,-0.938,0.389,-0.162,0.907,12.459,145.908,-0.870,18.107,0.836,0.051,0.546,15.812,121.618,9.985,-58.061,none
5.788858,0.325,0.414,-0.851,2812.08,-0.112,0.112,0.112,-0.463,-0.885,0.047,0.432,-0.179,-0.884,2609.41,-0.112,3.917,-9.064,-0.097,0.116,0.988,-0.915,0.299,-0.272,1827.76,26.074,26.074,-77.998,0.067,-0.576,-0.815,-0.622,0.317,0.716,2548.05,-55.281,34.579,145.925,0.167,0.303,-0.938,0.479,-0.286,0.830,12.079,78.947,-7.725,7.695,0.861,0.030,0.507,16.508,57.985,-2.107,-27.878,none
5.806918,0.325,0.414,-0.851,2812.08,-0.112,0.112,0.112,-0.463,-0.885,0.047,0.432,-0.179,-0.884,2609.41,-0.112,3.917,-9.064,-0.097,0.116,0.988,-0.915,0.299,-0.272,1827.76,26.074,26.074,-77.998,0.067,-0.576,-0.815,-0.622,0.317,0.716,2548.05,-55.281,34.579,145.925,0.167,0.303,-0.938,0.509,-0.333,0.793,11.494,34.687,-2.412,-3.802,0.885,-0.005,0.465,15.981,6.656,-4.977,-7.771,none
5.826805,0.325,0.414,-0.851,2812.08,-0.112,0.112,0.112,-0.463,-0.885,0.047,0.432,-0.179,-0.884,2609.41,-0.112,3.917,-9.064,-0.097,0.116,0.988,-0.915,0.299,-0.272,1827.76,26.074,26.074,-77.998,0.067,-0.576,-0.815,-0.622,0.317,0.716,2548.05,-55.281,34.579,145.925,0.167,0.303,-0.938,0.527,-0.239,0.816,11.529,2.977,4.656,-15.588,0.890,0.049,0.454,15.422,-25.115,-3.725,0.046,none
5.846978,0.325,0.414,-0.851,2812.08,-0.112,0.112,0.112,-0.463,-0.885,0.047,0.432,-0.179,-0.884,2609.41,-0.112,3.917,-9.064,-0.097,0.116,0.988,-0.915,0.299,-0.272,1827.76,26.074,26.074,-77.998,0.067,-0.576,-0.815,-0.622,0.317,0.716,2548.05,-55.281,34.579,145.925,0.167,0.303,-0.938,0.516,-0.207,0.831,11.093,-28.397,7.435,-30.061,0.915,0.000,0.405,14.169,-47.344,-4.153,-8.107,none
5.866996,0.325,0.414,-0.851,2812.08,-0.112,0.112,0.112,-0.463,-0.885,0.047,0.432,-0.179,-0.884,2609.41,-0.112,3.917,-9.064,-0.097,0.116,0.988,-0.915,0.299,-0.272,1827.76,26.074,26.074,-77.998,0.067,-0.576,-0.815,-0.622,0.317,0.716,2548.05,-55.281,34.579,145.925,0.167,0.303,-0.938,0.653,-0.418,0.631,9.825,-28.183,5.344,-33.374,0.960,-0.232,0.156,13.206,10.015,0.580,-35.679,none
5.886707,0.325,0.414,-0.851,2812.08,-0.112,0.112,0.112,-0.463,-0.885,0.047,0.432,-0.179,-0.884,2609.41,-0.112,3.917,-9.064,-0.097,0.116,0.988,-0.915,0.299,-0.272,1827.76,26.074,26.074,-77.998,0.067,-0.576,-0.815,-0.622,0.317,0.716,2548.05,-55.281,34.579,145.925,0.167,0.303,-0.938,0.618,-0.423,0.662,10.474,10.305,4.718,-32.733,0.917,-0.052,0.396,14.703,58.885,2.656,-48.672,none
5.906930,0.325,0.414,-0.851,2812.08,-0.112,0.112,0.112,-0.463,-0.885,0.047,0.432,-0.179,-0.884,2609.41,-0.112,3.917,-9.064,-0.097,0.116,0.988,-0.915,0.299,-0.272,1827.76,26.074,26.074,-77.998,0.067,-0.576,-0.815,-0.622,0.317,0.716,2548.05,-55.281,34.579,145.925,0.167,0.303,-0.938,0.542,-0.288,0.789,11.256,4.366,3.145,-31.603,0.865,0.074,0.497,15.727,35.908,-3.130,-41.405,none
5.927067,0.325,0.414,-0.851,2812.08,-0.112,0.112,0.112,-0.463,-0.885,0.047,0.432,-0.179,-0.884,2609.41,-0.112,3.917,-9.064,-0.097,0.116,0.988,-0.915,0.299,-0.272,1827.76,26.074,26.074,-77.998,0.067,-0.576,-0.815,-0.622,0.317,0.716,2548.05,-55.281,34.579,145.925,0.167,0.303,-0.938,0.598,-0.329,0.731,11.044,-6.809,3.313,-31.450,0.900,0.029,0.436,15.700,2.977,-5.053,-30.137,none
5.947452,0.325,0.414,-0.851,2812.08,-0.112,0.112,0.112,-0.463,-0.885,0.047,0.432,-0.179,-0.884,2609.41,-0.112,3.917,-9.064,-0.097,0.116,0.988,-0.915,0.299,-0.272,1827.76,26.074,26.074,-77.998,0.067,-0.576,-0.815,-0.622,0.317,0.716,2548.05,-55.281,34.579,145.925,0.167,0.303,-0.938,0.595,-0.307,0.743,11.189,-7.939,6.458,-30.733,0.905,0.029,0.424,15.329,-12.000,-4.412,-24.672,none
5.966992,0.325,0.414,-0.851,2812.08,-0.112,0.112,0.112,-0.463,-0.885,0.047,0.432,-0.179,-0.884,2609.41,-0.112,3.917,-9.064,-0.097,0.116,0.988,-0.915,0.299,-0.272,1827.76,26.074,26.074,-77.998,0.067,-0.576,-0.815,-0.622,0.317,0.716,2548.05,-55.281,34.579,145.925,0.167,0.303,-0.938,0.565,-0.336,0.754,10.704,-15.756,1.969,-33.939,0.899,0.015,0.438,15.183,-24.763,-6.214,-19.359,none
5.986987,0.325,0.414,-0.851,2812.08,-0.112,0.112,0.112,-0.463,-0.885,0.047,0.432,-0.179,-0.884,2609.41,-0.112,3.917,-9.064,-0.097,0.116,0.988,-0.915,0.299,-0.272,1827.76,26.074,26.074,-77.998,0.067,-0.576,-0.815,-0.622,0.317,0.716,2548.05,-55.281,34.579,145.925,0.167,0.303,-0.938,0.585,-0.274,0.763,11.386,-25.893,2.962,-38.290,0.891,0.053,0.451,15.695,-48.046,-8.137,-13.084,none
6.007010,0.325,0.414,-0.851,2812.08,-0.112,0.112,0.112,-0.463,-0.885,0.047,0.432,-0.179,-0.884,2609.41,-0.112,3.917,-9.064,-0.097,0.116,0.988,-0.915,0.299,-0.272,1827.76,26.074,26.074,-77.998,0.067,-0.576,-0.815,-0.622,0.317,0.716,2548.05,-55.281,34.579,145.925,0.167,0.303,-0.938,0.566,-0.296,0.770,11.050,-40.595,4.718,-39.115,0.896,0.021,0.444,15.319,-73.802,-9.695,-2.962,none
6.027781,0.325,0.414,-0.851,2812.08,-0.112,0.112,0.112,-0.463,-0.885,0.047,0.432,-0.179,-0.884,2609.41,-0.112,3.917,-9.064,-0.097,0.116,0.988,-0.915,0.299,-0.272,1827.76,26.074,26.074,-77.998,0.067,-0.576,-0.815,-0.622,0.317,0.716,2548.05,-55.281,34.579,145.925,0.167,0.303,-0.938,0.485,-0.155,0.861,12.011,-72.580,13.511,-48.641,0.886,0.045,0.461,15.031,-97.389,-10.046,1.069,none
6.048426,0.325,0.414,-0.851,2812.08,-0.112,0.112,0.112,-0.463,-0.885,0.047,0.432,-0.179,-0.884,2609.41,-0.112,3.917,-9.064,-0.097,0.116,0.988,-0.915,0.299,-0.272,1827.76,26.074,26.074,-77.998,0.067,-0.576,-0.815,-0.622,0.317,0.716,2548.05,-55.281,34.579,145.925,0.167,0.303,-0.938,0.585,-0.214,0.782,10.845,-113.542,17.191,-68.443,0.911,0.020,0.412,14.347,-117.695,-9.832,-7.634,none
6.067527,0.325,0.414,-0.851,2812.08,-0.112,0.112,0.112,-0.463,-0.885,0.047,0.432,-0.179,-0.884,2609.41,-0.112,3.917,-9.064,-0.097,0.116,0.988,-0.915,0.299,-0.272,1827.76,26.074,26.074,-77.998,0.067,-0.576,-0.815,-0.622,0.317,0.716,2548.05,-55.281,34.579,145.925,0.167,0.303,-0.938,0.710,-0.432,0.556,9.773,-96.916,23.008,-81.725,0.951,-0.106,0.291,13.958,-89.817,-2.718,-34.672,none
6.087782,0.325,0.414,-0.851,2812.08,-0.112,0.112,0.112,-0.463,-0.885,0.047,0.432,-0.179,-0.884,2609.41,-0.112,3.917,-9.064,-0.097,0.116,0.988,-0.915,0.299,-0.272,1827.76,26.074,26.074,-77.998,0.067,-0.576,-0.815,-0.622,0.317,0.716,2548.05,-55.281,34.579,145.925,0.167,0.303,-0.938,0.710,-0.422,0.564,10.332,-52.168,35.450,-82.611,0.940,-0.081,0.331,14.534,-59.466,10.015,-56.397,none
6.107922,0.325,0.414,-0.851,2812.08,-0.112,0.112,0.112,-0.463,-0.885,0.047,0.432,-0.179,-0.884,2609.41,-0.112,3.917,-9.064,-0.097,0.116,0.988,-0.915,0.299,-0.272,1827.76,26.074,26.074,-77.998,0.067,-0.576,-0.815,-0.622,0.317,0.716,2548.05,-55.281,34.579,145.925,0.167,0.303,-0.938,0.657,-0.355,0.666,10.398,-23.115,43.969,-86.198,0.925,-0.066,0.374,14.127,-46.229,18.443,-71.481,none
6.128320,0.325,0.414,-0.851,2812.08,-0.112,0.112,0.112,-0.463,-0.885,0.047,0.432,-0.179,-0.884,2609.41,-0.112,3.917,-9.064,-0.097,0.116,0.988,-0.915,0.299,-0.272,1827.76,26.074,26.074,-77.998,0.067,-0.576,-0.815,-0.622,0.317,0.716,2548.05,-55.281,34.579,145.925,0.167,0.303,-0.938,0.597,-0.291,0.748,10.525,-14.504,50.824,-92.336,0.914,-0.043,0.403,14.078,-34.733,22.046,-86.504,none
6.150787,0.325,0.414,-0.851,2812.08,-0.112,0.112,0.112,-0.463,-0.885,0.047,0.432,-0.179,-0.884,2609.41,-0.112,3.917,-9.064,-0.097,0.116,0.988,-0.915,0.299,-0.272,1827.76,26.074,26.074,-77.998,0.067,-0.576,-0.815,-0.622,0.317,0.716,2548.05,-55.281,34.579,145.925,0.167,0.303,-0.938,0.600,-0.284,0.748,10.385,-16.580,56.611,-103.985,0.904,-0.014,0.427,14.136,-29.206,24.031,-101.802,none
6.172801,0.325,0.414,-0.851,2812.08,-0.112,0.112,0.112,-0.463,-0.885,0.047,0.432,-0.179,-0.884,2609.41,-0.112,3.917,-9.064,-0.097,0.116,0.988,-0.915,0.299,-0.272,1827.76,26.074,26.074,-77.998,0.067,-0.576,-0.815,-0.622,0.317,0.716,2548.05,-55.281,34.579,145.925,0.167,0.303,-0.938,0.583,-0.193,0.789,11.100,-17.908,67.725,-120.931,0.882,0.068,0.466,14.682,-37.603,27.695,-118.794,none
6.189329,0.325,0.414,-0.851,2812.08,-0.112,0.112,0.112,-0.463,-0.885,0.047,0.432,-0.179,-0.884,2609.41,-0.112,3.917,-9.064,-0.097,0.116,0.988,-0.915,0.299,-0.272,1827.76,26.074,26.074,-77.998,0.067,-0.576,-0.815,-0.622,0.317,0.716,2548.05,-55.281,34.579,145.925,0.167,0.303,-0.938,0.575,-0.131,0.808,11.381,-32.290,85.420,-145.466,0.886,0.096,0.453,14.796,-56.275,38.092,-142.672,none
6.209405,0.325,0.414,-0.851,2812.08,-0.112,0.112,0.112,-0.463,-0.885,0.047,0.432,-0.179,-0.884,2609.41,-0.112,3.917,-9.064,-0.097,0.116,0.988,-0.915,0.299,-0.272,1827.76,26.074,26.074,-77.998,0.067,-0.576,-0.815,-0.622,0.317,0.716,2548.05,-55.281,34.579,145.925,0.167,0.303,-0.938,0.551,-0.055,0.833,11.708,-42.321,117.206,-176.015,0.889,0.092,0.448,14.196,-64.229,58.305,-178.366,none
6.229691,0.325,0.414,-0.851,2812.08,-0.112,0.112,0.112,-0.463,-0.885,0.047,0.432,-0.179,-0.884,2609.41,-0.112,3.917,-9.064,-0.097,0.116,0.988,-0.915,0.299,-0.272,1827.76,26.074,26.074,-77.998,0.067,-0.576,-0.815,-0.622,0.317,0.716,2548.05,-55.281,34.579,145.925,0.167,0.303,-0.938,0.540,0.013,0.841,11.959,-50.885,151.527,-221.389,0.838,0.166,0.519,13.920,-71.481,77.802,-231.771,none
6.250001,0.325,0.414,-0.851,2812.08,-0.112,0.112,0.112,-0.463,-0.885,0.047,0.432,-0.179,-0.884,2609.41,-0.112,3.917,-9.064,-0.097,0.116,0.988,-0.915,0.299,-0.272,1827.76,26.074,26.074,-77.998,0.067,-0.576,-0.815,-0.622,0.317,0.716,2548.05,-55.281,34.579,145.925,0.167,0.303,-0.938,0.539,0.063,0.840,12.739,-61.206,190.412,-267.450,0.800,0.260,0.541,14.953,-98.275,96.076,-287.099,none
6.270401,0.325,0.414,-0.851,2812.08,-0.112,0.112,0.112,-0.463,-0.885,0.047,0.432,-0.179,-0.884,2609.41,-0.112,3.917,-9.064,-0.097,0.116,0.988,-0.915,0.299,-0.272,1827.76,26.074,26.074,-77.998,0.067,-0.576,-0.815,-0.622,0.317,0.716,2548.05,-55.281,34.579,145.925,0.167,0.303,-0.938,0.570,0.036,0.821,12.802,-69.954,225.832,-304.656,0.838,0.218,0.500,14.571,-119.038,116.733,-337.649,none
6.290210,0.325,0.414,-0.851,2812.08,-0.112,0.112,0.112,-0.463,-0.885,0.047,0.432,-0.179,-0.884,2609.41,-0.112,3.917,-9.064,-0.097,0.116,0.988,-0.915,0.299,-0.272,1827.76,26.074,26.074,-77.998,0.067,-0.576,-0.815,-0.622,0.317,0.716,2548.05,-55.281,34.579,145.925,0.167,0.303,-0.938,0.641,-0.093,0.762,12.634,-72.916,259.756,-328.824,0.886,0.106,0.452,14.978,-122.275,141.237,-374.809,none
