0.003980,BNO0_UnitAccX,BNO0_UnitAccY,BNO0_UnitAccZ,BNO0_RawAccMag,BNO0_GyrX,BNO0_GyrY,BNO0_GyrZ,BNO0_MagX,BNO0_MagY,BNO0_MagZ,BNO1_UnitAccX,BNO1_UnitAccY,BNO1_UnitAccZ,BNO1_RawAccMag,BNO1_GyrX,BNO1_GyrY,BNO1_GyrZ,BNO1_MagX,BNO1_MagY,BNO1_MagZ,BNO2_UnitAccX,BNO2_UnitAccY,BNO2_UnitAccZ,BNO2_RawAccMag,BNO2_GyrX,BNO2_GyrY,BNO2_GyrZ,BNO2_MagX,BNO2_MagY,BNO2_MagZ,BNO3_UnitAccX,BNO3_UnitAccY,BNO3_UnitAccZ,BNO3_RawAccMag,BNO3_GyrX,BNO3_GyrY,BNO3_GyrZ,BNO3_MagX,BNO3_MagY,BNO3_MagZ,MPU0_UnitAccX,MPU0_UnitAccY,MPU0_UnitAccZ,MPU0_RawAccMag,MPU0_GyrX,MPU0_GyrY,MPU0_GyrZ,MPU1_UnitAccX,MPU1_UnitAccY,MPU1_UnitAccZ,MPU1_RawAccMag,MPU1_GyrX,MPU1_GyrY,MPU1_GyrZ,none
0.046369,0.003,0.444,-0.896,2488.32,-36.593,-6.379,-21.710,0.404,-0.611,0.681,0.020,0.653,-0.757,2563.79,-36.817,-0.448,-26.410,0.360,-0.729,0.582,-0.317,-0.327,-0.890,2528.34,-46.329,-7.610,0.448,0.683,0.149,0.715,-0.368,0.759,-0.538,2533.87,-1.343,-0.448,0.336,0.580,-0.111,0.807,0.943,0.259,0.208,10.852,28.824,-31.985,-3.481,0.989,0.144,0.029,11.000,10.458,-39.954,4.534,none
0.046538,0.014,0.446,-0.895,2610.65,-34.355,-6.267,-15.219,0.383,-0.590,0.711,0.016,0.685,-0.729,2572.65,-33.796,-2.798,-19.695,0.367,-0.728,0.579,-0.320,-0.278,-0.906,2409.29,-44.091,-6.938,1.679,0.690,0.152,0.708,-0.370,0.764,-0.529,2543.04,-1.343,-0.448,0.336,0.580,-0.111,0.807,0.945,0.260,0.198,10.854,21.206,-24.534,-1.725,0.989,0.147,0.022,11.030,4.885,-31.664,4.947,none
0.056751,0.014,0.454,-0.891,2610.27,-25.291,-6.714,-11.191,0.400,-0.615,0.680,0.016,0.691,-0.723,2591.86,-22.717,-2.238,-16.226,0.367,-0.728,0.579,-0.307,-0.273,-0.912,2449.67,-33.796,-5.707,1.007,0.710,0.131,0.691,-0.363,0.769,-0.526,2537.70,-1.343,-0.448,0.336,0.580,-0.111,0.807,0.952,0.252,0.172,10.621,15.878,-19.817,0.214,0.990,0.140,-0.004,10.924,1.725,-26.168,5.847,none
0.081537,0.014,0.463,-0.886,2624.01,-20.031,-7.162,-10.295,0.425,-0.586,0.690,0.024,0.687,-0.726,2633.57,-21.486,-5.260,-14.548,0.398,-0.750,0.528,-0.298,-0.300,-0.906,2560.76,-25.962,-6.379,0.783,0.690,0.142,0.710,-0.367,0.762,-0.533,2482.82,-1.343,-0.448,0.336,0.580,-0.111,0.807,0.959,0.253,0.129,10.142,15.298,-22.870,2.962,0.991,0.135,-0.025,10.656,1.847,-29.527,8.962,none
0.498049,0.007,0.472,-0.882,2551.07,-21.374,-10.631,-11.414,0.417,-0.636,0.650,0.023,0.681,-0.731,2641.30,-22.941,-7.722,-16.226,0.403,-0.736,0.544,-0.296,-0.301,-0.907,2645.82,-29.655,-9.400,6.938,0.689,0.119,0.715,-0.372,0.771,-0.518,2481.34,-1.343,-0.448,0.336,0.580,-0.111,0.807,0.960,0.250,0.123,10.227,17.221,-28.809,3.344,0.991,0.131,-0.037,10.648,2.122,-33.847,10.183,none
0.498610,-0.005,0.487,-0.873,2551.31,-25.067,-13.093,-11.750,0.434,-0.627,0.648,0.009,0.704,-0.710,2570.46,-26.074,-12.422,-16.786,0.411,-0.739,0.534,-0.300,-0.235,-0.924,2509.48,-33.907,-10.743,11.526,0.705,0.096,0.703,-0.372,0.782,-0.501,2507.04,-1.343,-0.448,0.336,0.580,-0.111,0.807,0.959,0.253,0.125,10.437,16.031,-26.931,3.786,0.991,0.126,-0.052,10.692,0.290,-30.336,10.183,none
0.498783,-0.028,0.515,-0.857,2510.20,-22.605,-13.205,-10.295,0.456,-0.612,0.646,-0.026,0.731,-0.682,2503.42,-24.619,-11.750,-16.003,0.390,-0.752,0.531,-0.348,-0.241,-0.906,2443.29,-29.096,-11.079,9.176,0.710,0.105,0.696,-0.373,0.790,-0.487,2519.65,-1.343,-0.448,0.336,0.580,-0.111,0.807,0.963,0.248,0.103,10.083,13.496,-22.443,3.145,0.991,0.115,-0.064,10.420,-1.267,-26.977,8.244,none
0.498879,-0.041,0.505,-0.862,2459.56,-20.143,-11.079,-8.617,0.444,-0.623,0.644,-0.034,0.713,-0.700,2494.82,-19.584,-9.624,-12.869,0.406,-0.739,0.538,-0.353,-0.200,-0.914,2410.34,-28.312,-7.610,10.183,0.707,0.098,0.700,-0.389,0.805,-0.448,2472.91,-1.343,-0.448,0.336,0.580,-0.111,0.807,0.970,0.231,0.072,10.137,13.053,-21.344,1.939,0.991,0.096,-0.091,10.551,-3.145,-24.489,6.565,none
0.498962,-0.060,0.537,-0.841,2496.09,-17.793,-9.848,-5.148,0.448,-0.611,0.653,-0.070,0.752,-0.656,2498.04,-20.031,-10.967,-9.400,0.404,-0.780,0.478,-0.362,-0.155,-0.919,2352.87,-24.284,-4.476,9.736,0.712,0.067,0.699,-0.389,0.809,-0.440,2472.54,-1.343,-0.448,0.336,0.580,-0.111,0.807,0.970,0.232,0.075,10.219,11.527,-16.351,2.244,0.991,0.087,-0.106,10.594,-3.817,-19.710,5.985,none
0.499037,-0.067,0.550,-0.832,2510.74,-14.100,-8.617,-4.364,0.430,-0.662,0.614,-0.071,0.754,-0.653,2464.76,-14.100,-8.393,-7.498,0.431,-0.744,0.510,-0.354,-0.152,-0.923,2407.22,-15.891,-2.910,7.610,0.707,0.100,0.700,-0.389,0.823,-0.413,2467.57,-1.343,-0.448,0.336,0.580,-0.111,0.807,0.972,0.224,0.066,10.092,7.145,-10.290,2.672,0.991,0.087,-0.106,10.449,-5.115,-15.145,5.405,none
0.499118,-0.073,0.544,-0.836,2467.04,-9.400,-7.498,-3.357,0.471,-0.600,0.647,-0.066,0.745,-0.664,2482.26,-9.736,-6.491,-5.707,0.422,-0.771,0.476,-0.332,-0.161,-0.929,2442.84,-10.072,-1.679,6.714,0.718,0.073,0.692,-0.400,0.807,-0.435,2455.50,-1.343,-0.448,0.336,0.580,-0.111,0.807,0.975,0.218,0.050,9.865,7.618,-7.969,1.420,0.990,0.082,-0.113,10.412,-4.794,-12.885,4.122,none
0.499200,-0.065,0.537,-0.841,2463.80,-6.267,-4.700,-3.469,0.456,-0.629,0.630,-0.061,0.741,-0.669,2508.37,-7.050,-3.917,-4.700,0.431,-0.751,0.501,-0.344,-0.210,-0.915,2534.57,-7.274,-2.798,0.783,0.712,0.071,0.699,-0.393,0.805,-0.444,2472.35,-1.343,-0.448,0.336,0.580,-0.111,0.807,0.974,0.225,0.038,10.047,10.611,-9.527,0.137,0.989,0.088,-0.116,10.606,-2.885,-15.420,3.069,none
0.499760,-0.050,0.549,-0.835,2588.22,-9.512,-4.141,-3.693,0.458,-0.624,0.633,-0.037,0.745,-0.667,2576.01,-10.743,-3.133,-4.812,0.430,-0.771,0.469,-0.324,-0.188,-0.927,2565.64,-9.624,-2.574,2.238,0.699,0.079,0.711,-0.394,0.803,-0.446,2439.48,-1.343,-0.448,0.336,0.580,-0.111,0.807,0.976,0.215,-0.013,9.984,14.198,-14.412,2.153,0.984,0.082,-0.157,10.709,0.809,-20.382,6.214,none
0.499848,-0.046,0.560,-0.827,2587.20,-12.645,-6.602,-9.176,0.456,-0.654,0.603,-0.025,0.753,-0.658,2639.36,-18.688,-3.805,-9.400,0.436,-0.776,0.456,-0.292,-0.213,-0.932,2678.17,-14.100,-5.595,2.574,0.718,0.055,0.693,-0.380,0.799,-0.467,2455.56,-1.343,-0.448,0.336,0.580,-0.111,0.807,0.974,0.224,-0.036,9.707,22.519,-22.443,4.168,0.982,0.083,-0.169,10.451,7.130,-30.000,9.771,none
0.499936,-0.051,0.559,-0.827,2539.19,-24.060,-10.072,-16.450,0.489,-0.594,0.639,-0.010,0.738,-0.674,2677.17,-27.081,-4.588,-20.255,0.431,-0.762,0.483,-0.285,-0.251,-0.925,2816.11,-33.796,-10.631,2.462,0.721,0.041,0.692,-0.383,0.797,-0.466,2458.99,-1.343,-0.448,0.336,0.580,-0.111,0.807,0.973,0.221,-0.062,9.649,39.389,-42.244,2.611,0.982,0.088,-0.165,10.472,18.046,-50.260,12.031,none
0.500010,-0.047,0.551,-0.833,2558.06,-40.622,-12.422,-24.507,0.481,-0.640,0.599,-0.021,0.748,-0.664,2615.87,-41.965,-7.610,-30.215,0.428,-0.790,0.439,-0.293,-0.226,-0.929,2741.32,-53.491,-15.107,6.155,0.722,0.038,0.691,-0.382,0.803,-0.458,2465.41,-1.343,-0.448,0.336,0.580,-0.111,0.807,0.975,0.219,-0.041,10.257,49.221,-55.023,2.962,0.983,0.087,-0.161,10.917,23.160,-61.786,14.473,none
0.500082,-0.032,0.570,-0.821,2798.49,-58.303,-18.688,-34.691,0.496,-0.648,0.578,-0.003,0.756,-0.655,2784.57,-58.527,-8.281,-40.174,0.473,-0.774,0.420,-0.294,-0.233,-0.927,2788.81,-61.212,-18.800,4.252,0.724,0.055,0.687,-0.369,0.826,-0.425,2445.33,-1.343,-0.448,0.336,0.580,-0.111,0.807,0.971,0.233,-0.051,10.136,60.412,-66.427,10.962,0.984,0.100,-0.146,11.357,28.779,-73.939,26.168,none
0.500153,-0.063,0.547,-0.835,2526.77,-60.877,-26.969,-41.629,0.506,-0.661,0.554,-0.030,0.763,-0.646,2808.85,-64.346,-16.114,-49.350,0.466,-0.770,0.436,-0.377,-0.110,-0.920,2416.84,-75.201,-28.088,14.772,0.734,0.009,0.679,-0.369,0.848,-0.381,2523.38,-1.343,-0.448,0.336,0.580,-0.111,0.807,0.963,0.264,0.050,10.682,55.863,-73.618,8.534,0.987,0.100,-0.129,10.535,22.351,-70.626,27.145,none
0.500223,-0.122,0.592,-0.796,2428.72,-56.736,-27.081,-31.222,0.537,-0.661,0.523,-0.176,0.802,-0.571,2318.65,-53.043,-20.814,-41.405,0.492,-0.803,0.337,-0.414,-0.010,-0.910,2268.57,-64.905,-23.500,14.995,0.727,0.014,0.686,-0.396,0.854,-0.338,2525.92,-1.343,-0.448,0.336,0.580,-0.111,0.807,0.975,0.222,0.013,10.470,35.130,-51.176,9.389,0.984,0.058,-0.167,10.502,12.962,-54.550,20.702,none
0.500292,-0.171,0.612,-0.772,2366.59,-44.539,-21.598,-23.612,0.551,-0.693,0.464,-0.175,0.783,-0.597,2286.35,-36.146,-8.057,-25.850,0.482,-0.796,0.365,-0.452,0.044,-0.891,2185.44,-41.293,-14.100,10.407,0.744,-0.007,0.669,-0.425,0.854,-0.300,2446.58,-1.343,-0.448,0.336,0.580,-0.111,0.807,0.978,0.204,-0.047,9.604,27.145,-34.229,4.260,0.976,0.020,-0.218,9.995,3.725,-37.115,12.947,none
0.501804,-0.198,0.633,-0.748,2336.84,-31.893,-15.667,-15.331,0.538,-0.664,0.519,-0.204,0.790,-0.578,2341.07,-34.355,-6.602,-21.598,0.507,-0.798,0.325,-0.443,-0.026,-0.896,2338.40,-28.648,-10.295,8.281,0.745,-0.039,0.665,-0.424,0.860,-0.285,2406.61,-1.343,-0.448,0.336,0.580,-0.111,0.807,0.975,0.174,-0.141,9.043,22.962,-28.901,-0.931,0.969,0.002,-0.248,10.004,1.863,-33.374,8.137,none
0.501886,-0.173,0.601,-0.780,2393.28,-25.403,-11.638,-10.295,0.546,-0.695,0.468,-0.144,0.771,-0.620,2562.50,-29.655,-7.833,-14.995,0.515,-0.788,0.337,-0.439,-0.013,-0.899,2364.73,-26.410,-6.267,7.162,0.753,-0.002,0.658,-0.420,0.865,-0.274,2402.05,-1.343,-0.448,0.336,0.580,-0.111,0.807,0.973,0.163,-0.163,9.328,31.603,-39.771,-9.603,0.978,0.015,-0.208,10.246,-2.382,-32.595,7.221,none
0.501959,-0.182,0.609,-0.772,2429.62,-22.493,-14.436,-1.790,0.534,-0.709,0.461,-0.201,0.804,-0.559,2421.01,-25.067,-25.179,-9.512,0.512,-0.819,0.259,-0.462,0.008,-0.887,2373.30,-17.569,-2.126,11.079,0.743,-0.049,0.667,-0.423,0.867,-0.264,2409.55,-1.343,-0.448,0.336,0.580,-0.111,0.807,0.975,0.159,-0.154,10.016,26.351,-33.847,-6.168,0.956,-0.018,-0.293,10.446,-6.290,-33.298,6.947,none
0.521895,-0.184,0.650,-0.737,2517.06,-26.857,-16.338,0.000,0.538,-0.682,0.496,-0.141,0.795,-0.591,2624.24,-28.536,-27.641,-7.610,0.547,-0.788,0.285,-0.400,-0.090,-0.912,2619.10,-21.150,-2.910,14.324,0.735,-0.033,0.677,-0.425,0.867,-0.259,2351.86,-1.343,-0.448,0.336,0.580,-0.111,0.807,0.913,0.091,-0.399,9.060,40.214,-50.977,-4.229,0.933,-0.034,-0.357,10.500,2.305,-51.008,12.962,none
0.543410,-0.174,0.663,-0.728,2601.62,-40.398,-22.493,-10.072,0.565,-0.711,0.419,-0.140,0.818,-0.558,2706.45,-43.643,-38.272,-18.353,0.543,-0.800,0.254,-0.338,-0.098,-0.936,2834.58,-42.860,-14.548,18.353,0.740,-0.034,0.671,-0.418,0.865,-0.277,2299.87,-1.343,-0.448,0.336,0.580,-0.111,0.807,0.887,0.119,-0.447,8.987,66.061,-87.893,-6.947,0.928,-0.026,-0.371,10.507,7.405,-78.137,27.603,none
0.563252,-0.160,0.606,-0.779,2408.33,-58.527,-33.907,-20.703,0.545,-0.730,0.412,-0.110,0.787,-0.606,2734.04,-62.443,-47.224,-37.153,0.529,-0.805,0.270,-0.287,-0.081,-0.955,3036.12,-73.634,-21.374,15.667,0.750,-0.061,0.659,-0.432,0.868,-0.247,2180.75,-1.343,-0.448,0.336,0.580,-0.111,0.807,0.842,0.119,-0.527,9.988,87.542,-132.458,-6.015,0.848,-0.068,-0.525,10.173,24.122,-127.008,34.473,none
0.584001,-0.210,0.743,-0.636,2533.08,-110.115,-55.170,-29.991,0.563,-0.752,0.343,-0.108,0.816,-0.568,2868.34,-110.227,-72.067,-64.570,0.546,-0.814,0.196,-0.315,-0.182,-0.931,3133.19,-138.204,-44.986,28.760,0.760,-0.091,0.643,-0.338,0.915,-0.222,2293.98,-1.343,-0.448,0.336,0.580,-0.111,0.807,0.934,0.256,-0.248,10.282,76.305,-156.855,3.740,0.950,0.037,-0.311,10.837,23.908,-161.038,43.740,none
1.006027,-0.137,0.619,-0.773,2514.44,-131.377,-66.920,-40.958,0.571,-0.751,0.331,-0.176,0.845,-0.505,2489.22,-135.518,-104.856,-93.553,0.584,-0.803,0.119,-0.384,-0.020,-0.923,2575.58,-184.868,-55.505,45.322,0.757,-0.097,0.646,-0.373,0.921,-0.108,2629.44,-1.343,-0.448,0.336,0.580,-0.111,0.807,0.875,0.210,-0.435,9.091,67.496,-180.214,-6.122,0.935,0.019,-0.355,10.787,13.084,-166.366,47.634,none
1.008599,-0.202,0.723,-0.661,2437.63,-142.680,-83.034,-30.215,0.568,-0.791,0.226,-0.294,0.867,-0.402,2224.01,-133.504,-104.856,-91.315,0.594,-0.804,-0.011,-0.448,0.046,-0.893,2290.85,-177.259,-53.827,49.910,0.773,-0.148,0.617,-0.384,0.917,-0.106,2501.24,-1.343,-0.448,0.336,0.580,-0.111,0.807,0.933,0.233,-0.274,11.103,67.160,-181.771,-11.023,0.917,-0.004,-0.398,10.372,6.504,-159.450,44.687,none
1.008685,-0.222,0.709,-0.670,2347.89,-134.063,-79.229,-24.284,0.590,-0.786,0.187,-0.379,0.848,-0.371,2113.17,-126.118,-92.434,-71.172,0.630,-0.776,0.023,-0.567,0.247,-0.786,2017.73,-174.797,-51.924,55.617,0.789,-0.205,0.579,-0.354,0.931,-0.086,2518.20,-1.343,-0.448,0.336,0.580,-0.111,0.807,0.855,0.301,-0.421,7.747,39.573,-153.160,-14.977,0.960,0.044,-0.275,10.244,-19.176,-141.878,48.443,none
1.008761,-0.170,0.624,-0.762,2320.39,-120.858,-89.972,-6.826,0.592,-0.797,0.118,-0.339,0.851,-0.401,2276.75,-122.649,-98.701,-63.227,0.619,-0.777,-0.109,-0.454,0.271,-0.849,2306.06,-157.675,-39.391,54.946,0.788,-0.223,0.574,-0.385,0.922,-0.049,2393.83,-1.343,-0.448,0.336,0.580,-0.111,0.807,0.685,0.095,-0.722,10.261,50.901,-194.718,-48.641,0.726,-0.111,-0.678,8.795,-34.809,-135.985,42.397,none
1.008857,-0.395,0.845,-0.360,1968.58,-109.892,-100.827,14.548,0.569,-0.818,0.078,-0.431,0.852,-0.298,2043.32,-107.206,-108.213,-53.715,0.617,-0.762,-0.195,-0.521,0.088,-0.849,2328.09,-145.142,-46.217,58.415,0.783,-0.255,0.568,-0.361,0.933,0.008,2448.83,-1.343,-0.448,0.336,0.580,-0.111,0.807,0.842,0.224,-0.491,10.547,65.725,-162.885,-47.725,0.660,-0.125,-0.741,9.783,-19.420,-161.023,14.214,none
1.008942,-0.387,0.898,-0.209,2311.34,-140.554,-70.613,25.962,0.540,-0.839,-0.060,-0.450,0.889,-0.087,2367.62,-136.189,-107.206,-39.950,0.654,-0.724,-0.222,-0.525,0.246,-0.815,2220.93,-176.028,-39.391,74.529,0.812,-0.296,0.503,-0.307,0.950,0.057,2559.78,-1.343,-0.448,0.336,0.580,-0.111,0.807,0.776,0.237,-0.584,9.447,50.397,-136.886,-53.740,0.841,-0.008,-0.541,10.928,-27.450,-131.863,5.618,none
1.009017,-0.239,0.864,-0.443,2596.62,-93.329,-45.434,42.188,0.507,-0.851,-0.135,-0.475,0.874,0.107,2555.92,-85.608,-93.777,-19.248,0.601,-0.680,-0.420,-0.501,0.791,-0.351,2364.26,-115.039,-26.074,56.401,0.799,-0.340,0.495,-0.315,0.937,0.152,2773.05,-1.343,-0.448,0.336,0.580,-0.111,0.807,0.926,0.364,-0.103,11.619,-0.763,-74.977,-36.275,0.893,0.036,-0.449,11.778,-54.305,-74.687,-3.939,none
1.009088,-0.253,0.909,-0.333,2955.25,-37.712,-39.279,60.429,0.474,-0.864,-0.172,-0.475,0.870,0.134,2699.57,-19.248,-76.767,12.198,0.596,-0.657,-0.462,-0.392,0.826,-0.406,2622.25,-10.967,-1.343,44.091,0.798,-0.360,0.483,-0.315,0.936,0.155,2649.65,-1.343,-0.448,0.336,0.580,-0.111,0.807,0.853,0.233,-0.467,11.107,-63.405,-0.947,-7.847,0.813,-0.011,-0.582,12.620,-78.519,14.244,3.893,none
1.009736,-0.268,0.927,-0.262,3044.73,49.462,-16.450,52.708,0.456,-0.871,-0.184,-0.461,0.874,0.153,2822.14,47.112,-31.334,35.698,0.618,-0.689,-0.377,-0.414,0.723,-0.554,2507.04,65.913,9.176,20.143,0.795,-0.353,0.494,-0.272,0.956,0.113,2596.20,-1.343,-0.448,0.336,0.580,-0.111,0.807,0.731,0.194,-0.654,10.788,-67.588,42.000,6.748,0.661,-0.072,-0.747,12.307,-59.969,52.641,0.412,none
1.009827,-0.312,0.932,-0.185,2774.48,66.360,-1.007,36.705,0.447,-0.881,-0.154,-0.457,0.885,0.094,2700.49,62.332,-3.245,37.824,0.572,-0.727,-0.380,-0.373,0.516,-0.771,2600.76,72.403,11.974,14.100,0.781,-0.356,0.513,-0.282,0.950,0.130,2570.26,-1.343,-0.448,0.336,0.580,-0.111,0.807,0.546,0.104,-0.831,11.182,-54.901,49.878,8.870,0.556,-0.106,-0.824,12.181,-36.901,45.435,-5.145,none
1.009903,-0.292,0.924,-0.246,2596.66,50.581,11.302,18.576,0.437,-0.889,-0.133,-0.416,0.907,-0.063,2491.51,16.898,13.429,16.674,0.575,-0.722,-0.384,-0.370,0.263,-0.891,2858.58,27.641,7.945,2.686,0.776,-0.354,0.522,-0.308,0.941,0.138,2355.24,-1.343,-0.448,0.336,0.580,-0.111,0.807,0.472,0.115,-0.874,10.696,-3.145,14.473,-4.260,0.596,-0.067,-0.800,10.958,-1.740,1.191,-13.008,none
1.009976,-0.260,0.909,-0.326,2499.81,6.602,15.331,1.455,0.431,-0.884,-0.183,-0.396,0.915,-0.073,2566.53,-16.114,0.000,5.483,0.569,-0.731,-0.377,-0.421,0.491,-0.763,2553.15,-19.024,0.224,7.945,0.762,-0.360,0.538,-0.266,0.959,0.094,2504.90,-1.343,-0.448,0.336,0.580,-0.111,0.807,0.713,0.233,-0.661,9.620,21.328,-0.565,-10.840,0.744,-0.019,-0.668,11.134,16.046,-20.076,-21.099,none
1.010047,-0.241,0.886,-0.397,2576.12,-8.281,16.450,-2.798,0.410,-0.902,-0.134,-0.398,0.913,-0.093,2531.89,-23.948,-3.581,1.902,0.553,-0.722,-0.415,-0.417,0.547,-0.726,2508.36,-18.688,3.133,5.148,0.769,-0.372,0.520,-0.294,0.949,0.110,2498.45,-1.343,-0.448,0.336,0.580,-0.111,0.807,0.765,0.278,-0.581,9.373,19.237,-2.076,-11.115,0.817,0.022,-0.577,10.722,10.168,-13.664,-17.221,none
1.010117,-0.220,0.851,-0.476,2415.94,-17.122,6.826,-0.448,0.432,-0.891,-0.140,-0.422,0.906,-0.027,2592.60,-16.674,-2.686,2.350,0.547,-0.721,-0.426,-0.436,0.448,-0.780,2534.22,-12.310,4.924,0.560,0.774,-0.371,0.513,-0.302,0.946,0.119,2468.54,-1.343,-0.448,0.336,0.580,-0.111,0.807,0.805,0.328,-0.494,9.283,-12.061,-2.687,-8.443,0.811,0.029,-0.585,10.310,-12.214,-9.023,-6.260,none
1.010192,-0.230,0.875,-0.427,2396.10,-18.576,3.917,5.260,0.424,-0.898,-0.118,-0.422,0.900,-0.109,2339.27,-6.267,3.469,3.805,0.550,-0.725,-0.415,-0.427,0.474,-0.770,2540.66,-14.995,1.455,9.176,0.777,-0.362,0.514,-0.268,0.961,0.073,2560.62,-1.343,-0.448,0.336,0.580,-0.111,0.807,0.705,0.233,-0.670,9.854,-26.412,-2.779,-9.496,0.769,0.007,-0.639,10.628,-20.550,-4.779,-8.962,none
1.010266,-0.222,0.886,-0.408,2576.87,-13.429,4.476,12.198,0.408,-0.902,-0.144,-0.381,0.918,-0.108,2538.02,-10.183,-0.560,12.757,0.553,-0.732,-0.397,-0.444,0.508,-0.738,2467.24,-9.624,-1.343,13.317,0.769,-0.375,0.518,-0.268,0.960,0.083,2491.78,-1.343,-0.448,0.336,0.580,-0.111,0.807,0.658,0.202,-0.725,10.035,-9.634,-5.069,-11.863,0.738,-0.014,-0.675,11.255,-16.107,-7.985,-10.687,none
1.011828,-0.206,0.886,-0.415,2674.85,-7.722,3.357,12.533,0.432,-0.894,-0.122,-0.357,0.929,-0.094,2707.82,-6.379,-6.826,10.967,0.550,-0.725,-0.415,-0.399,0.530,-0.748,2549.90,-4.029,-0.224,10.519,0.765,-0.360,0.534,-0.266,0.959,0.098,2505.86,-1.343,-0.448,0.336,0.580,-0.111,0.807,0.636,0.213,-0.742,9.944,12.198,-12.748,-17.863,0.744,0.000,-0.668,11.073,-10.580,-11.679,-8.702,none
1.011924,-0.221,0.900,-0.377,2582.46,-3.133,-1.902,11.191,0.413,-0.897,-0.160,-0.370,0.927,-0.055,2691.83,-4.364,-12.198,2.686,0.528,-0.721,-0.449,-0.390,0.469,-0.792,2631.48,-5.036,-6.491,6.826,0.765,-0.372,0.526,-0.263,0.959,0.108,2456.59,-1.343,-0.448,0.336,0.580,-0.111,0.807,0.757,0.375,-0.535,9.054,0.443,-13.038,-19.069,0.787,0.053,-0.614,10.123,-18.168,-14.198,-5.725,none
1.015186,-0.206,0.883,-0.421,2383.97,5.148,-7.610,13.653,0.402,-0.909,-0.112,-0.455,0.890,-0.004,2364.09,4.029,-21.486,-3.693,0.531,-0.732,-0.428,-0.436,0.506,-0.745,2537.25,-17.122,-9.512,10.855,0.763,-0.387,0.519,-0.251,0.965,0.078,2500.11,-1.343,-0.448,0.336,0.580,-0.111,0.807,0.668,0.251,-0.700,9.749,-2.977,-27.878,-28.351,0.738,0.016,-0.674,10.324,-26.947,-12.916,-9.511,none
1.036568,-0.241,0.904,-0.352,2373.72,6.043,-2.350,22.045,0.390,-0.899,-0.198,-0.452,0.892,-0.022,2271.96,1.343,-9.064,12.310,0.517,-0.729,-0.449,-0.423,0.514,-0.746,2477.00,-4.700,-9.512,9.960,0.774,-0.389,0.500,-0.259,0.962,0.090,2497.86,-1.343,-0.448,0.336,0.580,-0.111,0.807,0.675,0.234,-0.699,10.097,7.252,-18.870,-27.389,0.690,-0.022,-0.724,11.574,-15.908,-17.130,-15.038,none
1.056561,-0.245,0.933,-0.262,2814.34,-3.357,8.952,13.317,0.401,-0.906,-0.135,-0.349,0.935,-0.062,2712.54,-16.450,-5.931,12.869,0.543,-0.701,-0.462,-0.382,0.477,-0.791,2584.75,-7.498,-8.281,6.938,0.771,-0.373,0.516,-0.273,0.955,0.113,2442.96,-1.343,-0.448,0.336,0.580,-0.111,0.807,0.652,0.235,-0.720,10.381,16.855,-12.733,-26.458,0.678,-0.011,-0.735,11.548,-2.595,-16.595,-16.107,none
1.076759,-0.221,0.923,-0.314,2631.49,-9.848,13.541,0.448,0.383,-0.919,-0.091,-0.362,0.932,-0.015,2700.62,-18.464,-9.512,0.224,0.507,-0.720,-0.473,-0.405,0.481,-0.777,2582.50,-21.262,-17.010,6.491,0.770,-0.382,0.511,-0.244,0.961,0.126,2487.96,-1.343,-0.448,0.336,0.580,-0.111,0.807,0.664,0.280,-0.693,10.110,25.328,-15.847,-24.397,0.713,0.024,-0.701,11.224,7.832,-25.756,-15.389,none
1.096291,-0.162,0.881,-0.444,2613.27,-23.165,3.805,-2.350,0.385,-0.912,-0.142,-0.351,0.930,-0.108,2534.98,-24.395,-7.274,-6.826,0.516,-0.713,-0.475,-0.447,0.513,-0.733,2521.61,-33.012,-15.443,7.610,0.771,-0.404,0.492,-0.221,0.969,0.111,2569.93,-1.343,-0.448,0.336,0.580,-0.111,0.807,0.761,0.349,-0.547,10.053,18.519,-17.084,-17.802,0.803,0.079,-0.590,11.109,5.573,-28.672,-13.084,none
1.517988,-0.183,0.898,-0.399,2585.55,-23.948,1.790,-1.119,0.392,-0.905,-0.166,-0.356,0.934,-0.038,2579.31,-24.507,-10.631,-5.931,0.514,-0.699,-0.497,-0.450,0.569,-0.688,2458.88,-36.817,-12.757,13.093,0.785,-0.415,0.461,-0.202,0.974,0.101,2628.66,-1.343,-0.448,0.336,0.580,-0.111,0.807,0.821,0.372,-0.433,10.323,-5.939,-2.550,-4.076,0.845,0.095,-0.527,11.412,-9.130,-11.481,-5.511,none
1.518644,-0.168,0.896,-0.410,2753.60,-4.700,-4.029,6.826,0.380,-0.915,-0.136,-0.371,0.928,-0.019,2635.66,-3.133,-3.245,3.805,0.516,-0.716,-0.471,-0.395,0.686,-0.611,2528.49,-1.679,-5.707,12.757,0.774,-0.416,0.478,-0.224,0.967,0.121,2585.31,-1.343,-0.448,0.336,0.580,-0.111,0.807,0.739,0.313,-0.597,10.066,-24.947,19.466,11.756,0.765,0.045,-0.642,11.349,-19.496,14.031,3.160,none
1.518743,-0.191,0.909,-0.370,2629.76,13.876,-4.029,6.602,0.399,-0.904,-0.153,-0.375,0.927,0.015,2682.49,16.003,2.014,7.945,0.512,-0.719,-0.470,-0.411,0.619,-0.669,2498.70,22.829,-1.119,2.574,0.783,-0.403,0.474,-0.221,0.968,0.122,2574.38,-1.343,-0.448,0.336,0.580,-0.111,0.807,0.668,0.308,-0.678,9.564,-25.435,28.824,12.275,0.743,0.044,-0.668,10.900,-21.649,23.786,5.008,none
1.518858,-0.194,0.913,-0.358,2638.44,37.265,-1.902,5.036,0.412,-0.899,-0.145,-0.363,0.928,-0.079,2478.23,31.222,6.155,6.714,0.531,-0.717,-0.452,-0.439,0.571,-0.694,2453.16,27.529,-1.679,-0.112,0.776,-0.394,0.492,-0.229,0.965,0.126,2489.33,-1.343,-0.448,0.336,0.580,-0.111,0.807,0.692,0.321,-0.646,9.560,-20.794,27.496,6.137,0.745,0.047,-0.666,10.626,-22.443,24.687,1.634,none
1.518939,-0.202,0.894,-0.400,2288.60,43.531,-2.462,6.267,0.378,-0.914,-0.149,-0.381,0.923,-0.056,2460.04,30.326,-1.455,7.050,0.512,-0.721,-0.467,-0.424,0.546,-0.723,2492.62,29.431,-0.224,-1.007,0.778,-0.393,0.490,-0.226,0.968,0.107,2470.70,-1.343,-0.448,0.336,0.580,-0.111,0.807,0.639,0.291,-0.712,9.458,-18.366,25.069,2.748,0.742,0.042,-0.669,10.633,-24.519,26.901,2.366,none
1.519021,-0.183,0.894,-0.408,2529.93,37.488,-5.707,14.772,0.407,-0.908,-0.100,-0.392,0.919,-0.040,2492.98,29.991,-2.350,7.610,0.508,-0.730,-0.458,-0.438,0.514,-0.737,2455.41,27.753,0.448,-1.679,0.776,-0.394,0.492,-0.242,0.966,0.093,2428.14,-1.343,-0.448,0.336,0.580,-0.111,0.807,0.669,0.316,-0.672,9.503,-10.198,17.420,-0.824,0.727,0.037,-0.686,10.598,-21.832,15.282,1.618,none
1.519097,-0.201,0.901,-0.386,2448.51,33.124,-2.462,10.407,0.387,-0.916,-0.103,-0.379,0.920,-0.100,2371.71,24.172,-5.595,7.162,0.502,-0.739,-0.449,-0.445,0.441,-0.780,2509.69,25.067,1.679,-2.014,0.769,-0.375,0.518,-0.239,0.967,0.093,2425.97,-1.343,-0.448,0.336,0.580,-0.111,0.807,0.692,0.323,-0.645,9.537,-13.023,12.718,-1.939,0.753,0.048,-0.656,10.521,-24.656,7.969,4.870,none
1.519169,-0.206,0.895,-0.396,2386.57,19.695,-6.714,9.848,0.380,-0.921,-0.085,-0.392,0.919,-0.040,2492.98,7.050,-1.119,7.274,0.514,-0.749,-0.418,-0.423,0.451,-0.786,2541.03,10.631,3.693,0.671,0.784,-0.369,0.498,-0.240,0.968,0.072,2451.16,-1.343,-0.448,0.336,0.580,-0.111,0.807,0.691,0.301,-0.658,9.735,-11.466,11.740,-2.626,0.734,0.031,-0.678,10.761,-23.176,2.901,4.244,none
1.519239,-0.196,0.896,-0.399,2613.98,12.757,-2.462,7.162,0.387,-0.916,-0.103,-0.333,0.934,-0.132,2611.34,2.798,0.671,4.924,0.524,-0.728,-0.443,-0.426,0.449,-0.785,2528.33,2.462,-0.112,1.902,0.770,-0.393,0.504,-0.237,0.969,0.064,2446.69,-1.343,-0.448,0.336,0.580,-0.111,0.807,0.674,0.290,-0.679,9.860,-1.420,6.458,-4.336,0.736,0.037,-0.676,10.852,-17.450,-6.992,2.870,none
1.520200,-0.185,0.887,-0.424,2552.15,3.021,-12.422,3.917,0.414,-0.906,-0.087,-0.349,0.925,-0.150,2549.88,-9.736,-15.331,-3.021,0.516,-0.746,-0.422,-0.437,0.484,-0.758,2506.23,-9.624,-7.162,5.931,0.774,-0.396,0.494,-0.228,0.972,0.058,2542.18,-1.343,-0.448,0.336,0.580,-0.111,0.807,0.755,0.330,-0.566,10.067,6.244,0.885,-1.924,0.788,0.055,-0.614,11.234,-9.573,-10.550,-0.427,none
1.520294,-0.179,0.880,-0.440,2593.46,-3.021,-7.386,0.336,0.403,-0.910,-0.095,-0.383,0.924,-0.015,2680.84,-11.414,-15.891,-2.462,0.510,-0.730,-0.455,-0.425,0.582,-0.694,2508.94,-10.407,-7.386,9.288,0.774,-0.389,0.500,-0.231,0.971,0.065,2586.62,-1.343,-0.448,0.336,0.580,-0.111,0.807,0.749,0.355,-0.560,9.803,3.374,6.015,0.763,0.788,0.062,-0.612,11.202,-6.580,-1.924,-0.809,none
1.520372,-0.184,0.887,-0.423,2628.78,4.476,-3.021,-0.448,0.356,-0.927,-0.118,-0.396,0.918,0.007,2590.36,6.379,-3.805,-3.021,0.516,-0.713,-0.475,-0.426,0.571,-0.702,2523.45,1.343,-4.252,3.469,0.766,-0.388,0.513,-0.225,0.973,0.058,2530.20,-1.343,-0.448,0.336,0.580,-0.111,0.807,0.724,0.352,-0.593,9.626,-2.901,10.550,2.000,0.777,0.066,-0.626,10.805,-8.794,3.191,0.641,none
1.520443,-0.187,0.888,-0.420,2527.27,11.974,-1.455,-1.567,0.403,-0.911,-0.091,-0.395,0.918,-0.044,2452.69,8.952,5.707,0.112,0.510,-0.739,-0.441,-0.436,0.518,-0.736,2513.01,2.910,0.448,1.231,0.770,-0.393,0.504,-0.230,0.971,0.062,2515.58,-1.343,-0.448,0.336,0.580,-0.111,0.807,0.732,0.341,-0.590,9.644,-6.656,9.954,1.420,0.771,0.057,-0.634,10.733,-10.763,4.046,0.534,none
1.520519,-0.201,0.887,-0.417,2452.11,11.302,2.014,1.119,0.386,-0.914,-0.127,-0.376,0.923,-0.075,2491.87,7.610,10.183,3.917,0.495,-0.733,-0.467,-0.427,0.533,-0.730,2517.34,4.476,2.126,0.671,0.770,-0.393,0.504,-0.236,0.969,0.073,2530.71,-1.343,-0.448,0.336,0.580,-0.111,0.807,0.720,0.321,-0.616,9.764,-6.870,12.977,1.344,0.762,0.051,-0.646,10.780,-11.084,3.817,-1.695,none
1.520593,-0.177,0.872,-0.456,2563.07,10.743,4.252,2.798,0.371,-0.920,-0.127,-0.343,0.930,-0.130,2566.81,7.833,9.288,5.260,0.500,-0.755,-0.424,-0.414,0.502,-0.759,2553.27,6.379,1.902,-1.119,0.760,-0.399,0.513,-0.233,0.970,0.075,2487.48,-1.343,-0.448,0.336,0.580,-0.111,0.807,0.719,0.319,-0.618,9.864,-1.634,9.924,1.084,0.766,0.054,-0.640,11.003,-9.298,0.382,-1.145,none
1.520663,-0.177,0.876,-0.449,2562.76,9.400,1.343,2.126,0.362,-0.926,-0.105,-0.356,0.928,-0.108,2552.27,6.043,1.119,1.679,0.520,-0.730,-0.443,-0.430,0.508,-0.747,2527.85,4.812,-0.560,-0.224,0.760,-0.400,0.513,-0.230,0.971,0.066,2516.22,-1.343,-0.448,0.336,0.580,-0.111,0.807,0.728,0.328,-0.601,9.880,2.458,6.901,1.649,0.782,0.061,-0.620,10.979,-7.099,-1.344,-0.687,none
1.520731,-0.184,0.878,-0.442,2576.81,7.498,-0.448,0.783,0.383,-0.922,-0.061,-0.363,0.926,-0.100,2557.39,3.805,-0.112,0.671,0.506,-0.745,-0.435,-0.435,0.513,-0.741,2522.40,4.812,-0.448,0.112,0.763,-0.404,0.505,-0.230,0.972,0.054,2514.41,-1.343,-0.448,0.336,0.580,-0.111,0.807,0.747,0.339,-0.572,9.831,1.481,6.626,3.924,0.783,0.062,-0.618,10.888,-6.916,-1.328,0.198,none
1.521940,-0.181,0.870,-0.458,2556.15,1.455,-1.007,1.119,0.369,-0.926,-0.083,-0.380,0.921,-0.090,2497.96,4.476,-0.671,0.560,0.505,-0.741,-0.443,-0.442,0.513,-0.735,2499.51,5.148,0.783,0.783,0.771,-0.401,0.494,-0.238,0.970,0.051,2507.66,-1.343,-0.448,0.336,0.580,-0.111,0.807,0.770,0.362,-0.525,9.777,-2.824,7.603,6.351,0.798,0.066,-0.599,10.918,-8.214,-0.763,1.084,none
1.522045,-0.189,0.872,-0.451,2550.77,0.671,-1.679,1.902,0.373,-0.921,-0.114,-0.380,0.921,-0.082,2518.45,3.469,2.014,3.245,0.496,-0.740,-0.454,-0.425,0.502,-0.753,2533.53,4.924,1.567,0.671,0.770,-0.384,0.509,-0.245,0.968,0.047,2521.75,-1.343,-0.448,0.336,0.580,-0.111,0.807,0.718,0.326,-0.615,9.595,-4.076,6.626,3.710,0.777,0.054,-0.627,10.812,-9.679,1.450,1.725,none
1.536348,-0.191,0.872,-0.451,2527.94,4.812,-1.007,1.567,0.381,-0.923,-0.063,-0.345,0.928,-0.141,2574.76,4.812,2.798,2.910,0.510,-0.737,-0.443,-0.436,0.475,-0.765,2536.25,4.924,0.336,0.112,0.761,-0.383,0.523,-0.241,0.970,0.039,2518.46,-1.343,-0.448,0.336,0.580,-0.111,0.807,0.752,0.342,-0.564,9.831,1.344,3.252,0.702,0.794,0.062,-0.605,10.846,-6.931,-1.664,0.031,none
1.556581,-0.171,0.862,-0.477,2593.09,1.679,-0.560,1.231,0.366,-0.926,-0.090,-0.357,0.927,-0.116,2544.30,3.133,0.895,1.567,0.514,-0.749,-0.418,-0.439,0.490,-0.753,2520.36,3.133,0.336,1.902,0.759,-0.396,0.516,-0.237,0.971,0.043,2527.15,-1.343,-0.448,0.336,0.580,-0.111,0.807,0.766,0.346,-0.542,9.791,0.351,2.718,2.076,0.802,0.068,-0.594,10.939,-8.229,-1.649,0.901,none
1.576189,-0.173,0.866,-0.469,2556.49,4.029,-1.567,1.343,0.401,-0.912,-0.082,-0.336,0.931,-0.144,2587.37,5.371,-0.560,1.007,0.512,-0.762,-0.395,-0.425,0.487,-0.763,2513.04,4.141,0.000,2.686,0.775,-0.392,0.497,-0.235,0.970,0.055,2497.09,-1.343,-0.448,0.336,0.580,-0.111,0.807,0.744,0.329,-0.582,9.695,0.107,1.924,3.893,0.789,0.061,-0.611,10.840,-8.427,-1.481,3.466,none
1.596327,-0.174,0.862,-0.475,2543.93,5.260,-3.581,1.679,0.389,-0.919,-0.071,-0.343,0.927,-0.151,2534.05,6.267,-5.819,-1.455,0.511,-0.753,-0.415,-0.433,0.488,-0.758,2506.75,5.036,-3.245,4.476,0.756,-0.406,0.513,-0.238,0.969,0.068,2469.83,-1.343,-0.448,0.336,0.580,-0.111,0.807,0.745,0.340,-0.574,9.687,1.298,-1.389,5.405,0.785,0.065,-0.616,10.766,-9.878,-4.183,5.298,none
1.616466,-0.187,0.884,-0.428,2526.47,4.476,-7.498,1.790,0.394,-0.913,-0.105,-0.378,0.923,-0.072,2459.12,2.350,-7.162,-0.224,0.520,-0.741,-0.424,-0.426,0.533,-0.731,2478.84,3.469,-3.805,6.938,0.778,-0.406,0.480,-0.232,0.970,0.067,2496.81,-1.343,-0.448,0.336,0.580,-0.111,0.807,0.738,0.337,-0.585,9.556,-0.611,0.748,6.183,0.763,0.051,-0.645,10.850,-9.802,-1.939,5.649,none
2.029083,-0.197,0.894,-0.402,2542.25,4.812,-5.707,1.343,0.390,-0.916,-0.096,-0.385,0.922,-0.039,2515.80,4.252,-4.700,0.000,0.509,-0.742,-0.437,-0.413,0.552,-0.725,2485.55,4.029,-3.245,5.707,0.758,-0.407,0.510,-0.238,0.968,0.075,2471.19,-1.343,-0.448,0.336,0.580,-0.111,0.807,0.717,0.324,-0.617,9.535,0.519,2.168,4.473,0.751,0.046,-0.659,10.635,-7.374,-1.008,3.893,none
2.029270,-0.206,0.895,-0.395,2440.39,3.133,-2.686,-0.112,0.377,-0.924,-0.062,-0.396,0.918,-0.020,2442.54,4.588,0.336,0.895,0.517,-0.745,-0.422,-0.422,0.538,-0.729,2455.76,4.252,-1.231,2.238,0.776,-0.397,0.490,-0.241,0.968,0.076,2442.15,-1.343,-0.448,0.336,0.580,-0.111,0.807,0.723,0.330,-0.608,9.399,3.389,1.756,1.863,0.754,0.051,-0.655,10.468,-5.527,-2.031,1.740,none
2.029348,-0.195,0.889,-0.414,2423.58,-0.112,-0.448,0.224,0.376,-0.924,-0.074,-0.377,0.924,-0.057,2435.28,0.783,5.148,3.245,0.522,-0.759,-0.389,-0.428,0.541,-0.724,2444.75,1.902,1.679,0.560,0.769,-0.378,0.515,-0.231,0.969,0.084,2458.64,-1.343,-0.448,0.336,0.580,-0.111,0.807,0.725,0.346,-0.595,9.294,1.603,1.420,-0.534,0.770,0.058,-0.635,10.493,-6.901,-3.908,-0.779,none
2.029425,-0.187,0.882,-0.432,2477.02,-0.112,-0.895,3.021,0.370,-0.923,-0.104,-0.344,0.931,-0.119,2470.65,1.567,4.476,5.148,0.521,-0.747,-0.412,-0.430,0.531,-0.731,2436.48,3.133,3.133,2.014,0.750,-0.406,0.522,-0.232,0.969,0.080,2448.12,-1.343,-0.448,0.336,0.580,-0.111,0.807,0.730,0.325,-0.602,9.539,3.038,-0.198,-1.191,0.762,0.048,-0.646,10.686,-7.160,-4.702,-1.176,none
2.029511,-0.191,0.885,-0.424,2479.61,-1.231,-0.895,1.231,0.357,-0.931,-0.076,-0.376,0.925,-0.061,2445.11,0.000,-2.014,2.238,0.512,-0.763,-0.394,-0.434,0.510,-0.743,2436.88,2.910,2.798,1.790,0.767,-0.383,0.514,-0.237,0.969,0.068,2438.63,-1.343,-0.448,0.336,0.580,-0.111,0.807,0.734,0.334,-0.591,9.483,7.069,-1.969,-2.397,0.766,0.052,-0.641,10.539,-4.885,-6.519,-2.382,none
2.029591,-0.189,0.881,-0.434,2446.68,-2.014,0.783,1.231,0.366,-0.927,-0.084,-0.373,0.927,-0.047,2515.42,-3.021,0.560,3.357,0.500,-0.755,-0.424,-0.423,0.502,-0.754,2476.02,-0.783,5.595,1.679,0.770,-0.395,0.502,-0.236,0.969,0.076,2448.72,-1.343,-0.448,0.336,0.580,-0.111,0.807,0.743,0.343,-0.575,9.537,6.244,-2.519,-3.756,0.771,0.056,-0.635,10.615,-5.786,-7.817,-2.840,none
2.029665,-0.182,0.881,-0.438,2492.69,-1.902,1.343,2.238,0.377,-0.924,-0.059,-0.366,0.928,-0.076,2457.96,-0.560,3.693,2.574,0.512,-0.740,-0.436,-0.412,0.523,-0.746,2490.40,-2.462,5.260,2.574,0.745,-0.385,0.545,-0.232,0.970,0.071,2496.53,-1.343,-0.448,0.336,0.580,-0.111,0.807,0.747,0.343,-0.569,9.693,4.092,-2.336,-4.153,0.779,0.062,-0.624,10.763,-6.382,-6.885,-2.931,none
2.029754,-0.181,0.882,-0.435,2509.44,-1.679,0.671,2.910,0.391,-0.917,-0.077,-0.339,0.934,-0.115,2567.94,-3.245,3.021,3.245,0.508,-0.756,-0.413,-0.411,0.529,-0.743,2500.92,-2.126,4.476,1.455,0.752,-0.402,0.523,-0.230,0.971,0.058,2514.00,-1.343,-0.448,0.336,0.580,-0.111,0.807,0.739,0.346,-0.578,9.737,2.550,-0.992,-3.878,0.784,0.069,-0.617,10.930,-5.863,-6.656,-3.084,none
2.029843,-0.168,0.876,-0.453,2584.26,-3.245,1.007,2.350,0.383,-0.921,-0.070,-0.343,0.934,-0.101,2535.62,-1.231,0.448,1.679,0.503,-0.759,-0.414,-0.395,0.502,-0.770,2554.86,-0.448,4.252,0.671,0.752,-0.402,0.523,-0.226,0.972,0.058,2521.44,-1.343,-0.448,0.336,0.580,-0.111,0.807,0.737,0.350,-0.578,9.932,4.565,-2.137,-3.832,0.781,0.073,-0.620,11.055,-5.756,-7.191,-2.427,none
2.029924,-0.152,0.867,-0.474,2588.20,-4.476,-0.336,1.902,0.368,-0.926,-0.086,-0.325,0.937,-0.128,2611.87,-3.245,-1.231,1.231,0.515,-0.739,-0.434,-0.403,0.505,-0.763,2575.99,-2.910,2.238,2.014,0.760,-0.383,0.524,-0.217,0.975,0.042,2573.76,-1.343,-0.448,0.336,0.580,-0.111,0.807,0.752,0.354,-0.555,10.138,6.550,-2.489,-2.855,0.794,0.080,-0.602,11.254,-5.557,-6.931,-1.908,none
2.029995,-0.165,0.880,-0.445,2692.72,-2.686,-1.343,1.679,0.363,-0.931,-0.050,-0.341,0.937,-0.077,2665.28,-1.343,-2.238,0.671,0.514,-0.743,-0.428,-0.390,0.507,-0.769,2609.22,0.224,1.119,0.671,0.771,-0.398,0.497,-0.227,0.973,0.034,2590.16,-1.343,-0.448,0.336,0.580,-0.111,0.807,0.753,0.349,-0.558,10.225,5.588,1.374,-1.008,0.786,0.071,-0.614,11.266,-4.656,-3.359,-0.412,none
2.030071,-0.165,0.876,-0.453,2627.03,1.679,0.671,-1.455,0.368,-0.923,-0.115,-0.341,0.933,-0.113,2603.34,2.238,1.902,-1.007,0.505,-0.764,-0.401,-0.404,0.498,-0.767,2614.67,0.448,-0.224,-0.895,0.762,-0.401,0.508,-0.231,0.972,0.038,2591.83,-1.343,-0.448,0.336,0.580,-0.111,0.807,0.745,0.348,-0.569,10.118,7.878,1.130,-0.947,0.790,0.071,-0.609,11.153,-3.542,-3.802,-0.244,none
2.030144,-0.167,0.874,-0.457,2647.24,1.343,-0.224,-1.679,0.379,-0.921,-0.094,-0.334,0.933,-0.134,2633.74,2.238,2.238,-1.119,0.512,-0.758,-0.404,-0.410,0.486,-0.772,2599.56,1.007,-1.007,-1.343,0.759,-0.388,0.523,-0.228,0.973,0.034,2579.46,-1.343,-0.448,0.336,0.580,-0.111,0.807,0.765,0.355,-0.538,10.110,5.359,2.260,0.870,0.806,0.074,-0.588,11.158,-4.244,-2.901,1.267,none
2.032007,-0.158,0.852,-0.498,2622.00,3.469,-0.783,-1.790,0.342,-0.935,-0.089,-0.342,0.930,-0.132,2599.11,3.021,1.902,-1.119,0.496,-0.752,-0.434,-0.410,0.481,-0.775,2602.45,3.693,-1.902,-1.343,0.766,-0.391,0.511,-0.238,0.970,0.042,2556.69,-1.343,-0.448,0.336,0.580,-0.111,0.807,0.763,0.337,-0.552,10.066,2.641,2.947,3.542,0.802,0.062,-0.594,11.160,-6.763,-1.328,3.695,none
2.032106,-0.168,0.856,-0.489,2632.23,4.700,-4.029,-0.783,0.342,-0.931,-0.127,-0.330,0.928,-0.172,2635.17,3.917,-2.462,-2.126,0.491,-0.757,-0.432,-0.424,0.486,-0.764,2560.14,4.029,-4.588,0.560,0.755,-0.400,0.520,-0.242,0.969,0.046,2549.84,-1.343,-0.448,0.336,0.580,-0.111,0.807,0.763,0.336,-0.552,10.062,3.389,2.382,5.679,0.796,0.056,-0.603,11.194,-6.641,-1.756,5.115,none
2.032185,-0.191,0.879,-0.437,2631.44,4.141,-6.826,-1.119,0.355,-0.931,-0.080,-0.368,0.926,-0.079,2600.67,4.588,-7.610,-4.029,0.497,-0.749,-0.437,-0.425,0.494,-0.758,2555.47,4.252,-6.267,1.231,0.766,-0.396,0.507,-0.248,0.968,0.042,2563.75,-1.343,-0.448,0.336,0.580,-0.111,0.807,0.753,0.336,-0.566,9.926,4.275,3.634,4.931,0.780,0.049,-0.624,10.974,-5.832,0.779,4.626,none
2.032276,-0.196,0.879,-0.434,2561.71,5.819,-2.238,-2.798,0.380,-0.921,-0.090,-0.381,0.921,-0.081,2541.60,7.050,-0.895,-3.693,0.489,-0.780,-0.391,-0.432,0.479,-0.764,2535.91,6.267,-4.588,-2.350,0.763,-0.376,0.526,-0.257,0.966,0.039,2518.50,-1.343,-0.448,0.336,0.580,-0.111,0.807,0.755,0.325,-0.569,9.783,5.863,4.702,2.473,0.788,0.045,-0.614,10.773,-3.924,0.458,2.794,none
2.045859,-0.190,0.849,-0.493,2492.67,4.476,-0.895,-3.581,0.364,-0.929,-0.062,-0.362,0.916,-0.174,2480.38,5.595,2.910,-3.245,0.501,-0.782,-0.369,-0.454,0.466,-0.759,2500.33,2.238,-2.910,-2.686,0.765,-0.377,0.522,-0.263,0.964,0.031,2502.06,-1.343,-0.448,0.336,0.580,-0.111,0.807,0.772,0.338,-0.538,9.593,7.695,0.702,1.389,0.816,0.055,-0.575,10.640,-4.794,-3.328,2.107,none
2.067029,-0.182,0.840,-0.512,2495.83,2.574,-2.238,-1.790,0.357,-0.931,-0.076,-0.361,0.916,-0.174,2489.54,2.238,-2.798,-1.119,0.511,-0.761,-0.398,-0.452,0.476,-0.754,2489.78,2.126,-2.462,0.448,0.762,-0.386,0.519,-0.260,0.965,0.035,2489.17,-1.343,-0.448,0.336,0.580,-0.111,0.807,0.789,0.334,-0.515,9.710,2.550,0.550,3.038,0.819,0.051,-0.571,10.782,-8.504,-3.389,2.840,none
2.087380,-0.190,0.848,-0.495,2540.78,3.357,-5.483,1.902,0.370,-0.927,-0.061,-0.369,0.918,-0.148,2518.51,2.798,-5.371,0.671,0.505,-0.768,-0.393,-0.431,0.498,-0.752,2495.94,3.469,-1.902,3.357,0.760,-0.399,0.513,-0.274,0.961,0.024,2467.43,-1.343,-0.448,0.336,0.580,-0.111,0.807,0.782,0.317,-0.537,9.648,1.603,2.641,4.458,0.804,0.029,-0.594,10.767,-8.947,-0.916,4.092,none
2.107256,-0.213,0.858,-0.467,2545.71,5.931,-5.260,0.671,0.383,-0.922,-0.061,-0.381,0.915,-0.133,2514.74,5.819,-3.581,0.224,0.501,-0.764,-0.407,-0.466,0.466,-0.752,2457.81,7.162,-1.343,1.343,0.754,-0.391,0.528,-0.284,0.959,0.020,2484.91,-1.343,-0.448,0.336,0.580,-0.111,0.807,0.771,0.323,-0.548,9.435,1.420,2.427,2.061,0.804,0.035,-0.594,10.366,-8.397,-1.756,1.939,none
2.128207,-0.214,0.846,-0.488,2397.47,2.910,-2.350,1.902,0.372,-0.926,-0.059,-0.391,0.902,-0.180,2396.88,5.371,-2.126,0.783,0.512,-0.763,-0.394,-0.476,0.421,-0.772,2485.31,6.379,0.895,1.455,0.761,-0.383,0.523,-0.283,0.959,0.020,2455.23,-1.343,-0.448,0.336,0.580,-0.111,0.807,0.784,0.324,-0.530,9.493,0.870,-1.267,0.137,0.821,0.040,-0.570,10.464,-10.351,-4.855,0.076,none
2.539195,-0.200,0.834,-0.514,2465.16,0.671,-2.910,4.924,0.386,-0.921,-0.056,-0.380,0.908,-0.179,2471.08,0.336,-3.805,4.141,0.518,-0.765,-0.383,-0.465,0.450,-0.762,2503.87,2.126,0.448,5.931,0.771,-0.387,0.505,-0.273,0.961,0.031,2477.57,-1.343,-0.448,0.336,0.580,-0.111,0.807,0.784,0.332,-0.525,9.777,-0.901,-3.084,0.015,0.812,0.042,-0.583,10.875,-13.313,-4.992,-0.397,none
2.539356,-0.195,0.853,-0.485,2573.55,1.343,-4.029,7.610,0.360,-0.931,-0.063,-0.374,0.919,-0.125,2588.75,0.895,-6.043,6.043,0.490,-0.777,-0.395,-0.431,0.504,-0.748,2563.94,2.350,0.112,8.617,0.755,-0.380,0.534,-0.271,0.962,0.030,2567.37,-1.343,-0.448,0.336,0.580,-0.111,0.807,0.777,0.330,-0.536,10.043,-3.313,1.191,0.427,0.807,0.044,-0.589,11.279,-13.008,-1.618,-0.321,none
2.539432,-0.196,0.865,-0.462,2660.77,4.812,-2.686,6.491,0.349,-0.936,-0.042,-0.368,0.925,-0.093,2655.91,3.693,-4.141,5.931,0.509,-0.742,-0.437,-0.422,0.494,-0.760,2574.83,6.267,0.448,5.819,0.746,-0.418,0.517,-0.264,0.964,0.019,2593.84,-1.343,-0.448,0.336,0.580,-0.111,0.807,0.783,0.322,-0.532,10.180,-3.740,4.214,0.443,0.806,0.046,-0.590,11.241,-12.015,1.405,-0.061,none
2.539508,-0.191,0.857,-0.479,2627.94,4.700,-1.231,5.260,0.337,-0.940,-0.054,-0.353,0.925,-0.140,2655.35,7.722,-0.560,3.133,0.490,-0.756,-0.434,-0.432,0.474,-0.767,2538.04,7.945,-1.790,1.455,0.751,-0.396,0.529,-0.263,0.964,0.031,2532.65,-1.343,-0.448,0.336,0.580,-0.111,0.807,0.788,0.320,-0.526,10.075,-3.069,6.443,3.389,0.814,0.046,-0.579,11.147,-10.687,3.710,2.046,none
2.539604,-0.181,0.843,-0.507,2616.11,9.512,-3.021,2.238,0.336,-0.934,-0.125,-0.352,0.924,-0.151,2608.12,10.519,-2.910,1.007,0.475,-0.786,-0.397,-0.442,0.481,-0.758,2505.05,12.310,-6.491,2.126,0.746,-0.391,0.539,-0.267,0.962,0.051,2497.08,-1.343,-0.448,0.336,0.580,-0.111,0.807,0.781,0.303,-0.546,9.828,-3.191,6.458,8.672,0.815,0.041,-0.578,10.855,-12.290,5.069,7.847,none
2.539686,-0.207,0.852,-0.480,2518.69,13.988,-11.414,2.238,0.324,-0.946,-0.030,-0.385,0.912,-0.144,2460.71,15.107,-8.057,-1.567,0.465,-0.767,-0.441,-0.460,0.504,-0.731,2448.41,13.876,-8.057,4.141,0.751,-0.385,0.537,-0.283,0.956,0.073,2420.02,-1.343,-0.448,0.336,0.580,-0.111,0.807,0.777,0.288,-0.560,9.403,-6.015,6.168,12.275,0.796,0.012,-0.605,10.417,-15.130,5.832,10.626,none
2.539759,-0.233,0.856,-0.462,2404.22,14.436,-12.086,2.686,0.325,-0.943,-0.077,-0.420,0.903,-0.094,2396.60,15.667,-10.295,-1.231,0.500,-0.777,-0.383,-0.475,0.508,-0.719,2410.19,14.995,-8.729,6.043,0.761,-0.383,0.523,-0.303,0.949,0.082,2396.06,-1.343,-0.448,0.336,0.580,-0.111,0.807,0.759,0.283,-0.587,9.319,-7.298,5.221,11.725,0.764,-0.003,-0.645,10.325,-14.305,4.046,8.885,none
2.539937,-0.235,0.876,-0.421,2427.01,12.198,-10.072,3.805,0.331,-0.943,-0.039,-0.417,0.907,-0.061,2439.99,11.638,-9.624,0.224,0.475,-0.789,-0.389,-0.438,0.513,-0.738,2502.48,10.407,-6.043,6.826,0.758,-0.378,0.532,-0.280,0.957,0.075,2489.52,-1.343,-0.448,0.336,0.580,-0.111,0.807,0.751,0.304,-0.586,9.805,-6.244,5.771,9.527,0.776,0.026,-0.630,10.977,-12.794,3.252,5.771,none
2.540051,-0.210,0.878,-0.431,2623.80,10.295,-6.714,3.469,0.312,-0.948,-0.061,-0.372,0.925,-0.077,2677.13,10.855,-6.043,1.679,0.472,-0.780,-0.410,-0.413,0.541,-0.733,2605.79,10.743,-5.595,5.036,0.749,-0.392,0.534,-0.267,0.961,0.072,2570.23,-1.343,-0.448,0.336,0.580,-0.111,0.807,0.747,0.275,-0.606,10.293,-3.160,8.809,10.580,0.779,0.014,-0.627,11.580,-10.412,6.244,7.664,none
2.540144,-0.209,0.876,-0.436,2729.81,9.400,-8.617,0.112,0.312,-0.948,-0.061,-0.355,0.928,-0.114,2753.74,11.526,-6.267,-2.686,0.502,-0.774,-0.387,-0.438,0.495,-0.750,2570.13,11.750,-9.848,0.671,0.751,-0.388,0.535,-0.273,0.959,0.077,2547.76,-1.343,-0.448,0.336,0.580,-0.111,0.807,0.761,0.277,-0.586,10.047,2.611,7.267,11.649,0.783,0.007,-0.622,11.145,-6.641,4.031,10.458,none
2.540228,-0.228,0.868,-0.441,2630.15,9.848,-10.743,-5.036,0.314,-0.946,-0.086,-0.415,0.907,-0.077,2547.56,12.981,-6.602,-8.729,0.481,-0.786,-0.388,-0.469,0.512,-0.719,2504.06,9.064,-12.533,0.783,0.743,-0.401,0.536,-0.297,0.953,0.058,2541.20,-1.343,-0.448,0.336,0.580,-0.111,0.807,0.796,0.297,-0.528,9.642,1.053,9.878,11.786,0.805,0.007,-0.593,10.743,-6.885,6.534,10.580,none
2.540321,-0.247,0.854,-0.458,2466.62,11.862,-7.610,-4.364,0.314,-0.949,-0.035,-0.432,0.896,-0.103,2468.67,15.443,-3.021,-7.610,0.496,-0.786,-0.368,-0.503,0.503,-0.703,2434.60,11.079,-10.855,-1.007,0.753,-0.394,0.526,-0.311,0.949,0.047,2488.69,-1.343,-0.448,0.336,0.580,-0.111,0.807,0.793,0.303,-0.528,9.357,-1.802,10.824,8.763,0.811,0.009,-0.585,10.199,-9.008,7.863,6.809,none
2.540413,-0.255,0.840,-0.480,2356.55,14.995,-4.812,-0.783,0.307,-0.949,-0.077,-0.434,0.886,-0.162,2364.41,16.674,-0.448,-2.462,0.503,-0.771,-0.390,-0.513,0.453,-0.729,2441.65,14.324,-5.595,-1.343,0.760,-0.386,0.524,-0.314,0.949,0.032,2470.98,-1.343,-0.448,0.336,0.580,-0.111,0.807,0.802,0.292,-0.521,9.546,-4.473,8.153,6.443,0.821,0.008,-0.571,10.518,-10.733,4.321,3.466,none
2.540495,-0.221,0.818,-0.531,2536.97,12.757,-3.805,1.790,0.303,-0.951,-0.058,-0.407,0.892,-0.197,2446.73,11.750,-0.112,3.133,0.480,-0.801,-0.358,-0.510,0.439,-0.739,2475.00,13.764,-0.671,1.343,0.760,-0.383,0.526,-0.312,0.949,0.039,2487.82,-1.343,-0.448,0.336,0.580,-0.111,0.807,0.832,0.278,-0.480,10.225,-5.374,3.924,10.260,0.852,0.019,-0.523,11.359,-11.573,1.832,5.695,none
2.540565,-0.202,0.805,-0.557,2628.31,9.400,-6.267,3.357,0.280,-0.959,-0.029,-0.366,0.905,-0.216,2586.79,10.183,-3.581,5.819,0.509,-0.764,-0.396,-0.444,0.429,-0.787,2623.97,17.010,-3.133,7.722,0.745,-0.396,0.537,-0.306,0.952,0.019,2565.54,-1.343,-0.448,0.336,0.580,-0.111,0.807,0.845,0.303,-0.440,10.278,-10.443,7.969,16.168,0.850,0.021,-0.526,11.063,-14.855,6.947,9.817,none
2.540636,-0.213,0.817,-0.536,2733.43,10.855,-11.191,5.819,0.300,-0.952,-0.057,-0.374,0.909,-0.186,2746.79,21.710,-10.407,2.798,0.483,-0.792,-0.373,-0.464,0.513,-0.722,2574.72,21.038,-10.631,11.191,0.745,-0.399,0.535,-0.314,0.949,0.000,2622.80,-1.343,-0.448,0.336,0.580,-0.111,0.807,0.847,0.299,-0.440,10.183,-16.794,17.924,19.282,0.868,0.016,-0.496,11.689,-19.924,16.748,10.748,none
2.540708,-0.231,0.825,-0.515,2728.08,22.381,-13.429,6.938,0.291,-0.953,-0.078,-0.405,0.903,-0.145,2701.35,29.319,-10.855,3.245,0.487,-0.804,-0.342,-0.470,0.517,-0.715,2559.27,34.915,-10.743,4.141,0.742,-0.395,0.542,-0.342,0.940,-0.008,2610.22,-1.343,-0.448,0.336,0.580,-0.111,0.807,0.822,0.279,-0.496,10.081,-18.901,24.901,16.489,0.833,-0.003,-0.553,10.966,-23.725,29.756,12.412,none
2.541649,-0.251,0.823,-0.510,2466.54,39.615,-11.079,7.722,0.294,-0.953,-0.070,-0.427,0.885,-0.184,2499.25,43.979,-4.924,3.357,0.466,-0.801,-0.376,-0.482,0.452,-0.751,2556.73,40.398,-7.722,-2.910,0.746,-0.396,0.536,-0.346,0.938,-0.019,2550.25,-1.343,-0.448,0.336,0.580,-0.111,0.807,0.836,0.319,-0.447,9.735,-20.733,26.031,10.870,0.849,0.016,-0.528,10.591,-24.504,28.275,8.534,none
2.548953,-0.206,0.773,-0.601,2486.25,39.167,-5.819,15.331,0.304,-0.952,-0.035,-0.402,0.888,-0.223,2503.65,42.300,-0.671,10.407,0.485,-0.795,-0.363,-0.535,0.483,-0.694,2454.05,37.041,-6.714,0.895,0.739,-0.382,0.555,-0.304,0.950,-0.069,2712.87,-1.343,-0.448,0.336,0.580,-0.111,0.807,0.894,0.389,-0.220,11.065,-43.985,42.031,11.557,0.928,0.096,-0.361,11.737,-42.229,48.397,2.122,none
2.569565,-0.160,0.764,-0.625,2717.49,63.003,-3.805,29.879,0.254,-0.967,0.012,-0.370,0.908,-0.197,2641.46,62.779,0.224,25.850,0.474,-0.823,-0.314,-0.460,0.540,-0.705,2467.80,61.660,-0.448,1.343,0.733,-0.391,0.557,-0.286,0.955,-0.081,2773.70,-1.343,-0.448,0.336,0.580,-0.111,0.807,0.890,0.376,-0.260,11.493,-67.740,67.252,20.214,0.919,0.101,-0.380,12.405,-57.145,78.534,6.794,none
2.590015,-0.129,0.774,-0.620,2899.98,92.434,-6.267,37.041,0.263,-0.964,0.046,-0.299,0.923,-0.240,2776.61,89.637,5.260,36.817,0.456,-0.836,-0.304,-0.464,0.423,-0.778,2427.55,98.477,-0.224,-3.245,0.730,-0.385,0.564,-0.284,0.956,-0.076,2697.94,-1.343,-0.448,0.336,0.580,-0.111,0.807,0.862,0.363,-0.355,10.705,-77.557,81.298,27.771,0.896,0.088,-0.436,11.498,-63.435,94.901,12.305,none
2.609561,-0.142,0.771,-0.620,2643.43,108.213,-9.624,36.593,0.257,-0.962,0.088,-0.297,0.913,-0.280,2700.79,114.144,7.945,37.600,0.458,-0.852,-0.253,-0.480,0.276,-0.833,2408.38,115.599,-0.560,-0.671,0.726,-0.364,0.584,-0.325,0.942,-0.080,2445.79,-1.343,-0.448,0.336,0.580,-0.111,0.807,0.828,0.316,-0.463,9.917,-73.939,82.366,30.473,0.853,0.038,-0.520,10.797,-62.198,92.397,13.481,none
2.630212,-0.188,0.796,-0.575,2459.75,101.610,-10.967,34.579,0.256,-0.961,0.108,-0.321,0.889,-0.326,2499.19,105.639,3.357,34.803,0.455,-0.859,-0.234,-0.426,0.272,-0.863,2482.14,108.661,2.686,0.895,0.716,-0.341,0.609,-0.358,0.928,-0.108,2356.75,-1.343,-0.448,0.336,0.580,-0.111,0.807,0.859,0.308,-0.410,9.490,-60.427,79.863,23.115,0.858,0.015,-0.513,10.208,-51.237,88.870,8.122,none
2.845468,-0.243,0.823,-0.514,2429.32,96.910,-8.057,31.222,0.225,-0.966,0.125,-0.378,0.898,-0.223,2505.63,98.813,0.336,27.417,0.447,-0.874,-0.189,-0.547,0.359,-0.757,2183.54,100.268,0.112,-3.693,0.721,-0.325,0.612,-0.352,0.926,-0.138,2478.35,-1.343,-0.448,0.336,0.580,-0.111,0.807,0.914,0.363,-0.181,9.946,-65.344,94.168,18.336,0.940,0.064,-0.335,10.436,-54.794,105.725,-1.847,none
2.845590,-0.238,0.767,-0.596,2273.65,115.823,12.533,36.146,0.202,-0.949,0.241,-0.452,0.859,-0.240,2163.11,120.634,10.519,35.922,0.456,-0.884,-0.102,-0.582,0.533,-0.614,2019.44,109.444,8.281,-6.826,0.723,-0.311,0.617,-0.362,0.921,-0.146,2492.47,-1.343,-0.448,0.336,0.580,-0.111,0.807,0.914,0.352,-0.200,9.907,-85.588,115.435,14.397,0.934,0.052,-0.354,10.401,-64.748,126.886,-7.649,none
2.845672,-0.188,0.723,-0.665,2465.66,128.020,15.443,42.636,0.207,-0.952,0.225,-0.378,0.885,-0.273,2302.31,136.525,21.822,51.589,0.461,-0.886,-0.052,-0.335,0.294,-0.895,2394.01,143.911,28.984,-25.626,0.709,-0.291,0.642,-0.382,0.910,-0.159,2282.98,-1.343,-0.448,0.336,0.580,-0.111,0.807,0.890,0.297,-0.345,10.032,-91.267,126.580,15.420,0.897,0.021,-0.441,11.170,-64.992,135.939,-4.260,none
2.845766,-0.179,0.770,-0.612,2582.64,142.008,13.988,46.105,0.219,-0.924,0.313,-0.284,0.887,-0.365,2582.39,137.644,26.074,41.853,0.646,-0.763,-0.028,-0.408,-0.016,-0.913,2563.88,149.282,11.638,-39.391,0.703,-0.251,0.665,-0.376,0.908,-0.183,2191.95,-1.343,-0.448,0.336,0.580,-0.111,0.807,0.797,0.243,-0.553,8.972,-71.649,109.466,13.145,0.882,0.018,-0.471,9.810,-47.786,116.794,2.458,none
2.845850,-0.142,0.662,-0.735,2217.65,109.332,10.407,20.814,0.240,-0.889,0.390,-0.234,0.772,-0.592,2254.97,113.137,24.955,25.067,0.632,-0.770,0.086,-0.403,-0.063,-0.913,2691.62,91.539,7.833,-26.298,0.699,-0.209,0.684,-0.397,0.859,-0.322,2099.60,-1.343,-0.448,0.336,0.580,-0.111,0.807,0.887,0.322,-0.331,8.097,-35.679,67.405,6.076,0.917,0.029,-0.398,8.657,-25.985,67.481,-0.214,none
2.845941,-0.153,0.598,-0.787,1997.61,57.631,11.974,8.505,0.235,-0.889,0.394,-0.280,0.767,-0.577,2090.91,57.743,18.912,13.876,0.622,-0.764,0.172,-0.453,-0.042,-0.891,2397.42,56.065,7.833,-16.226,0.717,-0.221,0.661,-0.394,0.853,-0.342,2091.48,-1.343,-0.448,0.336,0.580,-0.111,0.807,0.902,0.328,-0.281,7.767,-17.466,36.611,-0.962,0.947,0.054,-0.316,8.528,-15.160,32.321,-5.298,none
2.846025,-0.124,0.577,-0.807,2068.96,48.008,11.974,8.952,0.238,-0.871,0.430,-0.208,0.772,-0.601,2204.44,32.117,24.060,14.212,0.611,-0.773,0.174,-0.411,-0.017,-0.911,2450.31,30.662,9.736,-10.519,0.691,-0.183,0.700,-0.379,0.853,-0.360,2070.38,-1.343,-0.448,0.336,0.580,-0.111,0.807,0.895,0.330,-0.300,7.756,-3.878,17.511,-5.405,0.939,0.056,-0.341,8.569,-6.824,10.351,-7.069,none
2.846098,-0.113,0.566,-0.816,2022.08,7.274,9.400,1.119,0.253,-0.849,0.464,-0.226,0.779,-0.585,2198.32,-3.693,17.457,4.924,0.604,-0.778,0.173,-0.451,-0.070,-0.890,2429.82,-5.371,10.407,0.671,0.695,-0.185,0.694,-0.368,0.869,-0.330,2076.98,-1.343,-0.448,0.336,0.580,-0.111,0.807,0.884,0.397,-0.245,7.819,18.489,-14.153,-14.947,0.945,0.115,-0.305,8.335,3.298,-23.649,-13.588,none
2.847484,-0.084,0.626,-0.775,2002.59,-32.117,11.302,2.014,0.236,-0.853,0.466,-0.205,0.824,-0.528,2136.67,-25.962,18.129,6.714,0.557,-0.808,0.193,-0.420,0.080,-0.904,2305.62,-34.355,19.695,15.331,0.683,-0.200,0.703,-0.302,0.906,-0.298,2305.38,-1.343,-0.448,0.336,0.580,-0.111,0.807,0.887,0.442,-0.132,9.290,22.779,-24.382,-23.725,0.946,0.155,-0.284,9.978,4.198,-35.267,-22.000,none
2.852177,-0.041,0.666,-0.745,2425.51,-39.838,15.331,4.588,0.194,-0.897,0.397,-0.182,0.873,-0.453,2466.99,-43.531,12.757,14.324,0.548,-0.814,0.194,-0.377,0.186,-0.907,2360.72,-35.922,22.829,14.436,0.689,-0.206,0.695,-0.256,0.925,-0.280,2523.74,-1.343,-0.448,0.336,0.580,-0.111,0.807,0.896,0.440,-0.050,10.576,12.076,-18.168,-23.908,0.963,0.183,-0.197,11.146,-1.603,-28.229,-23.527,none
2.872817,-0.033,0.649,-0.760,2714.43,-31.110,16.450,10.407,0.193,-0.881,0.431,-0.185,0.885,-0.428,2634.09,-28.760,13.541,18.017,0.551,-0.820,0.153,-0.383,0.316,-0.868,2323.61,-19.807,27.305,17.233,0.684,-0.215,0.697,-0.271,0.927,-0.260,2602.79,-1.343,-0.448,0.336,0.580,-0.111,0.807,0.910,0.409,-0.072,10.838,-3.863,-1.099,-17.557,0.963,0.152,-0.221,11.564,-12.611,-5.328,-18.229,none
2.893260,-0.046,0.664,-0.746,2816.33,-12.422,13.541,14.212,0.164,-0.899,0.406,-0.184,0.869,-0.459,2647.72,-5.483,14.436,22.941,0.539,-0.826,0.166,-0.400,0.243,-0.883,2370.31,12.533,28.872,4.252,0.675,-0.232,0.700,-0.303,0.912,-0.277,2623.73,-1.343,-0.448,0.336,0.580,-0.111,0.807,0.902,0.417,-0.109,10.709,-10.885,10.824,-15.298,0.958,0.160,-0.237,11.333,-17.664,7.389,-16.626,none
2.913662,-0.042,0.656,-0.754,2644.03,10.743,11.302,16.898,0.137,-0.910,0.391,-0.160,0.864,-0.478,2686.57,9.176,13.317,25.515,0.544,-0.823,0.164,-0.334,0.115,-0.935,2721.68,22.717,29.655,1.343,0.656,-0.221,0.721,-0.295,0.910,-0.291,2595.05,-1.343,-0.448,0.336,0.580,-0.111,0.807,0.894,0.422,-0.151,10.450,-14.550,14.229,-13.679,0.950,0.162,-0.265,11.099,-19.237,11.038,-15.252,none
2.934120,-0.027,0.655,-0.756,2662.94,12.757,11.526,17.457,0.140,-0.905,0.402,-0.138,0.849,-0.510,2674.00,14.100,13.653,25.738,0.529,-0.823,0.207,-0.342,0.083,-0.936,2688.28,19.248,24.060,3.469,0.665,-0.203,0.718,-0.293,0.901,-0.319,2611.91,-1.343,-0.448,0.336,0.580,-0.111,0.807,0.901,0.415,-0.128,10.512,-11.023,13.008,-13.832,0.955,0.153,-0.254,11.210,-16.550,8.885,-16.076,none
2.953965,-0.038,0.650,-0.759,2666.32,15.779,13.093,16.674,0.131,-0.904,0.406,-0.145,0.857,-0.494,2682.22,8.393,12.086,24.955,0.502,-0.841,0.201,-0.346,0.115,-0.931,2543.98,17.233,23.500,3.245,0.659,-0.219,0.719,-0.303,0.886,-0.352,2590.44,-1.343,-0.448,0.336,0.580,-0.111,0.807,0.902,0.426,-0.076,10.304,-12.168,16.382,-14.122,0.967,0.169,-0.191,10.972,-16.550,13.099,-15.924,none
2.974357,-0.016,0.596,-0.803,2614.56,19.472,14.100,16.003,0.130,-0.889,0.439,-0.132,0.829,-0.543,2583.05,21.038,16.114,22.157,0.545,-0.809,0.221,-0.360,0.124,-0.925,2444.94,20.031,25.291,0.783,0.651,-0.209,0.730,-0.312,0.873,-0.374,2515.65,-1.343,-0.448,0.336,0.580,-0.111,0.807,0.903,0.428,-0.028,10.184,-12.672,19.435,-14.702,0.971,0.177,-0.159,10.658,-18.885,17.939,-16.656,none
3.046782,-0.012,0.574,-0.819,2506.47,26.857,13.876,18.464,0.086,-0.888,0.451,-0.116,0.804,-0.583,2507.27,25.738,15.555,24.955,0.562,-0.795,0.227,-0.370,0.036,-0.928,2405.37,30.998,26.298,-2.798,0.647,-0.210,0.733,-0.299,0.872,-0.388,2554.38,-1.343,-0.448,0.336,0.580,-0.111,0.807,0.900,0.436,0.025,10.252,-16.962,25.008,-16.992,0.974,0.184,-0.132,10.513,-21.389,23.115,-20.168,none
3.054192,0.011,0.534,-0.845,2509.51,28.648,17.905,23.165,0.069,-0.885,0.461,-0.093,0.782,-0.616,2501.05,27.976,16.450,30.103,0.529,-0.806,0.265,-0.341,-0.009,-0.940,2468.77,38.608,26.298,0.671,0.646,-0.192,0.739,-0.298,0.852,-0.430,2462.38,-1.343,-0.448,0.336,0.580,-0.111,0.807,0.891,0.446,0.090,10.302,-25.130,31.191,-17.252,0.977,0.211,-0.042,10.500,-26.840,29.298,-22.076,none
3.054349,0.050,0.436,-0.899,2513.95,32.676,17.233,26.745,0.065,-0.863,0.500,-0.059,0.729,-0.682,2457.79,37.377,13.541,36.929,0.491,-0.811,0.318,-0.366,-0.047,-0.930,2326.99,41.517,27.976,7.945,0.626,-0.175,0.759,-0.304,0.840,-0.450,2418.07,-1.343,-0.448,0.336,0.580,-0.111,0.807,0.888,0.438,0.139,10.264,-38.718,31.664,-14.000,0.976,0.216,-0.008,10.443,-38.687,33.344,-19.679,none
3.068015,0.039,0.460,-0.887,2467.62,33.684,12.086,34.243,0.057,-0.857,0.512,-0.056,0.717,-0.694,2401.86,40.846,10.631,43.979,0.468,-0.820,0.329,-0.371,-0.105,-0.922,2344.83,51.700,28.984,12.869,0.616,-0.176,0.768,-0.296,0.833,-0.468,2451.20,-1.343,-0.448,0.336,0.580,-0.111,0.807,0.856,0.501,0.127,10.465,-51.924,37.084,-14.427,0.966,0.258,-0.029,11.093,-48.397,27.313,-17.786,none
3.086663,0.094,0.478,-0.873,2475.09,38.831,12.981,42.636,0.005,-0.841,0.541,-0.007,0.749,-0.662,2415.20,39.279,9.512,55.729,0.431,-0.832,0.349,-0.301,-0.033,-0.953,2402.75,52.708,36.146,20.031,0.608,-0.171,0.775,-0.243,0.844,-0.478,2544.50,-1.343,-0.448,0.336,0.580,-0.111,0.807,0.888,0.451,0.086,11.778,-48.504,7.649,-12.336,0.962,0.264,-0.076,10.106,-50.779,150.534,17.221,none
3.106110,0.104,0.494,-0.863,2616.65,41.069,15.667,53.827,-0.025,-0.849,0.528,0.004,0.813,-0.582,2963.53,24.395,9.288,63.003,0.407,-0.820,0.402,-0.238,-0.044,-0.970,2704.77,59.646,36.146,25.515,0.617,-0.160,0.770,-0.264,0.851,-0.453,2707.17,-1.343,-0.448,0.336,0.580,-0.111,0.807,0.855,0.518,-0.022,8.651,-68.611,59.221,-6.656,0.950,0.299,-0.091,7.043,-41.695,-20.504,-74.962,none
3.127139,0.043,0.456,-0.889,2209.66,63.786,15.555,38.272,-0.030,-0.822,0.569,0.001,0.734,-0.679,2760.55,62.555,10.072,52.708,0.363,-0.838,0.407,-0.283,-0.158,-0.946,2732.34,68.934,30.886,25.067,0.587,-0.163,0.793,-0.367,0.834,-0.412,2164.28,-1.343,-0.448,0.336,0.580,-0.111,0.807,0.910,0.388,-0.148,9.004,-33.435,11.176,-21.206,0.971,0.127,-0.202,14.091,-42.000,24.656,-28.015,none
3.148811,-0.010,0.594,-0.804,2257.57,34.243,16.674,42.412,-0.057,-0.814,0.578,-0.076,0.733,-0.676,2147.71,22.829,3.469,47.000,0.339,-0.828,0.447,-0.286,-0.119,-0.951,2564.13,38.496,32.341,28.760,0.573,-0.148,0.806,-0.313,0.822,-0.475,2538.62,-1.343,-0.448,0.336,0.580,-0.111,0.807,0.879,0.469,0.084,10.567,-33.053,21.588,-21.924,0.960,0.256,-0.118,8.728,-27.832,24.763,-29.282,none
3.562179,0.045,0.595,-0.803,2800.24,12.869,25.291,40.622,-0.096,-0.810,0.579,0.005,0.795,-0.606,2719.31,13.429,12.533,51.029,0.317,-0.841,0.439,-0.249,-0.016,-0.968,2588.00,28.200,33.236,30.774,0.573,-0.144,0.807,-0.269,0.834,-0.481,2585.94,-1.343,-0.448,0.336,0.580,-0.111,0.807,0.896,0.443,0.022,10.226,-29.511,17.496,-24.321,0.972,0.228,-0.060,11.739,-32.779,15.282,-34.473,none
3.562299,0.097,0.447,-0.889,2605.71,31.446,24.619,33.907,-0.143,-0.801,0.582,0.016,0.748,-0.663,2707.11,23.276,11.414,48.679,0.265,-0.823,0.502,-0.288,-0.054,-0.956,2579.25,32.341,31.446,31.110,0.553,-0.132,0.823,-0.265,0.852,-0.451,2589.08,-1.343,-0.448,0.336,0.580,-0.111,0.807,0.896,0.412,0.167,11.908,-38.183,23.985,-15.115,0.977,0.213,-0.025,11.329,-35.435,28.489,-29.802,none
3.562380,0.054,0.499,-0.865,2667.86,22.381,20.926,40.958,-0.150,-0.811,0.566,-0.059,0.765,-0.642,2430.33,33.348,5.036,55.058,0.255,-0.841,0.478,-0.367,0.017,-0.930,2157.00,45.658,27.193,43.308,0.526,-0.131,0.840,-0.323,0.848,-0.420,2428.19,-1.343,-0.448,0.336,0.580,-0.111,0.807,0.905,0.404,0.134,10.157,-50.412,44.321,-5.084,0.982,0.189,-0.028,10.386,-40.931,44.779,-30.458,none
3.562472,0.016,0.448,-0.894,2295.40,42.860,21.374,43.084,-0.173,-0.812,0.557,-0.112,0.764,-0.635,2161.67,50.805,11.638,62.220,0.204,-0.808,0.553,-0.433,0.014,-0.901,1942.68,68.598,32.117,45.434,0.520,-0.143,0.842,-0.374,0.823,-0.428,2360.33,-1.343,-0.448,0.336,0.580,-0.111,0.807,0.897,0.407,0.173,9.628,-57.481,61.969,-13.115,0.981,0.192,-0.009,8.941,-47.664,65.176,-39.893,none
3.562545,-0.065,0.526,-0.848,1842.07,64.346,29.543,50.134,-0.189,-0.807,0.559,-0.189,0.745,-0.640,1746.09,69.605,24.060,76.432,0.173,-0.789,0.589,-0.443,-0.012,-0.897,1877.11,83.929,43.979,42.188,0.477,-0.101,0.873,-0.398,0.805,-0.440,2339.92,-1.343,-0.448,0.336,0.580,-0.111,0.807,0.857,0.456,0.240,9.944,-60.275,86.718,-21.053,0.966,0.255,0.039,8.513,-56.031,88.198,-58.809,none
3.562621,0.023,0.530,-0.848,1587.57,92.434,74.082,70.389,-0.297,-0.812,0.502,-0.151,0.803,-0.577,1410.46,80.460,43.867,98.589,0.136,-0.758,0.638,-0.584,0.047,-0.810,1205.57,114.927,103.401,33.572,0.426,-0.079,0.902,-0.315,0.830,-0.459,2456.54,-1.343,-0.448,0.336,0.580,-0.111,0.807,0.888,0.430,0.162,10.940,-90.809,134.733,-5.435,0.963,0.267,-0.040,10.716,-62.397,99.847,-87.863,none
3.562726,0.186,0.536,-0.823,2518.43,92.770,117.165,73.522,-0.329,-0.820,0.468,0.049,0.832,-0.553,1668.29,75.425,78.558,128.804,0.103,-0.746,0.658,-0.155,0.051,-0.987,1695.73,157.004,138.428,14.436,0.373,-0.034,0.927,-0.286,0.799,-0.529,2465.72,-1.343,-0.448,0.336,0.580,-0.111,0.807,0.842,0.471,0.263,11.434,-107.130,170.321,-1.008,0.943,0.323,0.076,12.115,-62.748,119.573,-81.893,none
3.562827,0.271,0.342,-0.900,2922.36,109.892,119.180,67.815,-0.401,-0.829,0.390,0.274,0.679,-0.681,2477.39,60.765,101.499,141.897,-0.080,-0.647,0.758,-0.011,-0.208,-0.978,2462.96,187.778,129.475,8.617,0.340,0.006,0.940,-0.197,0.835,-0.514,2536.99,-1.343,-0.448,0.336,0.580,-0.111,0.807,0.802,0.520,0.294,10.686,-122.595,164.656,-20.198,0.914,0.377,0.150,12.206,-83.695,148.702,-73.924,none
3.562926,0.312,0.312,-0.898,2919.90,146.149,97.246,88.518,-0.468,-0.854,0.225,0.287,0.696,-0.658,2742.57,85.720,96.351,155.549,-0.180,-0.482,0.858,0.042,-0.258,-0.965,2404.46,193.709,119.627,12.086,0.243,0.040,0.969,-0.202,0.801,-0.563,2386.89,-1.343,-0.448,0.336,0.580,-0.111,0.807,0.854,0.489,0.176,10.318,-123.557,164.031,-29.053,0.924,0.383,-0.003,10.194,-93.786,158.473,-69.695,none
3.563000,0.320,0.444,-0.837,2135.84,149.842,87.734,95.456,-0.495,-0.868,0.038,0.346,0.652,-0.674,2866.30,119.627,86.167,131.377,-0.393,0.387,0.834,0.125,-0.406,-0.905,2758.34,196.059,121.530,-9.400,0.083,0.171,0.982,-0.193,0.676,-0.711,2190.62,-1.343,-0.448,0.336,0.580,-0.111,0.807,0.888,0.410,0.207,10.368,-105.481,190.046,-5.939,0.931,0.351,-0.105,7.950,-60.214,143.954,-72.427,none
3.563074,0.359,0.450,-0.818,1825.04,121.977,97.470,58.974,-0.356,-0.876,-0.324,0.400,0.605,-0.688,2067.33,98.477,75.648,100.491,-0.264,0.918,0.295,0.126,-0.439,-0.889,3194.64,135.966,105.975,-21.822,-0.122,0.286,0.950,-0.173,0.610,-0.774,2155.14,-1.343,-0.448,0.336,0.580,-0.111,0.807,0.973,0.187,-0.135,14.014,0.931,-146.779,-10.076,0.808,0.588,-0.029,5.917,-19.237,131.420,-96.153,none
3.563146,0.645,0.143,-0.750,1425.80,107.206,112.801,40.062,-0.126,-0.746,-0.654,0.557,0.515,-0.652,1820.19,52.931,86.951,89.748,0.040,0.954,-0.296,0.181,-0.504,-0.845,2456.71,91.091,89.525,-14.100,-0.488,0.388,0.782,-0.104,0.670,-0.735,2268.15,-1.343,-0.448,0.336,0.580,-0.111,0.807,0.380,0.549,0.744,11.704,-73.893,301.481,134.824,0.944,0.271,0.190,36.819,-113.649,157.786,74.015,none
3.563220,0.369,0.091,-0.925,18192.26,139.099,169.761,50.581,0.388,-0.586,-0.711,0.578,0.626,-0.524,2060.20,76.879,109.108,99.932,0.199,0.830,-0.521,0.546,-0.431,-0.718,1550.57,84.937,90.084,-38.943,-0.797,0.455,0.398,0.136,0.716,-0.685,3163.44,-1.343,-0.448,0.336,0.580,-0.111,0.807,0.067,0.577,0.814,13.474,-126.702,252.977,3.237,0.618,0.574,0.538,10.593,-126.153,208.168,40.992,none
3.563294,0.993,0.080,0.089,1074.76,269.581,-106.311,72.627,0.512,-0.498,-0.700,0.240,0.422,-0.874,19098.49,442.811,-174.125,4.924,0.339,0.632,-0.697,0.316,-0.831,-0.457,2457.00,202.773,119.292,-50.470,-0.623,0.070,-0.779,0.174,0.526,-0.833,2650.25,-1.343,-0.448,0.336,0.580,-0.111,0.807,0.476,0.296,0.828,9.962,-105.115,90.031,-52.840,0.626,0.483,0.613,9.740,-106.977,127.863,15.405,none
3.563364,0.585,-0.257,-0.769,2643.36,86.391,-72.515,65.241,0.498,-0.469,-0.729,0.869,-0.070,0.491,3536.86,124.775,-57.296,-22.493,0.370,0.567,-0.736,0.332,-0.439,-0.835,7326.63,815.234,-76.655,-6.826,-0.112,-0.188,-0.976,0.210,0.262,-0.942,2841.41,-1.343,-0.448,0.336,0.580,-0.111,0.807,0.568,0.407,0.715,10.530,-78.718,13.847,-34.962,0.581,0.460,0.672,9.204,-73.252,52.901,8.779,none
3.563435,0.526,-0.225,-0.820,2623.59,-40.846,-29.767,25.850,0.471,-0.524,-0.709,0.631,0.114,-0.767,2366.25,-63.451,-29.991,-9.960,0.337,0.568,-0.751,0.672,-0.537,-0.510,1317.60,-310.091,16.674,140.106,0.116,-0.297,-0.948,0.035,0.478,-0.878,3364.49,-1.343,-0.448,0.336,0.580,-0.111,0.807,0.648,0.263,0.715,11.016,-29.405,-8.641,-39.481,0.744,0.375,0.554,10.398,-25.664,19.496,-3.664,none
3.563950,0.485,-0.013,-0.875,2524.77,-23.053,-16.114,26.634,0.427,-0.482,-0.765,0.535,0.404,-0.742,2514.40,6.714,-32.453,29.207,0.355,0.560,-0.749,0.001,-0.961,-0.276,2860.26,70.613,-28.424,84.937,0.048,-0.293,-0.955,-0.008,0.305,-0.952,2511.43,-1.343,-0.448,0.336,0.580,-0.111,0.807,0.768,0.217,0.602,11.161,-1.740,90.107,3.496,0.702,0.364,0.613,10.200,-11.145,39.328,2.672,none
3.564055,0.485,-0.230,-0.844,2524.41,21.710,-12.198,12.869,0.382,-0.488,-0.785,0.534,0.158,-0.830,2575.88,29.655,-21.822,10.072,0.352,0.548,-0.759,0.281,-0.521,-0.806,2281.50,-2.238,8.281,113.025,0.046,-0.297,-0.954,-0.025,0.405,-0.914,2713.99,-1.343,-0.448,0.336,0.580,-0.111,0.807,0.243,0.381,0.892,10.912,62.794,138.534,113.664,0.695,0.345,0.631,10.002,-1.756,30.901,6.061,none
3.564177,0.430,-0.154,-0.890,2505.31,1.902,-11.974,5.595,0.366,-0.476,-0.800,0.509,0.165,-0.845,2646.20,-5.036,-21.598,18.129,0.371,0.535,-0.759,0.115,-0.659,-0.743,2739.85,43.755,1.343,84.825,0.067,-0.303,-0.951,-0.008,0.400,-0.916,2600.13,-1.343,-0.448,0.336,0.580,-0.111,0.807,0.476,0.304,0.825,10.923,49.985,42.794,60.000,0.661,0.368,0.653,9.959,2.305,5.298,9.176,none
3.580085,0.439,-0.136,-0.888,2474.57,-15.107,-7.945,2.126,0.335,-0.474,-0.814,0.486,0.360,-0.796,2550.06,-20.703,-14.995,24.284,0.382,0.531,-0.757,0.132,-0.655,-0.744,2471.62,18.464,11.079,60.317,0.085,-0.313,-0.946,-0.038,0.447,-0.894,2589.88,-1.343,-0.448,0.336,0.580,-0.111,0.807,0.519,0.309,0.797,10.838,47.878,42.794,56.015,0.733,0.362,0.576,10.240,-0.702,-7.802,8.672,none
3.602594,0.435,-0.097,-0.895,2545.21,-25.067,-4.029,2.910,0.300,-0.446,-0.843,0.476,0.380,-0.794,2521.40,-24.172,-11.079,23.836,0.383,0.514,-0.768,0.083,-0.725,-0.683,2491.05,10.407,15.219,46.889,0.111,-0.328,-0.938,-0.038,0.467,-0.884,2584.70,-1.343,-0.448,0.336,0.580,-0.111,0.807,0.457,0.336,0.823,10.910,42.351,32.794,50.061,0.719,0.381,0.582,10.265,-1.359,-14.107,11.313,none
3.623386,0.446,-0.055,-0.894,2504.68,-26.410,-2.798,-0.448,0.302,-0.444,-0.844,0.485,0.413,-0.771,2533.12,-30.662,-7.610,20.591,0.397,0.503,-0.767,0.057,-0.762,-0.645,2472.58,4.252,34.691,54.722,0.140,-0.350,-0.926,-0.026,0.457,-0.889,2658.42,-1.343,-0.448,0.336,0.580,-0.111,0.807,0.414,0.350,0.840,10.977,32.550,18.748,35.710,0.707,0.384,0.594,10.150,0.183,-18.901,9.679,none
3.646081,0.439,-0.072,-0.896,2499.28,-24.395,0.224,-4.252,0.283,-0.432,-0.856,0.486,0.382,-0.786,2530.93,-24.060,-0.560,14.995,0.412,0.487,-0.770,0.147,-0.582,-0.800,2547.41,8.729,34.803,37.600,0.191,-0.388,-0.901,-0.034,0.482,-0.876,2566.02,-1.343,-0.448,0.336,0.580,-0.111,0.807,0.438,0.317,0.841,10.882,21.634,10.855,21.725,0.729,0.361,0.582,10.270,-3.084,-22.580,6.611,none
4.068866,0.423,-0.044,-0.905,2496.48,-21.150,0.336,-2.126,0.268,-0.426,-0.864,0.456,0.434,-0.777,2523.64,-25.515,0.448,13.541,0.417,0.482,-0.771,0.117,-0.606,-0.786,2526.42,4.812,26.298,20.367,0.215,-0.408,-0.887,-0.051,0.488,-0.872,2473.64,-1.343,-0.448,0.336,0.580,-0.111,0.807,0.514,0.271,0.814,10.895,14.275,6.580,10.412,0.738,0.337,0.584,10.252,-5.863,-17.359,0.962,none
4.070493,0.414,-0.075,-0.907,2501.81,-11.414,-1.902,1.119,0.257,-0.425,-0.868,0.456,0.395,-0.797,2520.84,-14.324,1.567,11.191,0.416,0.490,-0.766,0.029,-0.722,-0.692,2475.75,7.610,17.793,16.003,0.228,-0.418,-0.880,-0.064,0.485,-0.872,2463.53,-1.343,-0.448,0.336,0.580,-0.111,0.807,0.479,0.271,0.835,10.884,20.397,17.450,9.237,0.739,0.324,0.591,10.222,-5.802,-14.885,-2.763,none
4.070574,0.404,-0.064,-0.913,2497.04,-14.995,0.000,1.567,0.235,-0.422,-0.876,0.458,0.366,-0.810,2531.29,-12.533,2.014,8.729,0.428,0.455,-0.781,0.076,-0.655,-0.751,2487.12,7.386,16.003,23.836,0.238,-0.433,-0.870,-0.071,0.460,-0.885,2493.55,-1.343,-0.448,0.336,0.580,-0.111,0.807,0.449,0.281,0.848,10.858,19.038,9.450,7.481,0.737,0.325,0.593,10.181,-5.450,-13.206,-3.160,none
4.070654,0.412,-0.094,-0.906,2515.03,-8.393,1.343,1.790,0.240,-0.405,-0.882,0.461,0.377,-0.803,2538.97,-8.729,0.336,7.610,0.426,0.476,-0.770,0.071,-0.669,-0.740,2525.46,15.779,7.722,19.248,0.245,-0.447,-0.860,-0.067,0.457,-0.887,2487.84,-1.343,-0.448,0.336,0.580,-0.111,0.807,0.472,0.279,0.836,10.874,13.496,-0.840,3.740,0.735,0.331,0.591,10.188,-4.870,-13.053,-2.901,none
4.070728,0.414,-0.079,-0.907,2502.59,-7.610,-0.560,1.119,0.228,-0.410,-0.883,0.468,0.377,-0.799,2540.25,-8.617,0.560,4.029,0.435,0.458,-0.775,0.078,-0.660,-0.747,2528.46,8.505,4.252,11.079,0.247,-0.464,-0.851,-0.066,0.446,-0.892,2527.81,-1.343,-0.448,0.336,0.580,-0.111,0.807,0.477,0.284,0.832,10.841,10.092,-8.382,3.695,0.734,0.333,0.592,10.210,-4.305,-15.038,-0.061,none
4.070817,0.414,-0.079,-0.907,2502.59,-8.729,-1.231,-1.119,0.234,-0.394,-0.889,0.469,0.359,-0.807,2555.00,-9.512,0.895,-0.112,0.434,0.465,-0.772,0.072,-0.664,-0.744,2497.30,2.798,-0.671,1.343,0.247,-0.469,-0.848,-0.071,0.452,-0.889,2492.86,-1.343,-0.448,0.336,0.580,-0.111,0.807,0.501,0.279,0.819,10.890,6.763,-10.305,4.153,0.746,0.335,0.576,10.212,-4.183,-13.802,2.153,none
4.070894,0.412,-0.056,-0.909,2493.98,-9.400,-2.910,-2.574,0.226,-0.407,-0.885,0.462,0.378,-0.802,2531.74,-10.519,0.224,-2.798,0.419,0.479,-0.771,0.040,-0.692,-0.721,2483.79,-5.595,-1.343,-1.007,0.246,-0.469,-0.848,-0.076,0.471,-0.879,2434.24,-1.343,-0.448,0.336,0.580,-0.111,0.807,0.513,0.275,0.813,10.893,5.847,-11.359,5.527,0.750,0.331,0.573,10.232,-3.924,-11.359,4.137,none
4.070974,0.409,-0.060,-0.911,2491.36,-6.714,-3.917,-3.693,0.216,-0.389,-0.895,0.460,0.364,-0.810,2543.98,-8.505,-1.455,-4.700,0.421,0.475,-0.773,0.044,-0.682,-0.730,2505.65,-7.162,-0.560,2.014,0.241,-0.459,-0.855,-0.080,0.481,-0.873,2448.43,-1.343,-0.448,0.336,0.580,-0.111,0.807,0.520,0.276,0.808,10.900,6.153,-5.954,4.763,0.752,0.332,0.570,10.266,-3.817,-6.947,3.405,none
4.071044,0.403,-0.040,-0.914,2501.29,-0.560,-4.476,-1.902,0.223,-0.399,-0.889,0.452,0.394,-0.800,2524.74,-4.141,-4.924,-2.462,0.429,0.474,-0.769,0.044,-0.682,-0.730,2505.65,1.455,-4.700,7.050,0.233,-0.453,-0.860,-0.110,0.490,-0.865,2504.05,-1.343,-0.448,0.336,0.580,-0.111,0.807,0.529,0.264,0.806,10.900,3.557,-2.244,1.695,0.753,0.317,0.577,10.245,-7.069,-2.763,1.420,none
4.071438,0.398,-0.063,-0.915,2508.57,4.812,-3.917,0.895,0.220,-0.404,-0.888,0.444,0.371,-0.816,2549.16,1.567,-3.805,-1.343,0.427,0.467,-0.774,0.001,-0.732,-0.681,2572.05,9.960,-11.414,5.707,0.225,-0.450,-0.864,-0.133,0.445,-0.886,2579.63,-1.343,-0.448,0.336,0.580,-0.111,0.807,0.510,0.257,0.821,10.819,3.924,-2.275,2.748,0.746,0.308,0.590,10.161,-6.626,-6.885,2.443,none
4.071511,0.386,-0.071,-0.920,2507.72,-3.245,-5.483,-2.238,0.214,-0.403,-0.890,0.434,0.374,-0.820,2535.17,-12.645,-2.014,-6.043,0.425,0.472,-0.772,0.001,-0.701,-0.714,2522.36,-6.826,-2.238,-0.671,0.217,-0.448,-0.868,-0.142,0.479,-0.866,2559.28,-1.343,-0.448,0.336,0.580,-0.111,0.807,0.523,0.256,0.813,10.888,4.885,-4.885,1.588,0.758,0.306,0.576,10.247,-5.084,-9.191,1.023,none
4.071582,0.389,-0.068,-0.919,2488.64,-2.574,-2.574,0.112,0.210,-0.394,-0.895,0.435,0.374,-0.819,2529.44,-5.371,0.112,-1.790,0.429,0.457,-0.779,0.001,-0.705,-0.710,2480.55,-9.960,0.224,-2.126,0.214,-0.442,-0.871,-0.146,0.497,-0.855,2487.54,-1.343,-0.448,0.336,0.580,-0.111,0.807,0.527,0.256,0.811,10.867,4.382,-1.832,-2.168,0.754,0.313,0.578,10.238,-7.008,-5.221,-1.878,none
4.071652,0.388,-0.075,-0.919,2521.44,1.231,-2.126,3.469,0.196,-0.387,-0.901,0.430,0.388,-0.815,2539.98,-3.133,-3.469,2.574,0.420,0.459,-0.783,0.016,-0.678,-0.735,2491.38,-6.491,1.567,1.343,0.211,-0.433,-0.876,-0.138,0.487,-0.863,2478.53,-1.343,-0.448,0.336,0.580,-0.111,0.807,0.520,0.256,0.815,10.863,4.122,-0.137,-3.130,0.754,0.307,0.581,10.224,-8.290,-2.824,-1.573,none
4.071722,0.386,-0.067,-0.920,2507.94,2.798,-2.574,4.700,0.211,-0.399,-0.893,0.437,0.376,-0.817,2543.28,-0.112,-4.812,3.357,0.431,0.466,-0.773,0.013,-0.688,-0.725,2468.87,-4.476,-0.448,2.126,0.208,-0.425,-0.881,-0.141,0.468,-0.872,2495.16,-1.343,-0.448,0.336,0.580,-0.111,0.807,0.520,0.255,0.815,10.852,4.427,-0.504,-2.626,0.750,0.311,0.583,10.219,-7.649,-3.695,-1.496,none
4.071796,0.397,-0.079,-0.914,2512.25,0.671,-2.126,3.469,0.207,-0.399,-0.893,0.446,0.377,-0.812,2537.44,-0.671,-4.364,2.238,0.425,0.478,-0.769,0.013,-0.708,-0.706,2550.74,-2.798,-2.798,1.567,0.202,-0.418,-0.886,-0.140,0.461,-0.876,2530.14,-1.343,-0.448,0.336,0.580,-0.111,0.807,0.523,0.257,0.813,10.865,4.916,-1.252,-1.557,0.752,0.315,0.580,10.175,-6.122,-6.336,-0.534,none
4.071867,0.398,-0.067,-0.915,2509.22,-0.336,-1.231,0.560,0.207,-0.396,-0.895,0.441,0.384,-0.811,2540.24,-4.588,-2.574,-0.448,0.418,0.476,-0.774,0.013,-0.704,-0.710,2494.19,-3.917,-2.238,0.336,0.198,-0.417,-0.887,-0.140,0.471,-0.871,2521.11,-1.343,-0.448,0.336,0.580,-0.111,0.807,0.522,0.255,0.814,10.875,5.221,-1.282,-0.931,0.754,0.310,0.579,10.208,-5.481,-6.687,-0.672,none
4.071937,0.386,-0.071,-0.920,2507.72,-0.671,-1.567,0.560,0.205,-0.401,-0.893,0.439,0.382,-0.813,2532.39,-4.252,-1.567,-1.007,0.417,0.478,-0.773,0.009,-0.692,-0.722,2467.73,-3.021,-2.238,0.671,0.194,-0.412,-0.890,-0.149,0.475,-0.867,2497.93,-1.343,-0.448,0.336,0.580,-0.111,0.807,0.524,0.257,0.812,10.893,5.344,-1.527,-0.718,0.755,0.313,0.576,10.253,-5.664,-4.870,-0.382,none
4.074413,0.390,-0.071,-0.918,2512.51,1.343,-1.455,0.448,0.202,-0.406,-0.891,0.442,0.373,-0.816,2537.39,-2.798,-1.567,-0.783,0.399,0.481,-0.781,0.016,-0.684,-0.729,2497.00,-0.560,-2.574,0.895,0.192,-0.408,-0.893,-0.150,0.481,-0.864,2486.65,-1.343,-0.448,0.336,0.580,-0.111,0.807,0.525,0.255,0.812,10.881,4.947,-1.023,-0.611,0.754,0.311,0.578,10.237,-6.427,-2.855,0.137,none
4.074513,0.388,-0.064,-0.920,2498.09,1.119,-2.014,0.448,0.196,-0.393,-0.898,0.437,0.388,-0.811,2539.71,-0.895,-2.238,-0.448,0.408,0.484,-0.774,0.016,-0.678,-0.734,2517.49,6.155,-4.588,2.574,0.191,-0.408,-0.893,-0.156,0.471,-0.868,2519.05,-1.343,-0.448,0.336,0.580,-0.111,0.807,0.524,0.256,0.812,10.875,4.824,-1.664,-0.397,0.753,0.309,0.580,10.223,-6.641,-2.183,-0.366,none
4.074590,0.386,-0.067,-0.920,2507.94,2.238,-2.126,0.895,0.193,-0.407,-0.893,0.435,0.385,-0.814,2532.29,1.119,-3.021,0.560,0.434,0.452,-0.779,0.001,-0.714,-0.700,2544.30,9.736,-6.491,1.343,0.187,-0.410,-0.893,-0.156,0.471,-0.868,2519.05,-1.343,-0.448,0.336,0.580,-0.111,0.807,0.527,0.255,0.811,10.900,4.382,-1.893,-1.237,0.751,0.313,0.581,10.219,-6.779,-2.992,-0.794,none
4.091080,0.390,-0.071,-0.918,2512.51,2.462,-1.455,1.231,0.191,-0.405,-0.894,0.437,0.376,-0.817,2543.28,2.014,-1.679,0.895,0.424,0.474,-0.772,0.005,-0.700,-0.714,2523.10,2.462,-3.133,2.238,0.183,-0.411,-0.893,-0.156,0.468,-0.870,2514.35,-1.343,-0.448,0.336,0.580,-0.111,0.807,0.527,0.251,0.812,10.904,4.382,-0.947,-2.076,0.752,0.309,0.583,10.211,-6.672,-4.122,-0.855,none
4.112106,0.388,-0.079,-0.918,2522.20,0.783,-0.671,0.895,0.193,-0.403,-0.894,0.434,0.384,-0.815,2539.62,0.000,-1.119,0.560,0.417,0.464,-0.781,0.005,-0.696,-0.718,2495.69,2.126,-2.126,2.126,0.181,-0.412,-0.893,-0.161,0.466,-0.870,2502.56,-1.343,-0.448,0.336,0.580,-0.111,0.807,0.524,0.252,0.813,10.878,4.305,-0.962,-1.863,0.751,0.308,0.584,10.209,-6.504,-4.565,-0.763,none
4.132013,0.388,-0.076,-0.919,2515.83,1.007,-0.895,0.895,0.200,-0.392,-0.898,0.438,0.377,-0.816,2537.56,0.671,-1.007,0.671,0.403,0.477,-0.781,0.001,-0.705,-0.710,2508.13,3.133,-1.902,1.567,0.179,-0.411,-0.894,-0.163,0.458,-0.874,2524.84,-1.343,-0.448,0.336,0.580,-0.111,0.807,0.528,0.253,0.811,10.852,4.580,-1.084,-1.344,0.752,0.308,0.583,10.231,-5.878,-5.450,-0.275,none
4.152834,0.388,-0.076,-0.919,2515.83,0.783,-0.895,0.112,0.201,-0.401,-0.894,0.435,0.378,-0.817,2532.38,-1.567,-0.895,-0.671,0.416,0.463,-0.783,0.001,-0.700,-0.714,2508.22,0.895,-0.671,0.783,0.179,-0.414,-0.893,-0.161,0.471,-0.867,2497.70,-1.343,-0.448,0.336,0.580,-0.111,0.807,0.529,0.251,0.811,10.896,4.565,-0.489,-1.206,0.754,0.310,0.579,10.240,-5.985,-4.702,-0.031,none
4.579132,0.385,-0.072,-0.920,2511.30,1.343,-0.448,0.336,0.204,-0.381,-0.902,0.432,0.383,-0.816,2523.68,-1.567,-1.119,-1.007,0.424,0.463,-0.779,0.001,-0.697,-0.717,2509.09,0.895,-0.671,1.455,0.178,-0.413,-0.893,-0.164,0.475,-0.865,2517.83,-1.343,-0.448,0.336,0.580,-0.111,0.807,0.528,0.255,0.810,10.849,4.473,0.275,-1.435,0.754,0.308,0.581,10.221,-6.244,-2.931,-0.214,none
4.579252,0.385,-0.076,-0.920,2511.05,1.902,-0.895,0.783,0.188,-0.393,-0.900,0.430,0.381,-0.819,2538.40,0.671,-1.455,-0.112,0.408,0.479,-0.778,0.001,-0.699,-0.716,2515.36,2.798,-1.007,1.455,0.178,-0.415,-0.892,-0.168,0.472,-0.866,2515.23,-1.343,-0.448,0.336,0.580,-0.111,0.807,0.526,0.252,0.813,10.888,4.519,-0.015,-1.267,0.751,0.308,0.584,10.199,-6.260,-2.702,-0.565,none
4.579344,0.384,-0.084,-0.919,2513.56,2.238,-0.336,0.895,0.202,-0.402,-0.893,0.433,0.372,-0.821,2543.37,3.805,-0.783,1.119,0.412,0.470,-0.781,-0.003,-0.704,-0.710,2537.13,2.574,-0.895,0.783,0.180,-0.415,-0.892,-0.168,0.472,-0.866,2515.23,-1.343,-0.448,0.336,0.580,-0.111,0.807,0.529,0.251,0.811,10.858,4.702,-0.229,-1.298,0.752,0.308,0.583,10.198,-6.092,-3.191,-0.901,none
4.579439,0.384,-0.084,-0.919,2513.56,1.455,-0.224,0.560,0.193,-0.402,-0.895,0.430,0.381,-0.819,2538.40,1.679,-0.560,0.783,0.411,0.478,-0.776,0.001,-0.697,-0.717,2509.09,1.455,-0.112,0.560,0.179,-0.414,-0.893,-0.161,0.468,-0.869,2493.87,-1.343,-0.448,0.336,0.580,-0.111,0.807,0.526,0.252,0.813,10.851,5.191,-0.031,-1.527,0.751,0.309,0.583,10.211,-5.924,-3.573,-1.130,none
4.579524,0.389,-0.084,-0.917,2507.32,0.783,-0.224,0.560,0.202,-0.400,-0.894,0.434,0.377,-0.819,2539.74,1.455,-0.224,0.895,0.428,0.460,-0.778,0.005,-0.698,-0.716,2502.66,3.357,-1.007,1.007,0.178,-0.418,-0.891,-0.162,0.462,-0.872,2483.70,-1.343,-0.448,0.336,0.580,-0.111,0.807,0.528,0.249,0.812,10.864,5.511,0.229,-1.496,0.750,0.309,0.585,10.216,-5.771,-3.511,-1.053,none
4.579633,0.388,-0.079,-0.918,2516.60,1.119,-0.336,0.448,0.193,-0.416,-0.889,0.442,0.378,-0.813,2516.62,1.455,-0.895,0.224,0.418,0.464,-0.781,0.016,-0.683,-0.730,2530.37,2.462,-2.014,0.671,0.177,-0.420,-0.890,-0.160,0.462,-0.872,2506.64,-1.343,-0.448,0.336,0.580,-0.111,0.807,0.524,0.251,0.814,10.879,5.924,0.260,-1.389,0.751,0.307,0.585,10.210,-5.511,-3.756,-1.115,none
4.579718,0.385,-0.076,-0.920,2511.05,0.783,-0.112,0.336,0.194,-0.392,-0.899,0.437,0.381,-0.815,2524.16,1.119,-1.007,-0.112,0.435,0.459,-0.775,-0.019,-0.728,-0.686,2482.79,1.455,-5.595,-4.141,0.173,-0.416,-0.893,-0.161,0.471,-0.867,2497.70,-1.343,-0.448,0.336,0.580,-0.111,0.807,0.523,0.251,0.815,10.837,6.183,-0.733,-0.489,0.751,0.309,0.584,10.203,-5.221,-4.214,-0.947,none
4.579805,0.385,-0.080,-0.920,2511.82,0.895,-0.224,0.000,0.201,-0.386,-0.900,0.441,0.377,-0.815,2523.95,0.671,-0.448,-1.007,0.416,0.468,-0.779,0.001,-0.695,-0.719,2502.13,-2.462,-3.133,-2.126,0.172,-0.414,-0.894,-0.158,0.470,-0.869,2483.59,-1.343,-0.448,0.336,0.580,-0.111,0.807,0.528,0.253,0.811,10.876,6.031,-1.588,-0.076,0.750,0.310,0.584,10.209,-5.252,-3.908,-0.336,none
4.579885,0.388,-0.079,-0.918,2516.60,1.679,-0.448,-0.560,0.193,-0.410,-0.892,0.443,0.380,-0.812,2532.15,-0.336,-1.343,-1.902,0.423,0.465,-0.778,-0.003,-0.702,-0.712,2501.10,0.336,-4.252,-1.567,0.169,-0.410,-0.896,-0.162,0.467,-0.869,2479.63,-1.343,-0.448,0.336,0.580,-0.111,0.807,0.529,0.253,0.810,10.881,5.481,-1.863,0.198,0.749,0.311,0.585,10.202,-5.359,-4.198,0.763,none
4.579959,0.388,-0.083,-0.918,2516.50,2.798,-0.671,-0.560,0.209,-0.410,-0.888,0.438,0.377,-0.816,2520.37,-2.014,-1.902,-2.798,0.421,0.468,-0.777,-0.011,-0.710,-0.704,2530.20,-0.336,-3.917,-0.560,0.168,-0.411,-0.896,-0.168,0.467,-0.868,2519.20,-1.343,-0.448,0.336,0.580,-0.111,0.807,0.531,0.252,0.809,10.870,4.809,-2.229,0.382,0.751,0.308,0.584,10.209,-6.046,-3.725,0.824,none
4.580034,0.383,-0.080,-0.920,2500.09,2.574,-1.231,-0.560,0.202,-0.403,-0.893,0.429,0.392,-0.814,2503.04,-1.007,-2.686,-1.902,0.416,0.473,-0.777,-0.003,-0.695,-0.719,2502.14,-2.238,-2.574,1.007,0.164,-0.407,-0.899,-0.174,0.471,-0.865,2539.16,-1.343,-0.448,0.336,0.580,-0.111,0.807,0.531,0.249,0.810,10.878,4.412,-1.130,-0.229,0.751,0.305,0.586,10.208,-6.458,-3.023,0.229,none
4.580106,0.377,-0.084,-0.923,2514.62,3.133,-1.231,0.448,0.197,-0.404,-0.893,0.430,0.377,-0.820,2519.49,2.910,-2.014,0.000,0.408,0.489,-0.771,-0.011,-0.704,-0.710,2494.84,1.679,-2.462,0.000,0.163,-0.404,-0.900,-0.182,0.467,-0.865,2539.35,-1.343,-0.448,0.336,0.580,-0.111,0.807,0.529,0.245,0.812,10.890,4.962,-0.168,-1.191,0.749,0.302,0.590,10.200,-5.954,-3.496,-0.565,none
4.580195,0.383,-0.091,-0.919,2524.50,2.462,-0.112,0.895,0.195,-0.411,-0.891,0.436,0.372,-0.820,2532.54,2.350,-0.560,0.448,0.415,0.481,-0.773,-0.003,-0.701,-0.714,2522.37,1.567,-0.783,-0.671,0.163,-0.406,-0.899,-0.168,0.458,-0.873,2505.33,-1.343,-0.448,0.336,0.580,-0.111,0.807,0.530,0.249,0.811,10.886,5.420,-0.489,-1.084,0.749,0.308,0.586,10.216,-5.450,-4.214,-0.580,none
4.580264,0.384,-0.088,-0.919,2513.49,0.560,0.000,0.000,0.202,-0.392,-0.898,0.436,0.376,-0.817,2527.72,1.455,-0.224,0.000,0.412,0.483,-0.773,0.013,-0.686,-0.727,2502.99,0.112,-1.119,-1.790,0.162,-0.406,-0.899,-0.165,0.465,-0.870,2489.97,-1.343,-0.448,0.336,0.580,-0.111,0.807,0.531,0.250,0.809,10.861,5.527,0.366,-1.237,0.751,0.308,0.585,10.212,-5.664,-2.931,-0.565,none
4.580333,0.385,-0.080,-0.920,2511.82,1.902,-0.448,0.560,0.206,-0.395,-0.895,0.436,0.376,-0.817,2527.72,3.469,-1.343,0.560,0.408,0.484,-0.774,-0.003,-0.700,-0.714,2551.37,-0.560,-2.014,-2.014,0.162,-0.407,-0.899,-0.165,0.463,-0.871,2498.67,-1.343,-0.448,0.336,0.580,-0.111,0.807,0.531,0.250,0.810,10.840,5.282,0.779,-1.481,0.750,0.306,0.586,10.238,-5.939,-1.878,-0.473,none
4.580407,0.383,-0.083,-0.920,2521.84,2.574,-0.560,0.560,0.210,-0.415,-0.886,0.433,0.377,-0.819,2523.37,3.581,-1.679,0.448,0.421,0.475,-0.773,-0.007,-0.704,-0.710,2508.89,1.567,-3.021,-2.014,0.160,-0.404,-0.901,-0.165,0.465,-0.870,2489.97,-1.343,-0.448,0.336,0.580,-0.111,0.807,0.530,0.252,0.810,10.860,5.069,0.840,-1.603,0.747,0.308,0.589,10.205,-6.214,-1.908,-0.611,none
4.580478,0.384,-0.084,-0.919,2513.56,2.798,-0.224,1.007,0.203,-0.394,-0.897,0.437,0.370,-0.820,2521.45,3.469,-1.455,0.783,0.426,0.471,-0.772,-0.007,-0.708,-0.706,2522.31,3.581,-2.798,-0.895,0.157,-0.401,-0.902,-0.170,0.461,-0.871,2487.89,-1.343,-0.448,0.336,0.580,-0.111,0.807,0.530,0.251,0.810,10.894,4.763,0.366,-1.023,0.749,0.308,0.587,10.220,-6.580,-2.443,-0.336,none
4.585316,0.386,-0.084,-0.919,2504.37,2.014,-0.783,0.895,0.199,-0.412,-0.889,0.436,0.376,-0.817,2527.72,2.350,-1.902,0.448,0.415,0.482,-0.772,-0.015,-0.716,-0.698,2551.72,2.686,-2.014,0.448,0.155,-0.403,-0.902,-0.169,0.459,-0.872,2496.60,-1.343,-0.448,0.336,0.580,-0.111,0.807,0.528,0.252,0.811,10.858,4.168,-0.565,-0.611,0.745,0.309,0.591,10.207,-6.870,-3.466,0.107,none
4.585415,0.381,-0.092,-0.920,2511.87,2.574,-0.671,0.560,0.205,-0.404,-0.892,0.433,0.369,-0.822,2524.49,0.448,-1.679,-0.448,0.420,0.465,-0.780,-0.011,-0.704,-0.710,2508.98,1.902,-0.895,2.126,0.154,-0.400,-0.903,-0.172,0.470,-0.866,2503.39,-1.343,-0.448,0.336,0.580,-0.111,0.807,0.528,0.248,0.812,10.876,3.649,-0.718,-1.420,0.746,0.306,0.591,10.196,-7.008,-3.695,0.046,none
4.585494,0.382,-0.092,-0.919,2502.67,1.790,-0.671,0.895,0.199,-0.394,-0.897,0.434,0.370,-0.821,2517.09,0.671,-1.343,0.448,0.418,0.469,-0.778,-0.011,-0.698,-0.716,2502.78,4.141,-0.448,3.021,0.154,-0.402,-0.902,-0.172,0.462,-0.870,2501.88,-1.343,-0.448,0.336,0.580,-0.111,0.807,0.532,0.248,0.809,10.866,3.679,-0.473,-1.893,0.745,0.307,0.593,10.200,-7.053,-4.351,-0.031,none
4.585567,0.378,-0.088,-0.922,2506.25,0.560,-0.671,0.783,0.210,-0.407,-0.889,0.435,0.375,-0.819,2511.80,-0.783,-1.007,0.336,0.423,0.466,-0.777,-0.007,-0.704,-0.710,2508.89,5.036,0.112,2.238,0.152,-0.410,-0.899,-0.176,0.457,-0.872,2507.73,-1.343,-0.448,0.336,0.580,-0.111,0.807,0.527,0.248,0.813,10.848,4.015,0.305,-2.824,0.746,0.307,0.591,10.208,-7.023,-4.336,-0.214,none
4.599976,0.381,-0.088,-0.920,2510.97,0.112,-0.783,0.895,0.208,-0.411,-0.888,0.433,0.380,-0.818,2527.16,-0.783,-1.231,0.560,0.413,0.463,-0.784,-0.007,-0.706,-0.708,2447.36,-0.560,1.119,3.021,0.152,-0.411,-0.899,-0.173,0.464,-0.869,2493.18,-1.343,-0.448,0.336,0.580,-0.111,0.807,0.529,0.245,0.813,10.849,3.695,-0.519,-3.145,0.748,0.304,0.589,10.215,-7.420,-3.679,-0.336,none
4.621154,0.381,-0.080,-0.921,2509.30,1.343,-0.671,1.455,0.207,-0.426,-0.881,0.434,0.378,-0.818,2516.01,0.224,-1.567,0.783,0.418,0.458,-0.785,-0.011,-0.712,-0.702,2508.32,3.245,0.000,2.686,0.154,-0.411,-0.899,-0.179,0.448,-0.876,2519.25,-1.343,-0.448,0.336,0.580,-0.111,0.807,0.536,0.243,0.808,10.866,4.275,-1.084,-2.504,0.748,0.300,0.592,10.196,-6.702,-4.840,-0.427,none
4.642292,0.381,-0.092,-0.920,2511.87,-0.336,-0.671,0.560,0.197,-0.410,-0.891,0.430,0.377,-0.820,2519.49,-1.343,-1.119,-0.112,0.422,0.461,-0.781,-0.011,-0.710,-0.704,2515.35,2.798,0.000,1.567,0.152,-0.413,-0.898,-0.183,0.452,-0.873,2516.82,-1.343,-0.448,0.336,0.580,-0.111,0.807,0.531,0.243,0.812,10.830,5.206,0.733,-1.573,0.749,0.300,0.590,10.202,-5.939,-5.252,-0.779,none
4.662109,0.381,-0.092,-0.920,2511.87,-0.224,0.112,0.336,0.203,-0.414,-0.887,0.431,0.374,-0.821,2516.92,-1.343,-0.560,-0.112,0.411,0.472,-0.780,-0.011,-0.712,-0.702,2523.17,1.119,0.336,0.671,0.152,-0.416,-0.897,-0.184,0.458,-0.870,2503.49,-1.343,-0.448,0.336,0.580,-0.111,0.807,0.531,0.247,0.811,10.840,5.527,0.458,-1.496,0.747,0.302,0.593,10.211,-5.756,-5.252,-1.008,none
5.087977,0.380,-0.091,-0.921,2520.15,-0.336,0.112,0.000,0.217,-0.403,-0.889,0.432,0.373,-0.821,2528.20,-0.560,0.000,0.448,0.416,0.463,-0.783,-0.003,-0.708,-0.706,2479.84,-1.567,0.224,0.671,0.152,-0.413,-0.898,-0.181,0.460,-0.869,2492.10,-1.343,-0.448,0.336,0.580,-0.111,0.807,0.529,0.248,0.812,10.869,5.695,0.427,-1.420,0.746,0.304,0.593,10.219,-5.634,-4.580,-0.779,none
5.088568,0.384,-0.091,-0.919,2514.39,0.112,-0.336,0.224,0.199,-0.421,-0.885,0.434,0.374,-0.820,2520.81,-0.224,-0.224,-0.112,0.414,0.467,-0.782,-0.011,-0.708,-0.706,2508.26,-0.112,-0.224,0.560,0.152,-0.415,-0.897,-0.180,0.462,-0.869,2506.27,-1.343,-0.448,0.336,0.580,-0.111,0.807,0.531,0.246,0.811,10.868,5.618,0.275,-1.298,0.745,0.303,0.594,10.207,-5.710,-4.748,-0.458,none
5.088654,0.381,-0.092,-0.920,2511.87,0.112,-0.560,0.000,0.201,-0.401,-0.894,0.429,0.373,-0.822,2524.32,0.336,-0.448,-0.112,0.407,0.475,-0.780,-0.007,-0.704,-0.710,2508.89,0.895,-0.560,0.671,0.151,-0.412,-0.899,-0.180,0.459,-0.870,2500.80,-1.343,-0.448,0.336,0.580,-0.111,0.807,0.529,0.246,0.812,10.868,5.695,0.107,-1.542,0.746,0.304,0.592,10.209,-5.695,-5.084,-0.611,none
5.088738,0.382,-0.092,-0.919,2502.67,-0.112,-0.560,-0.112,0.202,-0.397,-0.895,0.434,0.374,-0.820,2520.81,-1.007,-0.448,-0.112,0.404,0.487,-0.774,-0.007,-0.704,-0.710,2508.89,1.455,-0.336,0.224,0.153,-0.414,-0.897,-0.180,0.459,-0.870,2500.80,-1.343,-0.448,0.336,0.580,-0.111,0.807,0.530,0.247,0.811,10.875,5.695,0.153,-1.557,0.748,0.305,0.590,10.226,-5.679,-4.809,-0.626,none
5.088823,0.378,-0.092,-0.921,2507.15,-0.560,-0.560,-0.112,0.204,-0.399,-0.894,0.432,0.379,-0.819,2512.11,-0.560,-0.448,0.000,0.414,0.465,-0.782,-0.011,-0.706,-0.708,2501.89,1.679,-0.336,0.560,0.150,-0.416,-0.897,-0.185,0.460,-0.869,2494.80,-1.343,-0.448,0.336,0.580,-0.111,0.807,0.532,0.244,0.811,10.860,5.435,0.244,-1.695,0.747,0.300,0.593,10.204,-6.061,-4.061,-1.099,none
5.088896,0.378,-0.095,-0.921,2507.99,0.783,-0.671,0.671,0.209,-0.407,-0.889,0.430,0.370,-0.824,2520.61,0.336,-0.783,0.783,0.412,0.463,-0.784,-0.011,-0.704,-0.710,2440.40,-1.007,-0.895,1.455,0.152,-0.415,-0.897,-0.189,0.472,-0.861,2494.21,-1.343,-0.448,0.336,0.580,-0.111,0.807,0.530,0.245,0.812,10.872,5.282,0.504,-1.847,0.748,0.303,0.590,10.212,-6.336,-3.603,-2.076,none
5.088972,0.377,-0.099,-0.921,2509.89,0.448,-0.224,1.679,0.203,-0.423,-0.883,0.432,0.368,-0.824,2532.72,0.000,-1.231,1.790,0.401,0.476,-0.782,-0.011,-0.704,-0.710,2522.41,0.560,-0.560,1.567,0.151,-0.414,-0.898,-0.192,0.462,-0.866,2503.18,-1.343,-0.448,0.336,0.580,-0.111,0.807,0.531,0.248,0.811,10.873,4.916,0.626,-2.290,0.748,0.307,0.589,10.208,-6.779,-2.885,-2.458,none
5.089047,0.384,-0.095,-0.918,2515.23,0.224,0.000,1.902,0.201,-0.407,-0.891,0.432,0.373,-0.821,2528.20,0.671,-2.014,2.126,0.414,0.472,-0.778,0.001,-0.704,-0.710,2551.26,-1.567,1.567,0.671,0.149,-0.415,-0.897,-0.183,0.475,-0.861,2517.70,-1.343,-0.448,0.336,0.580,-0.111,0.807,0.529,0.249,0.812,10.867,4.412,0.458,-2.809,0.746,0.306,0.592,10.223,-6.885,-2.595,-1.954,none
5.089122,0.386,-0.084,-0.919,2504.37,1.455,0.112,2.014,0.194,-0.409,-0.892,0.437,0.370,-0.820,2521.45,2.238,-1.231,2.126,0.403,0.473,-0.784,-0.011,-0.708,-0.706,2508.26,6.491,-1.231,2.014,0.146,-0.411,-0.900,-0.182,0.446,-0.876,2484.03,-1.343,-0.448,0.336,0.580,-0.111,0.807,0.529,0.248,0.812,10.890,4.870,1.053,-2.504,0.746,0.306,0.592,10.209,-6.763,-3.008,-1.130,none
5.089655,0.376,-0.091,-0.922,2517.29,0.895,0.000,1.343,0.202,-0.409,-0.890,0.432,0.379,-0.819,2512.11,0.224,-1.790,1.119,0.423,0.464,-0.778,-0.003,-0.700,-0.714,2412.07,-1.790,0.895,2.686,0.146,-0.411,-0.900,-0.188,0.470,-0.862,2501.96,-1.343,-0.448,0.336,0.580,-0.111,0.807,0.530,0.243,0.812,10.879,5.053,1.985,-2.748,0.745,0.302,0.595,10.224,-6.947,-1.863,-1.282,none
5.089734,0.378,-0.092,-0.921,2507.15,1.790,-0.448,1.567,0.203,-0.414,-0.887,0.428,0.375,-0.823,2511.81,2.574,-2.126,1.567,0.411,0.462,-0.786,-0.011,-0.710,-0.704,2501.20,7.274,-1.231,2.686,0.146,-0.416,-0.898,-0.195,0.453,-0.870,2513.59,-1.343,-0.448,0.336,0.580,-0.111,0.807,0.530,0.243,0.812,10.846,5.435,1.008,-2.183,0.741,0.302,0.599,10.198,-6.229,-2.519,-1.634,none
5.089813,0.378,-0.095,-0.921,2507.99,1.567,-0.336,1.679,0.195,-0.411,-0.890,0.433,0.369,-0.822,2524.49,2.686,-1.231,1.455,0.404,0.470,-0.784,-0.007,-0.716,-0.698,2536.65,4.252,-0.895,1.231,0.144,-0.417,-0.897,-0.191,0.439,-0.878,2524.70,-1.343,-0.448,0.336,0.580,-0.111,0.807,0.528,0.244,0.813,10.868,6.275,0.947,-1.389,0.742,0.305,0.597,10.178,-5.191,-4.321,-0.870,none
5.089892,0.384,-0.095,-0.918,2515.23,0.671,0.112,0.224,0.192,-0.408,-0.893,0.434,0.374,-0.820,2520.81,0.448,-0.112,-0.671,0.405,0.474,-0.782,-0.011,-0.716,-0.698,2523.31,-2.798,-0.895,-0.448,0.144,-0.419,-0.897,-0.185,0.449,-0.874,2489.46,-1.343,-0.448,0.336,0.580,-0.111,0.807,0.529,0.246,0.812,10.882,6.397,0.916,-0.763,0.745,0.304,0.594,10.220,-5.160,-4.672,-0.305,none
5.089966,0.378,-0.092,-0.921,2507.15,0.112,-0.336,-0.448,0.196,-0.408,-0.892,0.428,0.375,-0.823,2511.81,0.895,-0.783,-1.007,0.421,0.456,-0.784,-0.011,-0.706,-0.708,2501.89,-4.364,-1.343,-0.224,0.144,-0.415,-0.898,-0.193,0.464,-0.865,2493.66,-1.343,-0.448,0.336,0.580,-0.111,0.807,0.530,0.246,0.812,10.883,5.771,0.397,-1.191,0.748,0.302,0.591,10.227,-6.015,-3.786,-0.473,none
5.090036,0.379,-0.088,-0.921,2497.04,1.343,-0.560,0.448,0.216,-0.413,-0.885,0.426,0.377,-0.823,2523.42,2.798,-1.455,0.112,0.408,0.479,-0.778,-0.011,-0.706,-0.708,2529.47,-0.783,-2.238,-1.679,0.143,-0.409,-0.901,-0.196,0.459,-0.867,2500.32,-1.343,-0.448,0.336,0.580,-0.111,0.807,0.529,0.245,0.813,10.856,5.649,0.534,-1.450,0.744,0.302,0.597,10.178,-6.137,-3.008,-0.733,none
5.090106,0.382,-0.099,-0.919,2503.57,2.574,-0.448,1.231,0.210,-0.408,-0.888,0.431,0.360,-0.827,2533.69,3.917,-1.231,0.336,0.427,0.469,-0.773,-0.015,-0.710,-0.704,2516.18,-2.014,-2.238,-2.462,0.140,-0.407,-0.902,-0.193,0.451,-0.871,2498.61,-1.343,-0.448,0.336,0.580,-0.111,0.807,0.531,0.245,0.811,10.869,6.015,0.473,-1.252,0.742,0.303,0.598,10.192,-5.878,-3.405,-0.397,none
5.090175,0.376,-0.092,-0.922,2495.09,2.238,-0.783,1.007,0.197,-0.393,-0.898,0.428,0.375,-0.823,2511.81,2.462,-1.790,-0.112,0.413,0.474,-0.778,-0.007,-0.700,-0.714,2481.41,-4.141,-2.238,-2.798,0.139,-0.408,-0.902,-0.188,0.455,-0.870,2500.37,-1.343,-0.448,0.336,0.580,-0.111,0.807,0.529,0.248,0.811,10.875,5.725,-1.038,-1.832,0.743,0.302,0.597,10.202,-6.260,-2.015,-0.962,none
5.094530,0.375,-0.102,-0.922,2528.40,2.014,-1.007,1.119,0.211,-0.403,-0.891,0.425,0.364,-0.829,2530.01,3.245,-1.455,0.671,0.396,0.482,-0.782,-0.015,-0.710,-0.704,2529.61,-2.798,-2.574,-3.357,0.137,-0.400,-0.906,-0.189,0.453,-0.871,2487.99,-1.343,-0.448,0.336,0.580,-0.111,0.807,0.517,0.240,0.822,10.882,6.092,2.290,-1.450,0.744,0.299,0.598,10.219,-6.000,-2.031,-1.542,none
5.094626,0.323,0.131,-0.938,2297.56,1.679,-0.336,1.231,0.183,-0.412,-0.893,0.427,0.370,-0.825,2517.15,3.805,-1.231,1.119,0.414,0.473,-0.778,-0.023,-0.718,-0.696,2516.84,-0.448,-3.357,-3.805,0.131,-0.398,-0.908,-0.190,0.450,-0.873,2483.48,-1.343,-0.448,0.336,0.580,-0.111,0.807,0.536,0.246,0.808,10.879,6.885,-2.962,-0.656,0.743,0.305,0.596,10.221,-5.221,-1.557,-2.275,none
5.094704,0.382,-0.282,-0.880,2760.42,92.098,26.074,8.505,0.213,-0.419,-0.883,0.432,0.368,-0.824,2532.72,4.252,-1.119,1.455,0.407,0.463,-0.787,-0.003,-0.704,-0.710,2522.99,-1.902,-3.133,-1.679,0.131,-0.394,-0.910,-0.177,0.448,-0.876,2495.47,-1.343,-0.448,0.336,0.580,-0.111,0.807,0.531,0.246,0.811,10.881,6.122,-0.168,-1.176,0.741,0.306,0.598,10.203,-5.344,-2.550,-1.985,none
5.098094,0.392,-0.228,-0.891,2638.34,87.510,26.298,8.281,0.231,-0.420,-0.878,0.427,0.370,-0.825,2517.15,5.483,-1.455,1.007,0.419,0.467,-0.779,-0.007,-0.702,-0.712,2516.00,-2.126,-3.469,-2.798,0.130,-0.391,-0.911,-0.190,0.420,-0.887,2475.05,-1.343,-0.448,0.336,0.580,-0.111,0.807,0.580,0.245,0.776,10.983,8.397,21.405,2.382,0.741,0.307,0.597,10.196,-5.450,-3.679,-1.282,none
5.118603,0.391,-0.133,-0.911,2472.30,62.108,17.569,6.602,0.232,-0.441,-0.867,0.430,0.354,-0.831,2523.04,5.819,-0.895,-0.336,0.408,0.457,-0.791,-0.011,-0.690,-0.723,2474.29,-3.469,-3.581,-2.686,0.126,-0.389,-0.913,-0.194,0.458,-0.868,2485.77,-1.343,-0.448,0.336,0.580,-0.111,0.807,0.551,0.255,0.794,10.786,6.931,30.718,5.649,0.740,0.305,0.599,10.185,-6.519,-2.290,-1.145,none
5.138744,0.393,-0.195,-0.899,2483.87,75.536,18.129,8.057,0.253,-0.463,-0.850,0.425,0.353,-0.833,2527.92,7.050,-2.238,1.007,0.408,0.460,-0.788,-0.011,-0.698,-0.716,2488.64,0.112,-3.805,-2.126,0.124,-0.386,-0.914,-0.191,0.459,-0.868,2520.51,-1.343,-0.448,0.336,0.580,-0.111,0.807,0.475,0.136,0.870,10.559,6.901,25.710,0.748,0.740,0.301,0.602,10.170,-6.885,-0.351,-0.641,none
5.159484,0.397,-0.247,-0.884,2557.69,66.920,9.400,7.274,0.259,-0.454,-0.852,0.426,0.346,-0.836,2520.92,7.498,-2.126,1.231,0.396,0.483,-0.781,-0.007,-0.696,-0.718,2495.72,-1.007,-4.252,-4.029,0.121,-0.383,-0.916,-0.188,0.435,-0.881,2504.83,-1.343,-0.448,0.336,0.580,-0.111,0.807,0.487,0.249,0.837,10.734,7.084,11.221,1.756,0.733,0.302,0.610,10.154,-5.817,-0.992,-0.626,none
5.180814,0.388,-0.211,-0.897,2487.88,10.743,-5.371,1.790,0.259,-0.475,-0.841,0.427,0.344,-0.836,2539.40,5.148,-1.455,0.224,0.407,0.471,-0.783,-0.026,-0.725,-0.688,2545.93,-2.126,-5.036,-6.602,0.117,-0.382,-0.917,-0.185,0.457,-0.870,2490.67,-1.343,-0.448,0.336,0.580,-0.111,0.807,0.591,0.224,0.775,11.288,7.542,3.618,3.053,0.737,0.305,0.603,10.158,-4.321,-3.084,0.183,none
5.599220,0.401,-0.169,-0.900,2458.17,-4.141,-7.274,-2.462,0.253,-0.482,-0.839,0.426,0.366,-0.827,2520.90,0.560,-0.895,-2.686,0.412,0.463,-0.784,-0.011,-0.702,-0.712,2516.09,-8.057,-2.798,-4.588,0.114,-0.380,-0.918,-0.188,0.470,-0.862,2501.96,-1.343,-0.448,0.336,0.580,-0.111,0.807,0.500,0.295,0.814,10.629,7.374,-6.656,3.511,0.741,0.304,0.599,10.237,-4.397,-1.557,1.206,none
5.599372,0.376,-0.236,-0.896,2545.82,-7.833,-4.924,-3.021,0.259,-0.476,-0.840,0.422,0.358,-0.833,2518.55,3.581,-0.895,-3.021,0.411,0.472,-0.780,-0.007,-0.694,-0.720,2474.63,-5.819,-3.805,-4.924,0.110,-0.374,-0.921,-0.201,0.445,-0.873,2492.52,-1.343,-0.448,0.336,0.580,-0.111,0.807,0.453,0.276,0.847,10.449,8.550,-2.977,-0.809,0.734,0.314,0.602,10.210,-6.458,3.344,0.229,none
5.599450,0.564,-0.564,-0.602,5220.61,-198.745,-77.998,-66.696,0.248,-0.455,-0.855,0.435,0.329,-0.838,2534.47,3.357,-2.238,-1.119,0.404,0.470,-0.784,-0.003,-0.686,-0.728,2461.80,-5.260,-3.693,-4.476,0.108,-0.368,-0.924,-0.201,0.410,-0.890,2490.19,-1.343,-0.448,0.336,0.580,-0.111,0.807,0.402,0.299,0.866,10.182,3.099,3.084,-7.771,0.720,0.303,0.624,10.162,-5.084,-2.824,0.336,none
5.599543,0.073,0.994,-0.086,6342.66,-432.404,-88.406,7.610,0.201,-0.421,-0.884,0.412,0.430,-0.803,2462.56,-0.671,-5.148,-0.671,0.420,0.460,-0.782,-0.019,-0.692,-0.721,2454.64,-7.833,-3.357,-4.252,0.103,-0.361,-0.927,-0.160,0.425,-0.891,2697.37,-1.343,-0.448,0.336,0.580,-0.111,0.807,0.519,0.240,0.820,10.859,3.206,-7.008,-9.710,0.732,0.305,0.610,10.142,-6.305,-1.878,0.427,none
5.599636,0.365,-0.058,-0.929,2433.22,36.929,9.064,3.021,0.219,-0.453,-0.864,0.417,0.353,-0.837,2526.18,9.064,0.224,-1.119,0.408,0.467,-0.784,-0.019,-0.706,-0.708,2501.48,-5.148,-3.357,-4.588,0.103,-0.360,-0.927,-0.190,0.435,-0.880,2482.88,-1.343,-0.448,0.336,0.580,-0.111,0.807,0.516,0.250,0.819,10.827,7.511,1.069,0.504,0.733,0.301,0.610,10.205,-5.649,-2.198,0.153,none
5.599716,0.376,-0.154,-0.914,2518.17,3.469,-1.119,0.112,0.224,-0.429,-0.875,0.425,0.345,-0.837,2526.78,2.350,-1.231,-1.455,0.411,0.467,-0.783,-0.018,-0.710,-0.704,2557.35,-5.148,-3.133,-5.260,0.098,-0.354,-0.930,-0.171,0.433,-0.885,2580.90,-1.343,-0.448,0.336,0.580,-0.111,0.807,0.515,0.247,0.821,10.853,5.786,-0.229,-0.397,0.736,0.301,0.606,10.234,-5.374,-2.870,0.840,none
5.599822,0.382,-0.132,-0.915,2481.39,-5.595,-3.469,-1.007,0.215,-0.448,-0.868,0.419,0.362,-0.833,2517.12,-1.790,-1.902,-3.133,0.403,0.460,-0.791,-0.007,-0.690,-0.723,2460.75,-6.826,-2.910,-4.588,0.093,-0.352,-0.931,-0.182,0.443,-0.878,2479.58,-1.343,-0.448,0.336,0.580,-0.111,0.807,0.516,0.247,0.820,10.867,5.649,-0.321,-0.015,0.733,0.302,0.610,10.199,-5.695,-1.496,0.962,none
5.599908,0.383,-0.161,-0.909,2519.26,0.224,-2.350,0.112,0.231,-0.440,-0.868,0.421,0.341,-0.840,2527.50,3.133,-1.231,-2.014,0.408,0.461,-0.788,-0.026,-0.698,-0.715,2559.35,-0.112,-3.581,-3.245,0.091,-0.346,-0.934,-0.188,0.435,-0.881,2504.83,-1.343,-0.448,0.336,0.580,-0.111,0.807,0.518,0.251,0.817,10.875,4.748,-1.237,-1.237,0.730,0.300,0.614,10.177,-5.634,-2.504,0.412,none
5.600005,0.383,-0.151,-0.912,2501.28,2.350,-1.231,0.224,0.230,-0.434,-0.871,0.418,0.347,-0.840,2519.18,0.895,-0.895,-1.567,0.401,0.471,-0.786,-0.022,-0.702,-0.712,2544.87,-1.231,-1.455,-0.783,0.087,-0.346,-0.934,-0.190,0.445,-0.875,2533.54,-1.343,-0.448,0.336,0.580,-0.111,0.807,0.491,0.196,0.849,10.283,8.061,-6.229,-3.206,0.736,0.300,0.607,10.182,-5.954,-2.962,0.000,none
5.600085,0.378,-0.128,-0.917,2477.20,-0.783,-1.343,-0.112,0.226,-0.440,-0.869,0.415,0.358,-0.837,2518.53,0.224,-1.119,-0.560,0.406,0.464,-0.787,-0.003,-0.672,-0.740,2511.71,-0.671,-0.448,-0.336,0.086,-0.344,-0.935,-0.195,0.429,-0.882,2513.85,-1.343,-0.448,0.336,0.580,-0.111,0.807,0.498,0.306,0.812,10.304,4.382,20.656,14.351,0.727,0.300,0.617,10.130,-5.115,-2.656,0.183,none
5.600155,0.379,-0.120,-0.918,2474.71,2.574,0.112,0.000,0.228,-0.433,-0.872,0.418,0.339,-0.843,2545.17,1.119,-0.224,-0.671,0.404,0.472,-0.784,-0.007,-0.686,-0.727,2475.26,-3.581,-0.336,-2.350,0.084,-0.343,-0.935,-0.191,0.433,-0.881,2515.54,-1.343,-0.448,0.336,0.580,-0.111,0.807,0.533,0.245,0.810,10.848,5.420,-4.931,1.511,0.732,0.302,0.611,10.227,-5.359,-4.260,-0.076,none
5.600230,0.384,-0.173,-0.907,2514.29,8.617,2.126,1.679,0.234,-0.465,-0.854,0.418,0.358,-0.835,2522.69,0.783,-0.448,0.224,0.408,0.467,-0.784,-0.007,-0.693,-0.721,2509.39,-2.350,0.000,-1.902,0.083,-0.340,-0.937,-0.186,0.446,-0.876,2484.99,-1.343,-0.448,0.336,0.580,-0.111,0.807,0.535,0.241,0.810,10.879,4.824,1.603,-2.092,0.730,0.301,0.613,10.149,-6.092,-2.672,-0.809,none
5.600303,0.400,-0.189,-0.897,2565.24,9.288,2.910,2.462,0.225,-0.445,-0.867,0.426,0.328,-0.843,2543.94,4.141,-0.112,0.783,0.420,0.445,-0.791,-0.003,-0.697,-0.717,2509.10,0.448,-0.560,-2.574,0.084,-0.338,-0.937,-0.185,0.422,-0.888,2486.72,-1.343,-0.448,0.336,0.580,-0.111,0.807,0.525,0.243,0.816,10.880,6.092,-2.290,0.076,0.732,0.298,0.612,10.265,-5.618,-4.122,-0.427,none
5.600372,0.396,-0.232,-0.888,2589.91,12.757,2.686,1.790,0.234,-0.467,-0.853,0.418,0.350,-0.838,2521.82,0.560,-0.895,-0.783,0.411,0.466,-0.783,0.009,-0.680,-0.733,2483.80,-1.119,-1.343,-4.029,0.081,-0.338,-0.938,-0.176,0.431,-0.885,2503.87,-1.343,-0.448,0.336,0.580,-0.111,0.807,0.532,0.243,0.811,10.867,6.412,-2.107,0.092,0.731,0.301,0.613,10.205,-5.573,-2.824,-0.290,none
5.600440,0.389,-0.144,-0.910,2483.59,5.371,0.000,1.119,0.244,-0.449,-0.860,0.418,0.350,-0.838,2521.82,3.021,-1.343,-1.119,0.398,0.460,-0.794,0.001,-0.686,-0.727,2488.65,-4.700,-3.021,-6.043,0.077,-0.331,-0.940,-0.176,0.443,-0.879,2499.79,-1.343,-0.448,0.336,0.580,-0.111,0.807,0.391,0.297,0.871,10.658,17.420,68.992,-3.359,0.728,0.303,0.615,10.195,-5.786,-2.519,-0.122,none
5.600507,0.391,-0.147,-0.909,2498.94,4.812,-0.560,0.671,0.227,-0.456,-0.860,0.417,0.369,-0.830,2525.26,2.126,-0.336,-1.567,0.391,0.479,-0.786,-0.011,-0.696,-0.718,2509.95,-3.021,-4.700,-5.931,0.072,-0.328,-0.942,-0.178,0.439,-0.881,2481.73,-1.343,-0.448,0.336,0.580,-0.111,0.807,0.481,0.255,0.839,10.855,4.656,-6.458,1.618,0.730,0.300,0.614,10.176,-5.221,-3.053,0.336,none
5.600575,0.388,-0.169,-0.906,2517.34,7.050,0.112,0.224,0.233,-0.451,-0.862,0.418,0.355,-0.836,2518.65,1.790,-0.224,-2.574,0.405,0.475,-0.781,-0.019,-0.698,-0.715,2515.80,-1.119,-5.148,-4.812,0.068,-0.324,-0.944,-0.174,0.444,-0.879,2475.14,-1.343,-0.448,0.336,0.580,-0.111,0.807,0.590,0.221,0.776,11.126,0.214,-33.802,3.267,0.729,0.301,0.614,10.209,-4.763,-3.634,0.687,none
5.602828,0.387,-0.155,-0.909,2498.07,4.141,-0.224,-1.007,0.242,-0.452,-0.859,0.419,0.340,-0.842,2536.75,1.007,0.224,-3.357,0.398,0.470,-0.788,-0.011,-0.683,-0.731,2516.05,-1.119,-4.252,-3.245,0.065,-0.320,-0.945,-0.180,0.446,-0.877,2506.02,-1.343,-0.448,0.336,0.580,-0.111,0.807,0.533,0.242,0.811,10.925,5.298,-7.664,1.221,0.730,0.300,0.614,10.205,-4.977,-3.435,1.038,none
5.602931,0.385,-0.163,-0.909,2488.53,6.043,0.000,-1.007,0.223,-0.453,-0.863,0.418,0.347,-0.840,2519.18,0.448,0.671,-3.245,0.402,0.469,-0.786,-0.015,-0.694,-0.719,2517.26,-1.455,-3.693,-3.357,0.060,-0.317,-0.946,-0.183,0.433,-0.882,2512.67,-1.343,-0.448,0.336,0.580,-0.111,0.807,0.525,0.241,0.816,10.923,5.527,-4.168,1.008,0.729,0.300,0.616,10.194,-5.069,-3.664,1.176,none
5.603020,0.384,-0.181,-0.906,2517.65,5.260,-0.224,-1.231,0.230,-0.457,-0.859,0.419,0.332,-0.845,2538.46,1.007,0.448,-2.910,0.402,0.475,-0.783,-0.019,-0.689,-0.725,2524.23,-3.021,-3.133,-3.581,0.054,-0.315,-0.948,-0.188,0.438,-0.879,2509.64,-1.343,-0.448,0.336,0.580,-0.111,0.807,0.527,0.239,0.816,10.886,6.092,-4.198,0.794,0.726,0.297,0.620,10.196,-4.931,-5.405,0.687,none
5.618828,0.380,-0.181,-0.907,2515.12,2.014,0.000,-1.455,0.228,-0.462,-0.857,0.411,0.343,-0.845,2516.27,-1.231,0.560,-2.574,0.412,0.451,-0.792,-0.023,-0.688,-0.725,2511.03,-3.133,-1.902,-3.357,0.051,-0.311,-0.949,-0.192,0.447,-0.874,2502.85,-1.343,-0.448,0.336,0.580,-0.111,0.807,0.529,0.243,0.813,10.907,5.542,-2.534,-0.901,0.731,0.300,0.613,10.208,-5.466,-5.466,-0.443,none
5.640621,0.386,-0.170,-0.907,2503.50,0.560,-0.224,-0.224,0.242,-0.442,-0.864,0.412,0.348,-0.842,2510.45,-0.448,0.000,-0.336,0.389,0.481,-0.786,-0.019,-0.692,-0.721,2495.63,-0.783,-0.783,-2.350,0.050,-0.307,-0.950,-0.185,0.444,-0.877,2493.75,-1.343,-0.448,0.336,0.580,-0.111,0.807,0.527,0.240,0.816,10.910,5.420,-0.855,-1.786,0.729,0.299,0.616,10.213,-5.618,-5.130,-1.115,none
5.662023,0.388,-0.185,-0.903,2514.30,1.007,0.671,0.448,0.271,-0.455,-0.848,0.416,0.349,-0.840,2531.05,0.000,0.112,0.448,0.399,0.459,-0.794,-0.007,-0.684,-0.729,2510.85,-0.895,0.112,-0.224,0.049,-0.307,-0.950,-0.181,0.434,-0.883,2487.98,-1.343,-0.448,0.336,0.580,-0.111,0.807,0.528,0.241,0.814,10.842,5.145,-1.023,-1.695,0.730,0.297,0.616,10.213,-5.298,-4.565,-1.313,none
5.683018,0.391,-0.167,-0.905,2497.55,-0.336,0.448,-0.112,0.265,-0.449,-0.853,0.419,0.351,-0.837,2515.96,0.560,0.224,0.448,0.399,0.481,-0.781,-0.003,-0.687,-0.727,2516.93,-0.448,-1.007,0.224,0.050,-0.306,-0.951,-0.182,0.430,-0.884,2484.55,-1.343,-0.448,0.336,0.580,-0.111,0.807,0.526,0.243,0.815,10.849,5.282,-2.534,-0.702,0.728,0.301,0.616,10.220,-4.962,-5.130,-0.748,none
5.703330,0.387,-0.171,-0.906,2494.44,0.112,-0.224,-0.448,0.264,-0.451,-0.852,0.420,0.348,-0.838,2535.23,-0.336,-0.560,-1.007,0.401,0.459,-0.793,-0.011,-0.690,-0.724,2489.15,-3.805,-2.014,-2.126,0.048,-0.308,-0.950,-0.189,0.436,-0.880,2496.03,-1.343,-0.448,0.336,0.580,-0.111,0.807,0.527,0.239,0.816,10.854,5.405,-3.160,0.015,0.729,0.299,0.615,10.189,-4.519,-5.389,-0.534,none
6.109076,0.387,-0.171,-0.906,2494.44,-0.224,-0.224,-0.895,0.281,-0.455,-0.845,0.412,0.359,-0.838,2513.97,-2.014,0.224,-2.350,0.413,0.468,-0.781,-0.007,-0.686,-0.727,2489.43,-4.141,-3.245,-3.021,0.047,-0.308,-0.950,-0.192,0.437,-0.879,2511.54,-1.343,-0.448,0.336,0.580,-0.111,0.807,0.532,0.237,0.813,10.869,5.481,-3.298,0.229,0.733,0.298,0.611,10.199,-4.122,-4.947,-0.412,none
6.109224,0.389,-0.170,-0.905,2508.28,3.133,0.448,-0.783,0.281,-0.442,-0.852,0.413,0.357,-0.838,2503.21,-0.336,0.560,-2.350,0.402,0.481,-0.780,-0.015,-0.691,-0.723,2530.96,-4.252,-3.245,-3.917,0.040,-0.301,-0.953,-0.192,0.439,-0.878,2502.75,-1.343,-0.448,0.336,0.580,-0.111,0.807,0.532,0.241,0.811,10.869,5.359,-2.382,-0.015,0.732,0.298,0.613,10.206,-4.305,-4.260,0.809,none
6.109301,0.387,-0.175,-0.905,2496.17,0.000,-0.112,-1.119,0.348,-0.490,-0.799,0.414,0.343,-0.843,2519.14,0.783,0.560,-1.902,0.400,0.479,-0.781,-0.019,-0.682,-0.731,2490.95,-5.260,-1.679,-3.021,0.039,-0.295,-0.955,-0.193,0.443,-0.875,2498.40,-1.343,-0.448,0.336,0.580,-0.111,0.807,0.533,0.239,0.811,10.903,5.008,-2.443,-0.489,0.729,0.300,0.615,10.174,-4.702,-4.977,0.458,none
6.109382,0.381,-0.163,-0.910,2483.80,-1.007,-0.336,-1.119,0.349,-0.506,-0.789,0.415,0.351,-0.840,2517.66,-1.007,0.224,-0.783,0.415,0.471,-0.779,-0.015,-0.682,-0.731,2490.79,-3.693,-1.231,-1.567,0.036,-0.291,-0.956,-0.196,0.448,-0.872,2494.99,-1.343,-0.448,0.336,0.580,-0.111,0.807,0.533,0.242,0.811,10.885,4.626,-2.626,-1.130,0.730,0.302,0.614,10.191,-5.542,-4.947,0.031,none
6.109459,0.390,-0.174,-0.904,2500.96,2.462,0.560,-0.448,0.355,-0.508,-0.785,0.415,0.347,-0.841,2515.01,0.224,0.671,0.671,0.402,0.486,-0.776,-0.011,-0.676,-0.736,2497.07,-0.336,-0.224,-0.560,0.035,-0.291,-0.956,-0.195,0.448,-0.872,2516.92,-1.343,-0.448,0.336,0.580,-0.111,0.807,0.537,0.241,0.808,10.868,4.595,-1.374,-2.382,0.729,0.301,0.615,10.186,-6.473,-4.489,-0.427,none
6.109545,0.382,-0.148,-0.912,2477.72,2.686,-0.448,0.000,0.361,-0.500,-0.787,0.410,0.361,-0.837,2524.28,0.336,-0.448,1.007,0.411,0.484,-0.773,-0.015,-0.678,-0.734,2517.43,2.574,0.336,-0.448,0.036,-0.292,-0.956,-0.194,0.447,-0.873,2525.65,-1.343,-0.448,0.336,0.580,-0.111,0.807,0.534,0.238,0.811,10.864,3.924,-0.870,-3.420,0.730,0.297,0.616,10.218,-6.916,-4.748,-0.824,none
6.109625,0.382,-0.182,-0.906,2506.06,0.000,-0.783,0.336,0.384,-0.520,-0.763,0.412,0.340,-0.846,2536.87,0.783,-0.336,0.000,0.426,0.459,-0.779,-0.015,-0.682,-0.731,2504.24,-0.783,-0.448,-0.336,0.035,-0.295,-0.955,-0.194,0.442,-0.876,2485.22,-1.343,-0.448,0.336,0.580,-0.111,0.807,0.531,0.238,0.813,10.853,3.221,-0.931,-4.534,0.728,0.299,0.617,10.185,-7.084,-4.992,-1.099,none
6.109696,0.386,-0.170,-0.907,2503.50,1.567,-0.224,0.560,0.384,-0.552,-0.741,0.413,0.353,-0.840,2529.58,-0.448,-0.783,-0.448,0.419,0.472,-0.775,-0.007,-0.676,-0.736,2496.98,-0.336,-0.895,0.112,0.032,-0.295,-0.955,-0.186,0.440,-0.879,2477.45,-1.343,-0.448,0.336,0.580,-0.111,0.807,0.538,0.238,0.809,10.872,3.084,-0.183,-5.115,0.732,0.301,0.612,10.178,-7.130,-5.267,-1.053,none
6.109782,0.389,-0.152,-0.908,2480.18,-0.224,-0.560,0.671,0.449,-0.587,-0.673,0.418,0.347,-0.840,2519.18,-1.231,-0.783,-0.448,0.416,0.473,-0.777,-0.007,-0.677,-0.736,2510.38,1.455,-0.671,1.679,0.031,-0.297,-0.954,-0.188,0.445,-0.875,2509.70,-1.343,-0.448,0.336,0.580,-0.111,0.807,0.536,0.237,0.810,10.867,3.649,0.870,-4.885,0.730,0.300,0.614,10.196,-7.481,-4.611,-1.466,none
6.109927,0.390,-0.186,-0.902,2505.27,0.560,-0.560,1.567,0.423,-0.631,-0.650,0.416,0.344,-0.842,2511.56,1.007,-1.119,0.448,0.439,0.464,-0.769,-0.011,-0.685,-0.729,2522.89,3.581,-1.119,2.126,0.028,-0.298,-0.954,-0.189,0.441,-0.878,2492.07,-1.343,-0.448,0.336,0.580,-0.111,0.807,0.530,0.238,0.814,10.869,4.000,0.962,-4.718,0.731,0.298,0.614,10.206,-7.313,-4.656,-1.481,none
6.110024,0.387,-0.178,-0.905,2497.76,2.014,-0.560,1.679,0.466,-0.655,-0.595,0.417,0.356,-0.836,2506.11,0.448,-1.455,0.448,0.427,0.489,-0.760,-0.011,-0.683,-0.731,2516.05,3.581,-1.567,2.350,0.029,-0.302,-0.953,-0.188,0.439,-0.879,2500.85,-1.343,-0.448,0.336,0.580,-0.111,0.807,0.531,0.237,0.813,10.878,4.137,1.298,-4.840,0.727,0.300,0.617,10.190,-7.084,-3.496,-1.634,none
6.110109,0.383,-0.166,-0.909,2499.27,2.462,0.000,1.567,0.474,-0.709,-0.523,0.422,0.346,-0.838,2523.38,1.231,-1.119,0.224,0.448,0.460,-0.766,-0.011,-0.687,-0.727,2529.75,2.574,-1.343,2.014,0.026,-0.303,-0.953,-0.189,0.433,-0.881,2491.69,-1.343,-0.448,0.336,0.580,-0.111,0.807,0.531,0.236,0.814,10.901,4.412,1.267,-4.321,0.728,0.297,0.619,10.182,-6.473,-4.046,-1.328,none
6.110192,0.381,-0.189,-0.905,2508.86,3.469,0.448,1.567,0.524,-0.739,-0.424,0.415,0.347,-0.841,2515.01,0.448,-0.895,0.000,0.459,0.454,-0.764,-0.015,-0.685,-0.729,2523.74,1.790,-1.119,1.343,0.023,-0.307,-0.951,-0.193,0.440,-0.877,2493.98,-1.343,-0.448,0.336,0.580,-0.111,0.807,0.532,0.237,0.813,10.877,4.580,1.298,-3.939,0.728,0.299,0.617,10.186,-6.137,-3.863,-1.160,none
6.110275,0.387,-0.178,-0.905,2497.76,0.671,-0.336,0.560,0.477,-0.819,-0.319,0.415,0.351,-0.840,2517.66,-0.448,-0.895,-0.112,0.462,0.459,-0.759,-0.011,-0.688,-0.725,2468.08,1.007,-1.343,1.343,0.021,-0.307,-0.951,-0.196,0.443,-0.875,2499.27,-1.343,-0.448,0.336,0.580,-0.111,0.807,0.532,0.244,0.811,10.831,4.534,1.450,-3.603,0.729,0.298,0.616,10.148,-6.962,-2.290,-0.763,none
6.110347,0.386,-0.182,-0.904,2499.56,2.574,-0.671,1.231,0.546,-0.782,-0.301,0.412,0.345,-0.843,2531.85,3.469,-2.126,0.112,0.476,0.461,-0.749,-0.019,-0.689,-0.725,2537.64,3.469,-1.119,0.560,0.021,-0.307,-0.951,-0.200,0.430,-0.880,2551.51,-1.343,-0.448,0.336,0.580,-0.111,0.807,0.528,0.239,0.815,10.850,4.336,0.809,-3.435,0.731,0.292,0.617,10.202,-6.962,-3.099,-0.244,none
6.110418,0.384,-0.193,-0.903,2514.22,4.141,-0.783,1.231,0.499,-0.850,-0.167,0.408,0.355,-0.841,2513.38,-0.336,-1.902,-1.343,0.485,0.445,-0.753,-0.019,-0.676,-0.736,2524.95,-0.783,0.671,-2.798,0.018,-0.309,-0.951,-0.195,0.445,-0.874,2512.46,-1.343,-0.448,0.336,0.580,-0.111,0.807,0.527,0.237,0.816,10.880,3.832,1.710,-4.458,0.729,0.293,0.619,10.188,-7.115,-2.672,-0.473,none
6.110500,0.380,-0.183,-0.907,2492.27,1.343,-1.455,0.560,0.524,-0.848,-0.077,0.407,0.351,-0.843,2518.27,2.238,-1.455,-1.119,0.478,0.453,-0.753,-0.015,-0.683,-0.731,2516.91,-1.007,-0.671,-2.910,0.016,-0.306,-0.952,-0.191,0.450,-0.872,2463.27,-1.343,-0.448,0.336,0.580,-0.111,0.807,0.532,0.238,0.813,10.882,3.786,2.153,-4.992,0.730,0.296,0.616,10.191,-7.344,-2.733,-0.626,none
6.112480,0.382,-0.168,-0.909,2478.18,2.126,-1.007,1.231,0.544,-0.839,-0.011,0.408,0.344,-0.846,2535.76,2.798,-1.567,-1.119,0.476,0.476,-0.740,-0.015,-0.682,-0.731,2504.24,2.126,-1.679,-1.007,0.019,-0.309,-0.951,-0.186,0.447,-0.875,2476.24,-1.343,-0.448,0.336,0.580,-0.111,0.807,0.528,0.236,0.816,10.910,3.740,3.557,-5.649,0.727,0.294,0.620,10.178,-7.267,-2.458,-1.252,none
6.112567,0.383,-0.190,-0.904,2499.81,3.805,-0.112,1.790,0.549,-0.818,0.174,0.408,0.336,-0.849,2537.43,3.917,-1.119,-0.336,0.481,0.458,-0.747,-0.019,-0.686,-0.727,2503.22,3.021,-2.910,1.007,0.014,-0.310,-0.950,-0.189,0.438,-0.879,2487.24,-1.343,-0.448,0.336,0.580,-0.111,0.807,0.528,0.239,0.815,10.866,3.725,1.710,-4.824,0.726,0.297,0.620,10.160,-7.145,-2.153,-0.931,none
6.112646,0.385,-0.197,-0.902,2507.85,3.021,-0.783,1.231,0.501,-0.855,0.135,0.417,0.337,-0.844,2529.18,3.245,-1.679,-0.783,0.459,0.472,-0.753,-0.011,-0.692,-0.722,2496.06,3.021,-2.910,1.231,0.011,-0.315,-0.949,-0.186,0.425,-0.886,2535.86,-1.343,-0.448,0.336,0.580,-0.111,0.807,0.524,0.240,0.817,10.840,4.198,1.038,-3.664,0.726,0.293,0.622,10.165,-6.397,-2.183,0.015,none
6.132801,0.385,-0.205,-0.900,2510.97,2.574,-1.567,0.224,0.529,-0.808,0.261,0.414,0.346,-0.842,2522.59,1.119,-1.343,-1.790,0.485,0.461,-0.743,-0.011,-0.696,-0.717,2522.67,-0.783,-1.343,-1.343,0.011,-0.317,-0.948,-0.187,0.425,-0.885,2513.90,-1.343,-0.448,0.336,0.580,-0.111,0.807,0.524,0.239,0.817,10.872,4.641,-0.015,-2.076,0.725,0.294,0.623,10.223,-6.031,-2.366,1.359,none
6.152885,0.384,-0.191,-0.903,2492.58,1.902,-2.126,-0.895,0.461,-0.856,0.234,0.410,0.350,-0.842,2522.36,-1.343,-1.455,-3.917,0.482,0.468,-0.741,-0.015,-0.686,-0.727,2503.06,-5.371,0.224,-3.805,0.007,-0.316,-0.949,-0.188,0.442,-0.877,2505.26,-1.343,-0.448,0.336,0.580,-0.111,0.807,0.528,0.239,0.815,10.901,4.733,0.397,-2.122,0.726,0.293,0.623,10.202,-6.214,-2.046,1.573,none
6.174599,0.382,-0.197,-0.903,2503.49,5.036,-1.455,-0.448,0.459,-0.820,0.341,0.406,0.346,-0.846,2523.23,0.112,-1.790,-3.805,0.506,0.467,-0.725,-0.019,-0.682,-0.731,2504.40,-5.931,0.224,-3.581,0.005,-0.313,-0.950,-0.186,0.451,-0.873,2480.73,-1.343,-0.448,0.336,0.580,-0.111,0.807,0.526,0.238,0.816,10.876,4.214,0.550,-2.916,0.724,0.295,0.623,10.215,-6.198,-1.985,1.176,none
6.193588,0.384,-0.208,-0.899,2513.93,3.245,-1.567,-0.336,0.479,-0.792,0.379,0.412,0.348,-0.842,2510.45,1.679,-0.895,-2.574,0.499,0.455,-0.738,-0.011,-0.686,-0.727,2503.66,-4.141,0.000,-3.469,0.005,-0.311,-0.950,-0.180,0.438,-0.881,2505.96,-1.343,-0.448,0.336,0.580,-0.111,0.807,0.523,0.240,0.818,10.864,4.763,1.450,-2.779,0.723,0.294,0.625,10.174,-5.893,-1.267,0.916,none
6.620203,0.382,-0.197,-0.903,2503.49,3.245,-1.567,-0.224,0.470,-0.782,0.410,0.412,0.348,-0.842,2510.45,0.448,-1.231,-2.910,0.517,0.459,-0.723,-0.007,-0.678,-0.735,2490.36,-3.021,-0.448,-3.469,0.004,-0.308,-0.951,-0.180,0.435,-0.882,2501.15,-1.343,-0.448,0.336,0.580,-0.111,0.807,0.521,0.236,0.820,10.874,4.855,1.511,-2.565,0.723,0.291,0.626,10.160,-5.832,-1.344,1.206,none
6.620348,0.377,-0.187,-0.907,2483.08,3.357,-1.902,-0.560,0.468,-0.755,0.460,0.403,0.355,-0.844,2518.59,0.000,-1.455,-3.581,0.486,0.489,-0.724,-0.015,-0.681,-0.732,2509.36,-3.469,-0.224,-3.693,0.002,-0.308,-0.952,-0.188,0.435,-0.881,2504.83,-1.343,-0.448,0.336,0.580,-0.111,0.807,0.524,0.238,0.818,10.855,4.824,1.328,-2.519,0.725,0.287,0.626,10.191,-5.939,-1.679,1.221,none
6.620453,0.379,-0.201,-0.903,2501.68,4.029,-2.014,-0.560,0.523,-0.714,0.465,0.403,0.347,-0.847,2519.19,0.895,-1.567,-3.469,0.508,0.465,-0.725,-0.015,-0.685,-0.728,2537.15,-5.260,0.112,-4.812,0.000,-0.306,-0.952,-0.191,0.433,-0.881,2515.54,-1.343,-0.448,0.336,0.580,-0.111,0.807,0.521,0.234,0.821,10.864,4.458,1.176,-3.191,0.723,0.286,0.629,10.163,-6.244,-1.084,1.191,none
6.620584,0.374,-0.213,-0.903,2505.04,4.252,-2.126,-0.336,0.499,-0.767,0.403,0.398,0.346,-0.850,2524.52,0.000,-1.790,-3.805,0.504,0.456,-0.734,-0.015,-0.685,-0.728,2537.15,-9.624,1.679,-7.050,-0.003,-0.295,-0.955,-0.187,0.433,-0.882,2513.65,-1.343,-0.448,0.336,0.580,-0.111,0.807,0.524,0.224,0.822,10.901,4.000,1.756,-4.229,0.722,0.277,0.634,10.193,-6.473,-1.496,1.924,none
6.620718,0.370,-0.225,-0.902,2506.77,3.917,-2.798,-0.783,0.470,-0.776,0.420,0.387,0.346,-0.854,2520.80,-0.448,-1.455,-4.364,0.499,0.477,-0.723,-0.022,-0.677,-0.736,2538.54,-13.205,2.910,-8.393,-0.001,-0.293,-0.956,-0.188,0.432,-0.882,2500.50,-1.343,-0.448,0.336,0.580,-0.111,0.807,0.518,0.224,0.825,10.890,3.924,2.779,-4.687,0.723,0.274,0.634,10.196,-6.061,-3.099,2.214,none
6.620862,0.363,-0.209,-0.908,2501.30,1.119,-2.686,-1.455,0.495,-0.722,0.483,0.394,0.334,-0.856,2526.57,-1.790,-0.783,-5.707,0.537,0.439,-0.720,-0.015,-0.662,-0.750,2506.85,-18.353,2.462,-9.176,-0.005,-0.282,-0.959,-0.186,0.440,-0.879,2477.45,-1.343,-0.448,0.336,0.580,-0.111,0.807,0.525,0.225,0.821,10.908,3.817,3.756,-5.374,0.722,0.275,0.635,10.172,-5.924,-3.374,1.985,none
6.620994,0.366,-0.216,-0.905,2508.62,1.902,-2.238,-1.455,0.508,-0.724,0.466,0.394,0.345,-0.852,2504.18,-1.231,-0.560,-5.483,0.514,0.447,-0.732,-0.015,-0.666,-0.746,2491.89,-16.562,1.567,-9.848,-0.008,-0.268,-0.963,-0.182,0.430,-0.884,2484.55,-1.343,-0.448,0.336,0.580,-0.111,0.807,0.521,0.229,0.822,10.893,4.595,3.802,-4.580,0.720,0.277,0.636,10.208,-5.313,-3.557,1.969,none
6.621119,0.367,-0.214,-0.905,2497.63,0.000,-2.014,-2.126,0.514,-0.743,0.429,0.395,0.343,-0.852,2516.25,-1.567,0.112,-5.595,0.520,0.454,-0.724,-0.003,-0.660,-0.752,2499.98,-19.136,2.014,-10.072,-0.012,-0.256,-0.966,-0.181,0.432,-0.884,2496.81,-1.343,-0.448,0.336,0.580,-0.111,0.807,0.530,0.226,0.817,10.881,5.023,3.908,-3.969,0.723,0.276,0.634,10.183,-4.779,-4.000,1.847,none
6.621244,0.365,-0.193,-0.911,2462.33,2.798,-0.560,-1.902,0.467,-0.803,0.372,0.394,0.345,-0.852,2504.18,-0.560,0.560,-4.364,0.503,0.470,-0.726,-0.003,-0.650,-0.760,2509.47,-18.800,1.679,-11.079,-0.015,-0.236,-0.972,-0.175,0.440,-0.881,2517.39,-1.343,-0.448,0.336,0.580,-0.111,0.807,0.528,0.227,0.818,10.906,5.969,4.641,-2.870,0.722,0.281,0.632,10.171,-4.504,-3.771,2.076,none
6.621365,0.362,-0.172,-0.916,2478.98,-2.238,-2.238,-2.126,0.489,-0.783,0.384,0.394,0.350,-0.850,2524.03,-0.560,0.671,-4.029,0.531,0.433,-0.728,-0.003,-0.654,-0.757,2508.40,-17.569,1.567,-11.302,-0.020,-0.215,-0.976,-0.184,0.427,-0.885,2503.19,-1.343,-0.448,0.336,0.580,-0.111,0.807,0.520,0.241,0.820,10.894,6.687,4.702,-2.137,0.721,0.286,0.631,10.197,-4.290,-5.939,1.389,none
6.621448,0.370,-0.176,-0.912,2478.53,-0.671,-0.336,-2.126,0.505,-0.745,0.436,0.397,0.341,-0.852,2529.59,-2.462,1.567,-3.133,0.518,0.442,-0.732,0.001,-0.650,-0.760,2509.46,-17.122,2.462,-9.736,-0.023,-0.196,-0.980,-0.164,0.460,-0.873,2516.11,-1.343,-0.448,0.336,0.580,-0.111,0.807,0.520,0.256,0.815,10.867,6.321,4.290,-2.244,0.723,0.303,0.621,10.177,-5.237,-6.244,0.885,none
6.621518,0.382,-0.184,-0.905,2492.58,-3.693,-1.343,-1.455,0.459,-0.763,0.455,0.409,0.372,-0.833,2504.96,-2.910,0.336,-1.231,0.520,0.472,-0.712,0.028,-0.634,-0.773,2494.35,-15.555,3.469,-7.274,-0.021,-0.181,-0.983,-0.160,0.463,-0.872,2519.98,-1.343,-0.448,0.336,0.580,-0.111,0.807,0.510,0.257,0.821,10.862,5.893,4.031,-2.947,0.723,0.303,0.621,10.190,-5.954,-4.901,0.641,none
6.621587,0.387,-0.191,-0.902,2512.67,0.560,0.560,0.224,0.498,-0.732,0.465,0.413,0.353,-0.840,2529.58,0.895,0.895,0.336,0.540,0.466,-0.701,0.024,-0.638,-0.769,2506.17,-10.407,3.805,-6.043,-0.015,-0.170,-0.985,-0.145,0.458,-0.877,2503.96,-1.343,-0.448,0.336,0.580,-0.111,0.807,0.516,0.264,0.815,10.869,5.069,2.565,-3.588,0.719,0.313,0.620,10.183,-5.969,-5.405,0.015,none
6.621656,0.398,-0.173,-0.901,2492.69,-1.231,-0.112,0.336,0.527,-0.664,0.531,0.425,0.364,-0.829,2530.01,-0.671,0.560,0.336,0.553,0.458,-0.697,0.048,-0.631,-0.774,2504.73,-7.610,3.245,-3.581,-0.008,-0.160,-0.987,-0.131,0.464,-0.876,2473.15,-1.343,-0.448,0.336,0.580,-0.111,0.807,0.514,0.269,0.814,10.847,4.947,3.603,-4.015,0.721,0.319,0.616,10.201,-6.397,-4.458,-1.099,none
6.621727,0.398,-0.169,-0.902,2490.98,-1.343,0.448,0.671,0.513,-0.713,0.479,0.429,0.369,-0.825,2528.85,0.560,0.000,1.455,0.531,0.434,-0.728,0.056,-0.626,-0.778,2493.20,-1.790,1.343,-0.224,-0.005,-0.153,-0.988,-0.127,0.463,-0.878,2479.75,-1.343,-0.448,0.336,0.580,-0.111,0.807,0.510,0.274,0.816,10.874,5.084,3.847,-3.939,0.722,0.319,0.614,10.214,-6.382,-3.435,-1.176,none
6.621808,0.401,-0.180,-0.898,2501.10,1.007,1.119,1.343,0.517,-0.702,0.489,0.434,0.370,-0.821,2517.09,0.895,0.000,1.567,0.579,0.418,-0.700,0.064,-0.626,-0.777,2493.56,3.245,0.000,2.462,0.001,-0.156,-0.988,-0.130,0.453,-0.882,2489.94,-1.343,-0.448,0.336,0.580,-0.111,0.807,0.510,0.249,0.823,10.875,4.153,3.466,-3.282,0.721,0.296,0.626,10.178,-6.641,-0.977,0.153,none
6.621882,0.384,-0.199,-0.901,2503.70,3.245,0.224,1.790,0.514,-0.743,0.428,0.401,0.341,-0.850,2532.73,5.819,-1.790,1.343,0.560,0.434,-0.706,0.016,-0.643,-0.766,2518.58,6.938,-2.350,3.469,0.002,-0.164,-0.986,-0.165,0.420,-0.892,2495.04,-1.343,-0.448,0.336,0.580,-0.111,0.807,0.506,0.242,0.828,10.859,4.840,0.947,-1.313,0.722,0.284,0.631,10.136,-5.756,-3.252,1.160,none
6.623384,0.372,-0.207,-0.905,2505.61,4.141,-0.224,0.895,0.490,-0.736,0.467,0.399,0.351,-0.847,2518.66,0.224,-1.902,-1.902,0.560,0.427,-0.710,0.013,-0.646,-0.763,2539.75,-0.783,-1.119,1.119,0.000,-0.165,-0.986,-0.173,0.437,-0.883,2556.16,-1.343,-0.448,0.336,0.580,-0.111,0.807,0.513,0.239,0.825,10.873,5.130,-0.046,-0.824,0.722,0.281,0.632,10.164,-5.603,-5.221,1.176,none
6.623482,0.368,-0.206,-0.907,2510.97,1.790,-0.560,-0.112,0.511,-0.766,0.390,0.396,0.356,-0.846,2510.60,-0.336,-0.895,-1.455,0.549,0.427,-0.719,0.009,-0.632,-0.775,2501.95,-3.805,1.119,-0.895,-0.001,-0.161,-0.987,-0.172,0.450,-0.876,2506.10,-1.343,-0.448,0.336,0.580,-0.111,0.807,0.511,0.240,0.826,10.876,5.313,0.153,-1.282,0.723,0.286,0.629,10.207,-5.618,-5.771,0.321,none
6.623561,0.376,-0.199,-0.905,2505.50,0.000,-0.224,-0.224,0.496,-0.755,0.429,0.399,0.358,-0.844,2517.79,-1.902,0.448,-0.783,0.552,0.443,-0.706,0.020,-0.628,-0.778,2501.51,-1.119,1.679,-1.343,-0.003,-0.158,-0.987,-0.160,0.449,-0.879,2510.94,-1.343,-0.448,0.336,0.580,-0.111,0.807,0.513,0.242,0.824,10.883,4.962,0.366,-1.481,0.723,0.286,0.628,10.198,-6.031,-4.672,-0.229,none
6.623635,0.373,-0.199,-0.906,2501.76,0.783,-0.224,0.336,0.454,-0.791,0.409,0.398,0.357,-0.845,2525.39,1.007,0.112,0.671,0.536,0.438,-0.722,0.016,-0.641,-0.767,2527.01,2.798,0.671,-0.112,0.003,-0.163,-0.987,-0.165,0.443,-0.881,2502.77,-1.343,-0.448,0.336,0.580,-0.111,0.807,0.509,0.240,0.827,10.871,5.115,1.115,-1.908,0.721,0.285,0.632,10.162,-6.168,-3.557,-0.656,none
6.641982,0.373,-0.203,-0.906,2503.57,1.790,0.112,0.895,0.513,-0.722,0.465,0.399,0.351,-0.847,2518.66,1.455,-0.224,0.895,0.565,0.425,-0.707,0.020,-0.639,-0.769,2520.03,0.783,0.783,-0.336,0.004,-0.163,-0.987,-0.161,0.443,-0.882,2502.02,-1.343,-0.448,0.336,0.580,-0.111,0.807,0.509,0.240,0.827,10.863,5.771,0.397,-1.359,0.721,0.282,0.633,10.186,-5.618,-3.954,-0.687,none
6.663336,0.374,-0.211,-0.903,2497.76,0.671,-0.112,0.112,0.487,-0.722,0.491,0.397,0.353,-0.847,2531.50,0.112,-0.336,-0.112,0.556,0.439,-0.706,0.020,-0.637,-0.771,2513.65,-1.343,0.560,-0.560,0.007,-0.164,-0.986,-0.157,0.443,-0.883,2499.55,-1.343,-0.448,0.336,0.580,-0.111,0.807,0.511,0.242,0.825,10.867,6.000,0.290,-1.298,0.723,0.286,0.629,10.200,-5.420,-4.382,-0.595,none
6.685035,0.373,-0.199,-0.906,2501.76,0.671,0.112,0.224,0.487,-0.743,0.459,0.399,0.358,-0.844,2517.79,0.336,0.112,-0.224,0.575,0.426,-0.698,0.016,-0.634,-0.773,2507.75,0.224,-0.112,-0.560,0.005,-0.164,-0.986,-0.157,0.446,-0.881,2504.00,-1.343,-0.448,0.336,0.580,-0.111,0.807,0.512,0.240,0.825,10.882,6.198,0.794,-1.802,0.723,0.282,0.631,10.183,-5.420,-4.229,-1.145,none
6.703345,0.373,-0.203,-0.906,2503.57,0.112,0.336,0.000,0.506,-0.721,0.474,0.391,0.354,-0.850,2523.17,1.343,0.112,0.448,0.570,0.435,-0.697,0.020,-0.627,-0.779,2489.79,0.112,0.336,-0.671,0.006,-0.164,-0.986,-0.161,0.448,-0.880,2497.67,-1.343,-0.448,0.336,0.580,-0.111,0.807,0.510,0.241,0.826,10.863,6.473,1.695,-2.412,0.721,0.285,0.632,10.188,-5.298,-4.427,-1.802,none
7.128876,0.376,-0.206,-0.903,2509.35,0.336,0.895,-0.336,0.501,-0.743,0.443,0.399,0.347,-0.849,2516.02,1.679,0.112,0.560,0.576,0.429,-0.696,0.024,-0.636,-0.771,2501.21,2.910,0.224,-0.448,0.008,-0.169,-0.986,-0.161,0.440,-0.884,2497.61,-1.343,-0.448,0.336,0.580,-0.111,0.807,0.509,0.240,0.827,10.875,6.687,1.664,-2.198,0.720,0.286,0.632,10.166,-5.344,-4.412,-2.046,none
7.129001,0.376,-0.203,-0.904,2507.31,0.448,-0.112,0.448,0.488,-0.764,0.422,0.394,0.358,-0.846,2522.27,1.790,0.224,0.560,0.562,0.452,-0.693,0.016,-0.636,-0.771,2514.24,3.021,0.336,-0.560,0.011,-0.170,-0.985,-0.153,0.436,-0.887,2499.39,-1.343,-0.448,0.336,0.580,-0.111,0.807,0.508,0.241,0.827,10.896,6.672,0.840,-1.466,0.720,0.289,0.631,10.189,-4.977,-5.649,-0.947,none
7.129079,0.376,-0.199,-0.905,2505.50,-0.560,0.112,-0.783,0.514,-0.743,0.428,0.404,0.359,-0.841,2513.38,-0.671,0.224,-0.560,0.548,0.459,-0.699,0.024,-0.639,-0.769,2521.02,-0.336,0.671,-1.007,0.010,-0.174,-0.985,-0.149,0.442,-0.885,2506.37,-1.343,-0.448,0.336,0.580,-0.111,0.807,0.510,0.243,0.825,10.909,5.878,0.244,-0.931,0.721,0.289,0.630,10.158,-5.206,-5.786,-0.061,none
